#timestamp [ns],w_RS_S_x [rad s^-1],w_RS_S_y [rad s^-1],w_RS_S_z [rad s^-1],a_RS_S_x [m s^-2],a_RS_S_y [m s^-2],a_RS_S_z [m s^-2]
1403715523912143000,-0.0006981317007977319,0.019547687622336492,0.0767944870877505,9.218250999999999,0.3023717083333333,-3.1544724166666662
1403715523917143000,-0.0006981317007977319,0.020943951023931952,0.07260569688296412,9.316317499999998,0.29419949999999995,-3.2525389166666665
1403715523922143000,-0.003490658503988659,0.023038346126325153,0.0747000919853573,9.210078791666666,0.29419949999999995,-3.178989041666666
1403715523927143000,-0.0027925268031909274,0.017453292519943295,0.07819075048934597,9.324489708333333,0.3023717083333333,-3.260711125
1403715523932143000,-0.003490658503988659,0.02234021442552742,0.08028514559173915,9.226423208333333,0.269682875,-3.195333458333333
1403715523937143000,-0.0027925268031909274,0.021642082724729686,0.08098327729253688,9.324489708333333,0.34323275000000003,-3.219850083333333
1403715523942143000,-0.0006981317007977319,0.024434609527920613,0.07749261878854824,9.226423208333333,0.34323275000000003,-3.178989041666666
1403715523947143000,0.0,0.01884955592153876,0.07819075048934597,9.299973083333333,0.35957716666666667,-3.178989041666666
1403715523952143000,0.0,0.020943951023931952,0.07888888219014369,9.234595416666666,0.3350605416666666,-3.211677875
1403715523957143000,-0.0020943951023931952,0.02024581932313422,0.07749261878854824,9.308145291666667,0.367749375,-3.2035056666666666
1403715523962143000,-0.0027925268031909274,0.024434609527920613,0.07958701389094143,9.201906583333333,0.3023717083333333,-3.138128
1403715523967143000,-0.0013962634015954637,0.02024581932313422,0.0767944870877505,9.291800875,0.34323275000000003,-3.170816833333333
1403715523972143000,-0.0013962634015954637,0.021642082724729686,0.07609635538695278,9.234595416666666,0.3105439166666667,-3.2035056666666666
1403715523977143000,-0.003490658503988659,0.02024581932313422,0.07539822368615504,9.291800875,0.35140495833333335,-3.219850083333333
1403715523982143000,-0.004886921905584123,0.023736477827122883,0.0767944870877505,9.259112041666667,0.3105439166666667,-3.18716125
1403715523987143000,-0.0027925268031909274,0.019547687622336492,0.07539822368615504,9.275456458333332,0.34323275000000003,-3.195333458333333
1403715523992143000,-0.003490658503988659,0.020943951023931952,0.07609635538695278,9.226423208333333,0.318716125,-3.211677875
1403715523997143000,-0.003490658503988659,0.017453292519943295,0.0747000919853573,9.242767624999999,0.35140495833333335,-3.219850083333333
1403715524002143000,-0.003490658503988659,0.01884955592153876,0.08028514559173915,9.226423208333333,0.29419949999999995,-3.170816833333333
1403715524007143000,-0.004886921905584123,0.01884955592153876,0.07819075048934597,9.283628666666665,0.35957716666666667,-3.211677875
1403715524012143000,-0.003490658503988659,0.023736477827122883,0.07539822368615504,9.226423208333333,0.3350605416666666,-3.2035056666666666
1403715524017143000,0.0006981317007977319,0.016755160819145562,0.07888888219014369,9.26728425,0.3350605416666666,-3.2035056666666666
1403715524022143000,-0.0027925268031909274,0.016755160819145562,0.07888888219014369,9.242767624999999,0.3023717083333333,-3.2035056666666666
1403715524027143000,-0.0013962634015954637,0.016755160819145562,0.07819075048934597,9.275456458333332,0.35140495833333335,-3.18716125
1403715524032143000,-0.0006981317007977319,0.02234021442552742,0.07819075048934597,9.259112041666667,0.318716125,-3.18716125
1403715524037143000,-0.0013962634015954637,0.023038346126325153,0.07609635538695278,9.283628666666665,0.318716125,-3.2035056666666666
1403715524042143000,0.0020943951023931952,0.023736477827122883,0.08377580409572781,9.242767624999999,0.3023717083333333,-3.170816833333333
1403715524047143000,-0.0013962634015954637,0.01815142422074103,0.0767944870877505,9.324489708333333,0.3350605416666666,-3.211677875
1403715524052143000,-0.0027925268031909274,0.021642082724729686,0.0767944870877505,9.26728425,0.3023717083333333,-3.195333458333333
1403715524057143000,-0.0023452118039131165,0.02086351253092289,0.0783248245716095,9.274888038635254,0.3427479863166809,-3.2044992446899414
1403715524062143000,0.002537272870540619,0.02023419924080372,0.07829153537750244,9.242277145385742,0.30985069274902344,-3.171437978744507
1403715524067143000,0.00255749374628067,0.016016824170947075,0.07339490950107574,9.27490520477295,0.34263306856155396,-3.1960699558258057
1403715524072143000,-0.0016141459345817566,0.019506601616740227,0.07906267046928406,9.225948333740234,0.26913678646087646,-3.2041471004486084
1403715524077143000,-0.0023480281233787537,0.014576902613043785,0.07407475262880325,9.299419403076172,0.3261515200138092,-3.1963412761688232
1403715524082143000,-0.001005515456199646,0.018793655559420586,0.07481805235147476,9.176897048950195,0.32623404264450073,-3.1960856914520264
1403715524087143000,-0.00023495405912399292,0.01740681566298008,0.07556937634944916,9.274932861328125,0.3507048785686493,-3.1880404949188232
1403715524092143000,-0.0008904114365577698,0.018836574628949165,0.07824940979480743,9.201528549194336,0.2770327031612396,-3.1631011962890625
1403715524097143000,-0.0009511411190032959,0.018823182210326195,0.07763008028268814,9.258561134338379,0.3179931342601776,-3.1798105239868164
1403715524102143000,-0.0016955435276031494,0.0230513084679842,0.07764072716236115,9.193230628967285,0.2772410809993744,-3.171326160430908
1403715524107143000,-0.0030473843216896057,0.018793167546391487,0.075430728495121,9.234146118164062,0.3590012788772583,-3.2127254009246826
1403715524112143000,-0.003003232181072235,0.021588606759905815,0.07835786044597626,9.21784782409668,0.3426303565502167,-3.2209157943725586
1403715524117143000,-0.0037074312567710876,0.01880166120827198,0.07971903681755066,9.185275077819824,0.33422333002090454,-3.1798293590545654
1403715524122143000,-0.0030387714505195618,0.025096924975514412,0.07894290238618851,9.193375587463379,0.30185043811798096,-3.2041821479797363
1403715524127143000,-0.0009577944874763489,0.022309942170977592,0.0755428671836853,9.258569717407227,0.33453240990638733,-3.196096181869507
1403715524132143000,-0.003044433891773224,0.018814990296959877,0.08039497584104538,9.217856407165527,0.3260536193847656,-3.1880152225494385
1403715524137143000,-0.002313651144504547,0.01946493424475193,0.08106595277786255,9.266806602478027,0.3015855550765991,-3.2291040420532227
1403715524142143000,-0.0016194656491279602,0.023668793961405754,0.07901768386363983,9.217823028564453,0.32631582021713257,-3.2125580310821533
1403715524147143000,-0.0016589760780334473,0.020172035321593285,0.07481171935796738,9.28299331665039,0.34260064363479614,-3.2535908222198486
1403715524152143000,-0.0009482130408287048,0.023006567731499672,0.07689281553030014,9.26669979095459,0.29349184036254883,-3.2123866081237793
1403715524157143000,-0.0009227544069290161,0.020171331241726875,0.07832755893468857,9.250531196594238,0.3752604126930237,-3.1798760890960693
1403715524162143000,-0.0023323073983192444,0.020861605182290077,0.078341543674469,9.225920677185059,0.29352161288261414,-3.2205429077148438
1403715524167143000,-0.0023489221930503845,0.018787702545523643,0.07546468079090118,9.217766761779785,0.3180310130119324,-3.147005796432495
1403715524172143000,-0.0030426010489463806,0.021643219515681267,0.07759451121091843,9.242292404174805,0.2609430253505707,-3.1959969997406006
1403715524177143000,-0.0030419453978538513,0.020865069702267647,0.0762190967798233,9.258577346801758,0.3508765399456024,-3.22098445892334
1403715524182143000,-0.002340354025363922,0.020215125754475594,0.0776369497179985,9.274957656860352,0.29349634051322937,-3.179567575454712
1403715524187143000,-0.0030177459120750427,0.021603820845484734,0.07622397691011429,9.250367164611816,0.32620760798454285,-3.1715376377105713
1403715524192143000,-0.0002505853772163391,0.021596571430563927,0.0775795578956604,9.217824935913086,0.3179543614387512,-3.204129695892334
1403715524197143000,0.001833014190196991,0.020190106704831123,0.07620082795619965,9.274901390075684,0.31808921694755554,-3.17960524559021
1403715524202143000,0.00184621661901474,0.02090763859450817,0.07693426311016083,9.209465980529785,0.29359936714172363,-3.195995569229126
1403715524207143000,0.00046403706073760986,0.01740109734237194,0.07969778776168823,9.274971961975098,0.33410781621932983,-3.1964023113250732
1403715524212143000,-0.0009421855211257935,0.01950184814631939,0.08176574110984802,9.217940330505371,0.35074934363365173,-3.171621799468994
1403715524217143000,-0.0009596124291419983,0.02087475173175335,0.07827719300985336,9.258662223815918,0.32632115483283997,-3.179898262023926
1403715524222143000,-0.002347715198993683,0.023033564910292625,0.07551790028810501,9.266684532165527,0.2852957546710968,-3.187734603881836
1403715524227143000,-0.0016317889094352722,0.01952049694955349,0.07902322709560394,9.274906158447266,0.3098496198654175,-3.1960999965667725
1403715524232143000,-0.005838565528392792,0.02092052437365055,0.0783226415514946,9.242242813110352,0.26075875759124756,-3.163266897201538
1403715524237143000,-0.0030650123953819275,0.017397897318005562,0.07480587065219879,9.291259765625,0.31801071763038635,-3.1797916889190674
1403715524242143000,-0.002334602177143097,0.024397140368819237,0.07899802178144455,9.234139442443848,0.30178260803222656,-3.1878275871276855
1403715524247143000,-0.0023415684700012207,0.017436811700463295,0.07200289517641068,9.291157722473145,0.3425588011741638,-3.196345329284668
1403715524252143000,0.0011796429753303528,0.021611029282212257,0.0769476443529129,9.274882316589355,0.3098452389240265,-3.245208978652954
1403715524257143000,-0.001643165946006775,0.018082769587635994,0.07485558092594147,9.33202075958252,0.3587961196899414,-3.2373101711273193
1403715524262143000,-0.0009748116135597229,0.022286435589194298,0.07547389715909958,9.258589744567871,0.28537341952323914,-3.195967435836792
1403715524267143000,-0.0023245811462402344,0.021580981090664864,0.07553523778915405,9.26680850982666,0.35065171122550964,-3.1963202953338623
1403715524272143000,-0.0023415610194206238,0.02301829867064953,0.07762637734413147,9.217729568481445,0.30983874201774597,-3.204210042953491
1403715524277143000,-0.003038264811038971,0.018118785694241524,0.07547539472579956,9.250372886657715,0.3261661231517792,-3.179908514022827
1403715524282143000,-0.0030493661761283875,0.019490854814648628,0.07349550724029541,9.201395034790039,0.26890942454338074,-3.2205824851989746
1403715524287143000,-0.0016544237732887268,0.019505446776747704,0.07130635529756546,9.217743873596191,0.31799349188804626,-3.1632847785949707
1403715524292143000,-0.0009579882025718689,0.022310523316264153,0.07967250049114227,9.193387031555176,0.30991503596305847,-3.1631603240966797
1403715524297143000,-0.0023083463311195374,0.02159496583044529,0.07419389486312866,9.291175842285156,0.3426665961742401,-3.220808267593384
1403715524302143000,-0.0037277117371559143,0.019537905231118202,0.07620584964752197,9.23409366607666,0.27702176570892334,-3.195814847946167
1403715524307143000,-0.0023526623845100403,0.016667945310473442,0.07130806893110275,9.274795532226562,0.3263622522354126,-3.2371649742126465
1403715524312143000,-0.0023315325379371643,0.02088744379580021,0.07830264419317245,9.242267608642578,0.3183366656303406,-3.2043309211730957
1403715524317143000,-0.0030200257897377014,0.017388278618454933,0.07623209059238434,9.217799186706543,0.33427906036376953,-3.187910318374634
1403715524322143000,-0.003713957965373993,0.01811724342405796,0.08042153716087341,9.225993156433105,0.2854062020778656,-3.2207202911376953
1403715524327143000,-0.0030533820390701294,0.01950843818485737,0.079673632979393,9.27499008178711,0.3507118821144104,-3.171804666519165
1403715524332143000,-0.0002787932753562927,0.020211489871144295,0.07690978050231934,9.217641830444336,0.2688838541507721,-3.1794395446777344
1403715524337143000,-0.0009343549609184265,0.01807555742561817,0.0748094767332077,9.291241645812988,0.3587457239627838,-3.1718571186065674
1403715524342143000,-0.001637980341911316,0.021643901243805885,0.07623176276683807,9.234151840209961,0.24449165165424347,-3.2039036750793457
1403715524347143000,-0.0058211758732795715,0.01600576378405094,0.07761792093515396,9.29122543334961,0.3014961779117584,-3.204472064971924
1403715524352143000,-0.005145244300365448,0.02089637704193592,0.08181959390640259,9.226035118103027,0.30175530910491943,-3.220628023147583
1403715524357143000,-0.004424639046192169,0.021607795730233192,0.07479718327522278,9.2749605178833,0.3507870137691498,-3.2207696437835693
1403715524362143000,-0.006514310836791992,0.02512824721634388,0.07758787274360657,9.201456069946289,0.2854059934616089,-3.1631124019622803
1403715524367143000,-0.003710336983203888,0.018092216923832893,0.07413152605295181,9.234137535095215,0.33447355031967163,-3.196291208267212
1403715524372143000,-0.0016638562083244324,0.02160549722611904,0.07828095555305481,9.21782112121582,0.30994096398353577,-3.1715691089630127
1403715524377143000,0.00042372196912765503,0.018788138404488564,0.07623755186796188,9.225894927978516,0.3180259168148041,-3.1962029933929443
1403715524382143000,-0.00022054463624954224,0.023697229102253914,0.07764195650815964,9.18514347076416,0.2772405743598938,-3.179600954055786
1403715524387143000,0.0011595860123634338,0.017437735572457314,0.07481259107589722,9.291290283203125,0.31787219643592834,-3.2370073795318604
1403715524392143000,-0.0009632483124732971,0.0216278824955225,0.07691507041454315,9.201485633850098,0.2933868169784546,-3.138528347015381
1403715524397143000,-0.0016548261046409607,0.019482919946312904,0.0775924026966095,9.291193962097168,0.3097655773162842,-3.2124416828155518
1403715524402143000,-0.0009323731064796448,0.022300781682133675,0.08177712559700012,9.21776294708252,0.2688857614994049,-3.179482936859131
1403715524407143000,-0.0023486539721488953,0.01809661276638508,0.07692209631204605,9.258560180664062,0.3262619972229004,-3.220724582672119
1403715524412143000,-0.00303737074136734,0.02021617628633976,0.07551532983779907,9.225955963134766,0.31804072856903076,-3.138997793197632
1403715524417143000,-0.0037360116839408875,0.02089587412774563,0.07763659954071045,9.315812110900879,0.30155277252197266,-3.1960220336914062
1403715524422143000,-0.00027748197317123413,0.019514432176947594,0.07550908625125885,9.266611099243164,0.32625293731689453,-3.204460859298706
1403715524427143000,-0.003031216561794281,0.019517483189702034,0.07338184863328934,9.274904251098633,0.33448803424835205,-3.179807662963867
1403715524432143000,-0.002315141260623932,0.021605079993605614,0.07761774957180023,9.258675575256348,0.3015349507331848,-3.171543836593628
1403715524437143000,-0.0023384615778923035,0.021576719358563423,0.0713435560464859,9.307437896728516,0.3015538454055786,-3.204071283340454
1403715524442143000,-0.0030719563364982605,0.020228782668709755,0.08043237030506134,9.234170913696289,0.3342120945453644,-3.155377149581909
1403715524447143000,-0.005126550793647766,0.022325104102492332,0.07066411525011063,9.282981872558594,0.26896899938583374,-3.2041561603546143
1403715524452143000,-0.003739200532436371,0.02092682011425495,0.07752203941345215,9.250439643859863,0.29332855343818665,-3.155139684677124
1403715524457143000,-0.004453405737876892,0.022978326305747032,0.07766764611005783,9.291257858276367,0.30170390009880066,-3.212388515472412
1403715524462143000,-0.0009590387344360352,0.02094096504151821,0.07900083810091019,9.250452041625977,0.3095936179161072,-3.196202516555786
1403715524467143000,-0.000942133367061615,0.0230035949498415,0.0734281912446022,9.266728401184082,0.30198290944099426,-3.204123020172119
1403715524472143000,0.001130722463130951,0.022992925718426704,0.07974405586719513,9.24221134185791,0.334291011095047,-3.1634738445281982
1403715524477143000,-0.001628197729587555,0.01948445476591587,0.08171883970499039,9.28320598602295,0.3342383801937103,-3.188009262084961
1403715524482143000,-0.0016326382756233215,0.02090240828692913,0.0810793936252594,9.209697723388672,0.32626330852508545,-3.204385280609131
1403715524487143000,-0.0016360655426979065,0.022981366142630577,0.08182695508003235,9.28309440612793,0.3181252181529999,-3.229058265686035
1403715524492143000,-0.0009507909417152405,0.019507022574543953,0.08312731236219406,9.250423431396484,0.30139148235321045,-3.2126078605651855
1403715524497143000,-0.004400119185447693,0.020185964182019234,0.07692689448595047,9.26672649383545,0.3016519248485565,-3.212406873703003
1403715524502143000,-0.003752507269382477,0.018118558451533318,0.07555542886257172,9.266780853271484,0.28518638014793396,-3.187835931777954
1403715524507143000,-0.005143262445926666,0.022957967594265938,0.07407625019550323,9.250391006469727,0.3262590765953064,-3.2125306129455566
1403715524512143000,-0.0009554699063301086,0.016686992719769478,0.07622493803501129,9.250323295593262,0.3506828248500824,-3.21272349357605
1403715524517143000,-0.0009082779288291931,0.020208148285746574,0.07486715912818909,9.234140396118164,0.33438581228256226,-3.2207138538360596
1403715524522143000,-0.0037233754992485046,0.019495336338877678,0.07407018542289734,9.258598327636719,0.34265556931495667,-3.1963412761688232
1403715524527143000,-0.005122728645801544,0.021571999415755272,0.07552215456962585,9.225909233093262,0.2937394976615906,-3.2287702560424805
1403715524532143000,-0.0023641735315322876,0.0188229288905859,0.07274269312620163,9.299337387084961,0.33434638381004333,-3.204375743865967
1403715524537143000,-0.0037374868988990784,0.022309647873044014,0.07550990581512451,9.274869918823242,0.29360121488571167,-3.2123191356658936
1403715524542143000,-0.004400312900543213,0.01948532648384571,0.07764333486557007,9.23402214050293,0.3181401789188385,-3.187998056411743
1403715524547143000,-0.005107469856739044,0.021563714370131493,0.07972405850887299,9.242350578308105,0.31801408529281616,-3.2125442028045654
1403715524552143000,-0.0030782297253608704,0.021610187366604805,0.07897954434156418,9.258597373962402,0.34252989292144775,-3.2291042804718018
1403715524557143000,-0.0016522333025932312,0.025109509006142616,0.0810709074139595,9.242243766784668,0.3017429709434509,-3.1960999965667725
1403715524562143000,-0.0009072795510292053,0.020181501284241676,0.07828070968389511,9.225927352905273,0.30976250767707825,-3.196051597595215
1403715524567143000,-0.0023097097873687744,0.020184794440865517,0.07482665777206421,9.185172080993652,0.32618772983551025,-3.2451553344726562
1403715524572143000,-0.0058370307087898254,0.016681084409356117,0.0776309072971344,9.29133129119873,0.34269243478775024,-3.2373359203338623
1403715524577143000,-0.0009595975279808044,0.02157681994140148,0.07691941410303116,9.242240905761719,0.29363617300987244,-3.195998430252075
1403715524582143000,-0.0002475157380104065,0.02088640071451664,0.07274426519870758,9.291118621826172,0.3098292350769043,-3.212491273880005
1403715524587143000,-0.0009235069155693054,0.023036042228341103,0.07900671660900116,9.307467460632324,0.27729445695877075,-3.220468044281006
1403715524592143000,-0.0029991790652275085,0.01459810696542263,0.07545475661754608,9.323768615722656,0.3426545262336731,-3.2291359901428223
1403715524597143000,0.0010959580540657043,0.02224910445511341,0.079024538397789,9.291145324707031,0.3016345500946045,-3.220719814300537
1403715524602143000,-0.0016668811440467834,0.020873362198472023,0.08047465234994888,9.315698623657227,0.2851961553096771,-3.236968755722046
1403715524607143000,-0.003001675009727478,0.02231614477932453,0.07685737311840057,9.234012603759766,0.31817346811294556,-3.187879800796509
1403715524612143000,-0.004385136067867279,0.02161947451531887,0.07414881139993668,9.323833465576172,0.33441558480262756,-3.245438814163208
1403715524617143000,-0.0023810341954231262,0.023690635338425636,0.08044855296611786,9.242413520812988,0.3098466992378235,-3.2207350730895996
1403715524622143000,-0.002338610589504242,0.02574760653078556,0.07683339715003967,9.274892807006836,0.34258508682250977,-3.245413303375244
1403715524627143000,-0.001619882881641388,0.019513865932822227,0.07972976565361023,9.250435829162598,0.29352957010269165,-3.204317569732666
1403715524632143000,-0.00023511797189712524,0.01948784478008747,0.07484504580497742,9.323809623718262,0.32612159848213196,-3.2288577556610107
1403715524637143000,-0.0023480355739593506,0.02227875031530857,0.07823442667722702,9.209517478942871,0.27727168798446655,-3.1796398162841797
1403715524642143000,-0.003730766475200653,0.01807118020951748,0.07698617875576019,9.283123016357422,0.32610172033309937,-3.1962075233459473
1403715524647143000,-0.0009629428386688232,0.021655919030308723,0.08111219108104706,9.22581958770752,0.25261589884757996,-3.1794326305389404
1403715524652143000,-0.00024978071451187134,0.018787352368235588,0.07822636514902115,9.29113483428955,0.33440011739730835,-3.220818042755127
1403715524657143000,-0.0009170100092887878,0.02018302120268345,0.08111681044101715,9.22603702545166,0.33423370122909546,-3.163559675216675
1403715524662143000,-0.003023602068424225,0.01946813426911831,0.07621370255947113,9.250429153442383,0.3016974627971649,-3.2205395698547363
1403715524667143000,-0.0023796185851097107,0.021639471873641014,0.07967064529657364,9.250466346740723,0.3426412343978882,-3.1717283725738525
1403715524672143000,-0.002347782254219055,0.020913848653435707,0.08043748140335083,9.242354393005371,0.3260082006454468,-3.187894582748413
1403715524677143000,-0.00022675096988677979,0.020195486024022102,0.07686223089694977,9.283085823059082,0.3179377019405365,-3.1552860736846924
1403715524682143000,-0.0016256943345069885,0.02372659184038639,0.07691217213869095,9.274800300598145,0.2772165536880493,-3.2122483253479004
1403715524687143000,-0.002363927662372589,0.02022458426654339,0.07694243639707565,9.217658042907715,0.29334425926208496,-3.163466691970825
1403715524692143000,-0.003047831356525421,0.021584825590252876,0.07688730955123901,9.291315078735352,0.317839115858078,-3.2207624912261963
1403715524697143000,-0.0044440701603889465,0.01810353808104992,0.07622289657592773,9.250493049621582,0.3261426091194153,-3.171637535095215
1403715524702143000,-0.00441867858171463,0.018777048215270042,0.07341873645782471,9.234031677246094,0.2934194803237915,-3.220491409301758
1403715524707143000,-0.00023596733808517456,0.013240715488791466,0.07548680901527405,9.283145904541016,0.33419013023376465,-3.1635854244232178
1403715524712143000,-0.003756202757358551,0.019506527110934258,0.07211333513259888,9.25857925415039,0.2691137194633484,-3.195737600326538
1403715524717143000,-0.0030520781874656677,0.016716523095965385,0.0762210488319397,9.266700744628906,0.3178022503852844,-3.204590082168579
1403715524722143000,-0.0037172362208366394,0.02089742012321949,0.07968639582395554,9.209762573242188,0.30186912417411804,-3.1960480213165283
1403715524727143000,-0.0051336511969566345,0.018822723999619484,0.07619374990463257,9.217809677124023,0.33450788259506226,-3.2127158641815186
1403715524732143000,-0.0016362294554710388,0.023012863472104073,0.07550410181283951,9.242188453674316,0.2934371531009674,-3.195920467376709
1403715524737143000,0.0004582926630973816,0.016018321737647057,0.07831259071826935,9.299494743347168,0.3750879466533661,-3.180055856704712
1403715524742143000,-0.004432402551174164,0.02439209632575512,0.07902684807777405,9.258556365966797,0.2935560941696167,-3.228790044784546
1403715524747143000,-0.0016394183039665222,0.02022472955286503,0.07622355967760086,9.274819374084473,0.33412930369377136,-3.1963109970092773
1403715524752143000,-0.0009434595704078674,0.021610824391245842,0.07898636162281036,9.20959186553955,0.28537073731422424,-3.1795637607574463
1403715524757143000,-0.0037622228264808655,0.018816059455275536,0.07477233558893204,9.299354553222656,0.31773850321769714,-3.1634633541107178
1403715524762143000,-0.002318538725376129,0.018808638677001,0.07625658065080643,9.242291450500488,0.28546807169914246,-3.1467134952545166
1403715524767143000,-0.007209978997707367,0.024355163797736168,0.07554426044225693,9.234006881713867,0.3261885344982147,-3.229032516479492
1403715524772143000,-0.0072689056396484375,0.025825461372733116,0.07683974504470825,9.217900276184082,0.3428100645542145,-3.1307849884033203
1403715524777143000,-0.0030305832624435425,0.020254069939255714,0.06860219687223434,9.348321914672852,0.2689042389392853,-3.277714490890503
1403715524782143000,-0.009928740561008453,0.013799803331494331,0.07960975915193558,9.022237777709961,0.6207810640335083,-3.1240248680114746
1403715524787143000,-0.021828025579452515,0.01723930425941944,0.08312354981899261,9.446977615356445,0.563307523727417,-3.312263011932373
1403715524792143000,-0.028120778501033783,0.025065714493393898,0.08600015938282013,9.217945098876953,0.21959775686264038,-3.1633808612823486
1403715524797143000,-0.014291413128376007,0.011198272928595543,0.08742877840995789,9.274836540222168,-0.09943302720785141,-3.12917423248291
1403715524802143000,0.01844646781682968,0.03732774406671524,0.06858731806278229,9.380006790161133,-0.6223551630973816,-3.0860280990600586
1403715524807143000,0.0555642768740654,0.012702835723757744,0.07144048064947128,8.99614143371582,-0.08216536045074463,-3.0618369579315186
1403715524812143000,0.06113944202661514,0.02454751543700695,0.04362863302230835,9.592275619506836,0.1877334862947464,-3.3262104988098145
1403715524817143000,0.03760813921689987,0.02983989752829075,0.05131356418132782,8.760855674743652,1.398447871208191,-3.0616469383239746
1403715524822143000,-0.019547604024410248,0.0014395322650671005,0.08080483973026276,9.380858421325684,1.7910492420196533,-3.5144753456115723
1403715524827143000,-0.08727248758077621,0.028181159868836403,0.09469971805810928,9.039775848388672,1.1193722486495972,-3.20141339302063
1403715524832143000,-0.10969635099172592,0.012393100187182426,0.11023681610822678,9.21973705291748,0.08822938799858093,-3.2216975688934326
1403715524837143000,-0.07150489836931229,0.019065873697400093,0.10561157017946243,9.382155418395996,-1.2044485807418823,-2.9794106483459473
1403715524842143000,0.0016528889536857605,0.028906257823109627,0.08592581003904343,9.290239334106445,-1.145769476890564,-3.0755693912506104
1403715524847143000,0.06388657540082932,0.010734008625149727,0.08140607178211212,9.224054336547852,-0.5733526945114136,-2.963628053665161
1403715524852143000,0.08282367140054703,0.017624670639634132,0.05695520341396332,9.527154922485352,0.12197337299585342,-3.3006889820098877
1403715524857143000,0.07655463367700577,0.043884195387363434,0.07316404581069946,9.088394165039062,0.9317888021469116,-3.2219812870025635
1403715524862143000,0.037524811923503876,0.016782449558377266,0.07469099014997482,9.105156898498535,1.0467066764831543,-3.2635204792022705
1403715524867143000,0.004175908863544464,0.03667677938938141,0.08628661930561066,9.611252784729004,1.1281553506851196,-3.452773332595825
1403715524872143000,-0.03281889855861664,0.03131616860628128,0.09109099209308624,8.623138427734375,0.8172956705093384,-3.0588462352752686
1403715524877143000,-0.047152742743492126,0.01086026057600975,0.09365707635879517,9.969475746154785,0.5461381673812866,-3.4778740406036377
1403715524882143000,-0.0603918582201004,0.05568806827068329,0.08661040663719177,8.540199279785156,0.22731581330299377,-2.8357326984405518
1403715524887143000,-0.04518923908472061,-0.005603996105492115,0.08416982740163803,9.560426712036133,-0.09164454787969589,-3.4180426597595215
1403715524892143000,-0.01706467568874359,0.05669320374727249,0.0695643275976181,9.42077922821045,-0.5177438259124756,-2.9892706871032715
1403715524897143000,0.02007392793893814,0.004965595901012421,0.07420225441455841,8.743510246276855,-0.3795333504676819,-3.0524749755859375
1403715524902143000,0.049495913088321686,0.02745821140706539,0.059580184519290924,9.714334487915039,-0.21473100781440735,-3.2598514556884766
1403715524907143000,0.05785713344812393,0.02594415657222271,0.06620271503925323,8.924564361572266,0.4222540557384491,-3.070056200027466
1403715524912143000,0.043868087232112885,0.012284541502594948,0.06285249441862106,9.31593132019043,0.8912323713302612,-3.4111411571502686
1403715524917143000,0.010987229645252228,0.03626839071512222,0.06917048245668411,9.3169584274292,0.852232038974762,-3.1648855209350586
1403715524922143000,-0.016293365508317947,0.03035471774637699,0.0781034305691719,9.17007827758789,1.0652925968170166,-3.3386473655700684
1403715524927143000,-0.04437597095966339,0.026547281071543694,0.0866173580288887,9.151908874511719,0.4929390847682953,-3.116535186767578
1403715524932143000,-0.05138268321752548,0.032577984035015106,0.09420681744813919,9.210992813110352,0.285382479429245,-3.1888930797576904
1403715524937143000,-0.042238473892211914,0.016646334901452065,0.0964282676577568,8.948200225830078,-0.11478486657142639,-3.0231637954711914
1403715524942143000,-0.013645641505718231,0.012001236900687218,0.0958368331193924,9.380327224731445,-0.37237587571144104,-3.1695919036865234
1403715524947143000,0.01374148577451706,0.022257717326283455,0.0728972852230072,9.233839988708496,-0.2417285293340683,-3.1281137466430664
1403715524952143000,0.03617984801530838,0.003084516152739525,0.07155513763427734,9.200494766235352,-0.07735683768987656,-3.1444294452667236
1403715524957143000,0.04461256414651871,0.025796378031373024,0.06371426582336426,9.593676567077637,0.3231443166732788,-3.2447752952575684
1403715524962143000,0.036979302763938904,0.02451951988041401,0.07045727223157883,9.071545600891113,0.644864559173584,-3.204040050506592
1403715524967143000,0.019503287971019745,0.02361040748655796,0.07606711983680725,9.429889678955078,0.8666889071464539,-3.329352855682373
1403715524972143000,-0.008576594293117523,0.030498316511511803,0.08770720660686493,9.1621675491333,0.827822208404541,-3.1492459774017334
1403715524977143000,-0.03252948075532913,0.015854662284255028,0.08575048297643661,9.119613647460938,0.6914633512496948,-3.239525079727173
1403715524982143000,-0.04311865568161011,0.018713464960455894,0.08187104761600494,9.340728759765625,0.2801542580127716,-3.189091205596924
1403715524987143000,-0.038888804614543915,0.018794773146510124,0.07288407534360886,9.307886123657227,-0.1962064504623413,-3.2439942359924316
1403715524992143000,-0.008029170334339142,0.02183336578309536,0.06671075522899628,9.314208984375,-0.34574127197265625,-3.235180616378784
1403715524997143000,0.03403037041425705,0.03008715994656086,0.07298897951841354,9.364361763000488,-0.10280762612819672,-3.177255630493164
1403715525002143000,0.04190953075885773,0.036307401955127716,0.0830974206328392,9.13598346710205,0.5353588461875916,-3.1957461833953857
1403715525007143000,0.014883317053318024,0.027022069320082664,0.08694849163293839,9.177887916564941,1.2148560285568237,-3.191889762878418
1403715525012143000,-0.030581921339035034,0.017071759328246117,0.1043391227722168,9.031679153442383,1.192034125328064,-3.1438419818878174
1403715525017143000,-0.07694485038518906,0.015038346871733665,0.07938346266746521,9.153340339660645,0.7858174443244934,-3.355304479598999
1403715525022143000,-0.07010634988546371,0.009741347283124924,0.08741608262062073,9.455411911010742,-0.19501866400241852,-3.179232358932495
1403715525027143000,-0.037345148622989655,0.03154976665973663,0.0751742348074913,9.233922958374023,-0.8153414726257324,-3.077281951904297
1403715525032143000,0.03564820438623428,0.018538756296038628,0.05614042282104492,9.35457706451416,-1.2155814170837402,-3.1822826862335205
1403715525037143000,0.10059302300214767,0.03998369723558426,0.07082511484622955,9.37165355682373,-0.13844801485538483,-2.9382314682006836
1403715525042143000,0.10584386438131332,0.027158094570040703,0.06264058500528336,8.932294845581055,1.0635645389556885,-3.140091896057129
1403715525047143000,0.06300085037946701,0.00024730339646339417,0.06148604676127434,9.071354866027832,1.740149974822998,-3.2603213787078857
1403715525052143000,-0.02007046341896057,0.008550679311156273,0.07036434859037399,9.292485237121582,1.5841189622879028,-3.3906190395355225
1403715525057143000,-0.06707823276519775,0.008747247979044914,0.07879546284675598,9.332707405090332,0.8135913014411926,-3.3554883003234863
1403715525062143000,-0.07479141652584076,0.015830954536795616,0.09290741384029388,9.251574516296387,0.430977463722229,-3.328937292098999
1403715525067143000,-0.06366848945617676,0.02798284776508808,0.09185954928398132,9.357362747192383,-0.14009492099285126,-3.1292002201080322
1403715525072143000,-0.034432634711265564,0.018209876492619514,0.0970233678817749,9.045820236206055,-0.4509437382221222,-3.0050086975097656
1403715525077143000,-0.006060965359210968,0.013813560828566551,0.07767452299594879,9.151811599731445,-0.30986422300338745,-3.1943278312683105
1403715525082143000,0.03153339773416519,0.00986585021018982,0.08691142499446869,9.356170654296875,-0.2852422297000885,-2.9890661239624023
1403715525087143000,0.047902680933475494,0.014997506514191628,0.0734211653470993,9.371932983398438,-0.21207711100578308,-3.2429113388061523
1403715525092143000,0.06144953519105911,0.0147563386708498,0.06510498374700546,9.511414527893066,0.45787957310676575,-3.3511962890625
1403715525097143000,0.05516468733549118,0.03504301607608795,0.09223774075508118,9.210984230041504,0.8005489110946655,-3.1385345458984375
1403715525102143000,0.008995778858661652,0.019919930025935173,0.08826397359371185,9.193952560424805,1.3492082357406616,-3.355961799621582
1403715525107143000,-0.03233268857002258,0.024780550971627235,0.088423952460289,9.438860893249512,0.9981791973114014,-3.158641815185547
1403715525112143000,-0.06175433099269867,0.03466796875,0.09627244621515274,8.753259658813477,0.7030312418937683,-2.986459732055664
1403715525117143000,-0.06883487105369568,0.001877008005976677,0.08227710425853729,9.275712966918945,0.13035520911216736,-3.23128604888916
1403715525122143000,-0.04288365691900253,0.019019896164536476,0.08135920763015747,9.479000091552734,-0.3706052005290985,-3.1865720748901367
1403715525127143000,-0.009344778954982758,0.0274187158793211,0.06970291584730148,9.257057189941406,-0.32243257761001587,-3.226654052734375
1403715525132143000,0.026225320994853973,0.0259621050208807,0.06294161081314087,9.249327659606934,-0.3633131980895996,-3.1521100997924805
1403715525137143000,0.044541291892528534,0.0392872616648674,0.07147544622421265,9.33203411102295,0.08776441961526871,-3.1271376609802246
1403715525142143000,0.04606842249631882,0.02587156556546688,0.0614984892308712,9.013737678527832,0.5296054482460022,-3.187033176422119
1403715525147143000,0.03549041599035263,0.004712672904133797,0.06603825092315674,9.36591625213623,0.6946643590927124,-3.1813337802886963
1403715525152143000,0.010349191725254059,0.01924978755414486,0.06993047893047333,9.023310661315918,0.8271384835243225,-3.2066190242767334
1403715525157143000,-0.02253948152065277,0.005461253225803375,0.07328644394874573,9.323601722717285,0.8378465175628662,-3.2978622913360596
1403715525162143000,-0.04162181168794632,0.02290933020412922,0.08381997793912888,9.46289348602295,0.5009827613830566,-3.337109327316284
1403715525167143000,-0.05419375002384186,0.027129830792546272,0.08615650236606598,9.169386863708496,0.2956029176712036,-3.188401937484741
1403715525172143000,-0.03748118132352829,0.028581636026501656,0.09425914287567139,9.128117561340332,-0.048820920288562775,-3.0804998874664307
1403715525177143000,-0.014321625232696533,0.01953708566725254,0.08954315632581711,9.242029190063477,-0.43667230010032654,-3.0537421703338623
1403715525182143000,0.01447322964668274,0.01682315208017826,0.08265732228755951,9.069817543029785,-0.2657467722892761,-3.1116931438446045
1403715525187143000,0.032836802303791046,0.01194273866713047,0.08805794268846512,9.389497756958008,0.14873245358467102,-3.2534186840057373
1403715525192143000,0.033550284802913666,0.014696331694722176,0.08251461386680603,9.324419975280762,0.44496411085128784,-3.2209324836730957
1403715525197143000,0.014667697250843048,0.023066917434334755,0.078806571662426,9.340271949768066,0.8250526785850525,-3.2469732761383057
1403715525202143000,-0.010655038058757782,0.01805042289197445,0.08999068289995193,9.447344779968262,0.6458899974822998,-3.197256565093994
1403715525207143000,-0.024108678102493286,0.0194344874471426,0.08802144229412079,9.104092597961426,0.10049383342266083,-3.096569299697876
1403715525212143000,-0.0026933476328849792,0.013988764956593513,0.08737368881702423,9.201117515563965,-0.2739016115665436,-3.0793795585632324
1403715525217143000,0.032933495938777924,0.01197207160294056,0.0714840367436409,9.396371841430664,-0.39155313372612,-3.275123119354248
1403715525222143000,0.04705114662647247,0.02530391328036785,0.06297482550144196,9.298277854919434,0.2450283169746399,-3.1054980754852295
1403715525227143000,0.03612152487039566,0.018714765086770058,0.05671321600675583,9.340190887451172,0.9381959438323975,-3.444136381149292
1403715525232143000,-0.00277797132730484,0.031040554866194725,0.06276283413171768,9.307543754577637,1.4933619499206543,-3.3568382263183594
1403715525237143000,-0.06201690435409546,0.03236988186836243,0.08276396989822388,9.071595191955566,1.3777321577072144,-3.2753169536590576
1403715525242143000,-0.10170849412679672,0.01778392307460308,0.085731640458107,9.056476593017578,0.7484992742538452,-3.110250473022461
1403715525247143000,-0.09209208935499191,0.020852291956543922,0.11033958941698074,9.056178092956543,-0.33022060990333557,-2.973283290863037
1403715525252143000,-0.05058048665523529,0.0057112593203783035,0.08950850367546082,9.291735649108887,-1.0889936685562134,-3.2493419647216797
1403715525257143000,0.021886862814426422,0.018444420769810677,0.08961695432662964,9.469569206237793,-0.8818875551223755,-2.8817062377929688
1403715525262143000,0.06243101507425308,0.021165555343031883,0.06598726660013199,9.355117797851562,-0.08736374974250793,-3.3164024353027344
1403715525267143000,0.07701382786035538,0.018973538652062416,0.04826218634843826,9.111337661743164,0.48451533913612366,-3.096392869949341
1403715525272143000,0.061943016946315765,0.03127893805503845,0.07400976121425629,9.3331937789917,1.0807141065597534,-3.22172212600708
1403715525277143000,0.017295055091381073,0.02210375852882862,0.06976359337568283,9.243444442749023,0.9644022583961487,-3.2063708305358887
1403715525282143000,-0.016072336584329605,0.028283165767788887,0.09309041500091553,9.023150444030762,1.1924961805343628,-3.200244426727295
1403715525287143000,-0.053157687187194824,0.0060669127851724625,0.08994531631469727,9.072176933288574,0.6603855490684509,-3.0848538875579834
1403715525292143000,-0.05676717311143875,0.01240832544863224,0.1059362143278122,9.194032669067383,0.46205803751945496,-3.108431577682495
1403715525297143000,-0.06178649514913559,-0.004231573082506657,0.07146655768156052,9.503504753112793,-0.20774906873703003,-3.2371749877929688
1403715525302143000,-0.029658526182174683,0.009676089510321617,0.0800335556268692,9.184837341308594,-0.06742400676012039,-3.080554723739624
1403715525307143000,-0.0002220943570137024,0.009317189455032349,0.06521277874708176,9.355823516845703,-0.6400461792945862,-3.086373805999756
1403715525312143000,0.03469609469175339,0.009158439934253693,0.06379757076501846,9.494302749633789,-0.15734706819057465,-3.291132688522339
1403715525317143000,0.062031976878643036,0.022586489096283913,0.06938283145427704,9.241745948791504,0.09794887155294418,-3.087141513824463
1403715525322143000,0.05501756817102432,0.012582546100020409,0.07306167483329773,9.185953140258789,0.7024500370025635,-3.1885933876037598
1403715525327143000,0.028543151915073395,0.0033639799803495407,0.07513479888439178,8.94972038269043,1.0738046169281006,-3.2235517501831055
1403715525332143000,-0.018379591405391693,0.0004909858107566833,0.07409434020519257,9.528580665588379,0.9747223258018494,-3.3223459720611572
1403715525337143000,-0.0429471880197525,0.021333185955882072,0.08021057397127151,9.300252914428711,0.794994056224823,-3.4126980304718018
1403715525342143000,-0.056212663650512695,0.0068080853670835495,0.08114216476678848,9.079858779907227,0.3933536410331726,-3.197873592376709
1403715525347143000,-0.04435087740421295,0.02580862306058407,0.09176541119813919,9.536168098449707,0.03158651664853096,-3.3761909008026123
1403715525352143000,-0.023306772112846375,0.030157336965203285,0.08591212332248688,9.028907775878906,-0.2395886480808258,-3.1202220916748047
1403715525357143000,0.0031509920954704285,0.02020196057856083,0.08326877653598785,9.176504135131836,-0.21557247638702393,-3.1695778369903564
1403715525362143000,0.023568958044052124,0.03023351915180683,0.07078574597835541,9.078680992126465,-0.012316797859966755,-3.0873899459838867
1403715525367143000,0.039718061685562134,0.0050596073269844055,0.07830281555652618,9.14394474029541,0.20027408003807068,-3.170165777206421
1403715525372143000,0.02932024747133255,0.018148669973015785,0.06234459578990936,9.519421577453613,0.42317697405815125,-3.303051233291626
1403715525377143000,0.023010767996311188,0.024279562756419182,0.07264074683189392,9.121129035949707,0.6868844032287598,-3.2049694061279297
1403715525382143000,0.003982476890087128,0.02006329409778118,0.0732082724571228,9.438406944274902,0.7784358263015747,-3.3208439350128174
1403715525387143000,-0.01855803281068802,0.030515244230628014,0.07111573219299316,9.323602676391602,0.7222582697868347,-3.2872815132141113
1403715525392143000,-0.029752030968666077,0.02979482151567936,0.0831785500049591,9.128357887268066,0.42039215564727783,-3.155815362930298
1403715525397143000,-0.01938939094543457,0.018098676577210426,0.09022371470928192,9.11166000366211,-0.015324095264077187,-3.0069503784179688
1403715525402143000,-0.008108161389827728,0.010443689301609993,0.08181500434875488,9.005487442016602,0.06465546786785126,-2.990443468093872
1403715525407143000,-0.011330477893352509,-0.0070821261033415794,0.07494277507066727,9.250075340270996,0.47813206911087036,-3.3122220039367676
1403715525412143000,-0.021564774215221405,0.011552708223462105,0.07479426264762878,9.405963897705078,0.6493969559669495,-3.452387809753418
1403715525417143000,-0.03634382039308548,0.01239786110818386,0.07061469554901123,9.226901054382324,0.24055136740207672,-3.2701826095581055
1403715525422143000,-0.02662048488855362,0.03299083560705185,0.08826412260532379,9.348328590393066,-0.17397601902484894,-3.2840054035186768
1403715525427143000,0.010967709124088287,0.023341691121459007,0.07688538730144501,9.192779541015625,-0.6640117168426514,-2.8961360454559326
1403715525432143000,0.060301803052425385,0.022593988105654716,0.08039944618940353,9.110381126403809,-0.5860969424247742,-2.92926287651062
1403715525437143000,0.09653273969888687,0.012789702042937279,0.06735751032829285,9.199860572814941,-0.05481937900185585,-3.0628154277801514
1403715525442143000,0.08416404575109482,-0.005760012194514275,0.05907518416643143,9.071125984191895,1.1800304651260376,-3.240309715270996
1403715525447143000,0.02361059933900833,0.008557599037885666,0.06326575577259064,9.371376991271973,1.8920745849609375,-3.4579296112060547
1403715525452143000,-0.04762783646583557,0.010566426441073418,0.07111949473619461,9.284018516540527,1.4958412647247314,-3.415104866027832
1403715525457143000,-0.08603210747241974,0.019895201548933983,0.08086500316858292,9.43112564086914,0.7413493990898132,-3.3133530616760254
1403715525462143000,-0.08454525470733643,0.021577438339591026,0.09513929486274719,8.998143196105957,-0.0047442675568163395,-3.113217830657959
1403715525467143000,-0.06567470729351044,0.020985746756196022,0.07836908102035522,9.316492080688477,-0.5126639604568481,-3.046332359313965
1403715525472143000,-0.013399176299571991,0.01270330511033535,0.09016068279743195,9.298500061035156,-0.4624023139476776,-2.9812064170837402
1403715525477143000,0.020626790821552277,0.015553122386336327,0.05974091216921806,9.387642860412598,-0.4680434465408325,-3.2271645069122314
1403715525482143000,0.05129785090684891,0.017034029588103294,0.055329423397779465,9.094411849975586,0.1799120455980301,-3.0804195404052734
1403715525487143000,0.057828404009342194,0.01760370470583439,0.06458675861358643,9.422118186950684,0.27992135286331177,-3.382608413696289
1403715525492143000,0.041682444512844086,0.030048349872231483,0.05456508696079254,9.299896240234375,0.5583243370056152,-3.2030086517333984
1403715525497143000,0.020082198083400726,0.020676324144005775,0.06742050498723984,9.031303405761719,1.1067358255386353,-3.246711015701294
1403715525502143000,-0.012780748307704926,0.01837645284831524,0.07732077687978745,9.235072135925293,1.2694499492645264,-3.339744806289673
1403715525507143000,-0.049881309270858765,0.03254134953022003,0.09121613949537277,9.201942443847656,0.7933498620986938,-3.199371814727783
1403715525512143000,-0.06807702779769897,0.019381364807486534,0.09162959456443787,9.275049209594727,0.448346346616745,-3.1914706230163574
1403715525517143000,-0.061063192784786224,0.01889137364923954,0.086218923330307,9.11219596862793,-0.14208097755908966,-3.081146478652954
1403715525522143000,-0.029617533087730408,0.012665411457419395,0.08878391236066818,9.070545196533203,-0.5111827850341797,-3.1112680435180664
1403715525527143000,0.013118624687194824,0.006311720237135887,0.08414152264595032,9.404333114624023,-0.44611215591430664,-3.135693311691284
1403715525532143000,0.04397334158420563,0.014631668105721474,0.05672013387084007,9.314831733703613,-0.05416281893849373,-3.24247670173645
1403715525537143000,0.05648674815893173,0.018115418031811714,0.06978859752416611,9.29982852935791,0.4642091691493988,-3.3018739223480225
1403715525542143000,0.04039931297302246,0.025822119787335396,0.06649007648229599,9.463332176208496,0.7782500982284546,-3.311643123626709
1403715525547143000,0.01666046679019928,0.0305644478648901,0.07805700600147247,9.145012855529785,1.0236790180206299,-3.2640721797943115
1403715525552143000,-0.020433790981769562,0.01734909601509571,0.08090187609195709,9.00671672821045,0.9107239246368408,-3.1419599056243896
1403715525557143000,-0.03869183361530304,0.01585935615003109,0.09063167870044708,9.227092742919922,0.6574872136116028,-3.2068045139312744
1403715525562143000,-0.0443788543343544,0.012382173910737038,0.09563727676868439,9.168699264526367,0.1654459685087204,-3.188551902770996
1403715525567143000,-0.03544004261493683,0.008232714608311653,0.07568303495645523,9.380532264709473,-0.04138295724987984,-3.261678695678711
1403715525572143000,-0.022009484469890594,0.0125016700476408,0.06443209946155548,9.28315544128418,-0.10822305083274841,-3.1786534786224365
1403715525577143000,0.0004435032606124878,0.017563218250870705,0.0513639971613884,9.257606506347656,-0.12581104040145874,-3.152909755706787
1403715525582143000,0.02018408477306366,0.018220355734229088,0.06391777843236923,9.380321502685547,0.1671607345342636,-3.211106300354004
1403715525587143000,0.025190532207489014,0.025181321427226067,0.07409258186817169,9.250858306884766,0.4282528758049011,-3.1955907344818115
1403715525592143000,0.02102019637823105,0.01613912545144558,0.08926281332969666,8.93280029296875,0.5368350744247437,-3.0246639251708984
1403715525597143000,0.0033984705805778503,0.008239993825554848,0.0835486650466919,9.21882438659668,0.7606499195098877,-3.222808837890625
1403715525602143000,-0.01844353973865509,0.008829494938254356,0.08710859715938568,9.520264625549316,0.7958667278289795,-3.419950246810913
1403715525607143000,-0.04782355576753616,0.019313158467411995,0.06989215314388275,9.226049423217773,0.6400259733200073,-3.2478463649749756
1403715525612143000,-0.052150093019008636,0.020892051979899406,0.05901239439845085,9.389445304870605,-0.02969803661108017,-3.236689329147339
1403715525617143000,-0.021459314972162247,0.02322571910917759,0.06403282284736633,9.111014366149902,-0.6613359451293945,-3.16686749458313
1403715525622143000,0.02885083109140396,0.02746334858238697,0.06874197721481323,9.134765625,-0.5501296520233154,-3.0197577476501465
1403715525627143000,0.07375582307577133,0.016225555911660194,0.08046624064445496,9.217275619506836,-0.15014158189296722,-3.136086940765381
1403715525632143000,0.07542020827531815,0.02086612768471241,0.08017539232969284,9.063060760498047,0.8311474919319153,-3.311937093734741
1403715525637143000,0.03782635182142258,0.014359408989548683,0.07695303857326508,9.144740104675293,1.5097728967666626,-3.3326308727264404
1403715525642143000,-0.03891093283891678,0.007715016603469849,0.08976719528436661,9.503310203552246,1.7893987894058228,-3.5393333435058594
1403715525647143000,-0.10466940701007843,0.019034845754504204,0.0886739045381546,9.137772560119629,1.0710333585739136,-3.3402655124664307
1403715525652143000,-0.12229040265083313,0.022102413699030876,0.08878670632839203,9.325308799743652,0.08207087963819504,-3.205018997192383
1403715525657143000,-0.07577460259199142,0.01611665077507496,0.10154741257429123,9.235238075256348,-0.9565638899803162,-3.102083444595337
1403715525662143000,-0.008882515132427216,0.033056385815143585,0.08461112529039383,9.11039924621582,-1.282632827758789,-2.8389785289764404
1403715525667143000,0.06093502789735794,0.010058728978037834,0.07970278710126877,9.387853622436523,-0.6197705268859863,-3.1436572074890137
1403715525672143000,0.08480619639158249,0.01972697116434574,0.054734230041503906,9.3068208694458,0.13833209872245789,-3.2680695056915283
1403715525677143000,0.07376677542924881,0.03706885874271393,0.04957706853747368,9.389406204223633,0.7833242416381836,-3.3272976875305176
1403715525682143000,0.044788919389247894,0.024994878098368645,0.05374116823077202,9.05630111694336,1.290543556213379,-3.207252025604248
1403715525687143000,-0.005508914589881897,0.028316380456089973,0.0572064146399498,9.146408081054688,1.192613959312439,-3.3049612045288086
1403715525692143000,-0.03844262659549713,0.024847770109772682,0.08142019063234329,9.218926429748535,0.9229530096054077,-3.2561604976654053
1403715525697143000,-0.06173507124185562,0.012285767123103142,0.0803234875202179,9.340723037719727,0.35910430550575256,-3.3044540882110596
1403715525702143000,-0.05913695693016052,0.026254693046212196,0.0781838670372963,9.127686500549316,0.21223478019237518,-3.1488006114959717
1403715525707143000,-0.04723762720823288,0.014724398031830788,0.0721936970949173,9.46243667602539,-0.16421645879745483,-3.3186943531036377
1403715525712143000,-0.020570814609527588,0.02317277155816555,0.06198127567768097,9.118660926818848,-0.41894805431365967,-2.988827705383301
1403715525717143000,0.021415747702121735,0.02737378515303135,0.061186764389276505,9.257272720336914,-0.501078188419342,-3.118443489074707
1403715525722143000,0.048723362386226654,0.015604304149746895,0.06666654348373413,9.233477592468262,-0.16628849506378174,-3.151763439178467
1403715525727143000,0.06001179665327072,0.022367702797055244,0.07045483589172363,9.176962852478027,0.34939008951187134,-3.1120946407318115
1403715525732143000,0.05371700972318649,0.013903191313147545,0.0807705894112587,9.259726524353027,0.7509425282478333,-3.140188455581665
1403715525737143000,0.020072132349014282,0.011654086410999298,0.07663914561271667,9.29273796081543,1.0075198411941528,-3.3953332901000977
1403715525742143000,-0.007267795503139496,0.024226462468504906,0.07801791280508041,9.258841514587402,0.951307475566864,-3.2160236835479736
1403715525747143000,-0.04291919618844986,0.024332204833626747,0.08953376859426498,9.201764106750488,0.6968917846679688,-3.2151482105255127
1403715525752143000,-0.059080809354782104,0.025001345202326775,0.0818902999162674,9.14470386505127,0.33626389503479004,-3.123530626296997
1403715525757143000,-0.04302246868610382,0.022998252883553505,0.09857701510190964,9.364998817443848,-0.20618484914302826,-3.104677200317383
1403715525762143000,-0.01156637817621231,0.02803526632487774,0.09725961089134216,9.184732437133789,-0.39570146799087524,-3.1206765174865723
1403715525767143000,0.009575150907039642,0.014637330546975136,0.07749491184949875,8.914962768554688,-0.16004452109336853,-3.0793819427490234
1403715525772143000,0.03273162245750427,0.015540966764092445,0.0692964419722557,9.478950500488281,0.01956908218562603,-3.2601478099823
1403715525777143000,0.041150569915771484,0.014177026227116585,0.0617486909031868,9.307147979736328,0.07724052667617798,-3.202322244644165
1403715525782143000,0.035519711673259735,0.013156374916434288,0.05036470293998718,9.25886344909668,0.6196490526199341,-3.3028364181518555
1403715525787143000,0.014721177518367767,0.024325309321284294,0.06577320396900177,9.374093055725098,1.014951467514038,-3.1738548278808594
1403715525792143000,-0.013452880084514618,0.03196217119693756,0.07390343397855759,9.120115280151367,0.7629613280296326,-3.2877492904663086
1403715525797143000,-0.02089102566242218,0.018140139058232307,0.07461217045783997,9.462138175964355,0.06892009824514389,-3.1142897605895996
1403715525802143000,-0.015277128666639328,0.034168317914009094,0.08262085169553757,9.15266227722168,0.1912948340177536,-3.195673704147339
1403715525807143000,-0.01927279308438301,0.01667000912129879,0.06146085634827614,9.062224388122559,0.32775095105171204,-3.1806418895721436
1403715525812143000,-0.019776657223701477,0.011036999523639679,0.06722114980220795,9.437989234924316,0.47983694076538086,-3.2955610752105713
1403715525817143000,-0.03283281624317169,0.03187532722949982,0.07166787981987,9.104157447814941,0.698273241519928,-3.304828643798828
1403715525822143000,-0.04613320529460907,0.006884632632136345,0.08379172533750534,9.186044692993164,0.24757124483585358,-3.09836745262146
1403715525827143000,-0.03767126053571701,0.024414511397480965,0.09017493575811386,9.373620986938477,-0.06972640752792358,-3.301422357559204
1403715525832143000,0.0019754543900489807,0.017012963071465492,0.09092707931995392,8.963825225830078,-0.8196157217025757,-2.8879644870758057
1403715525837143000,0.05337870866060257,0.0017208624631166458,0.06693080067634583,9.600105285644531,-1.0300418138504028,-3.248455286026001
1403715525842143000,0.09941006451845169,0.03373207896947861,0.06312260776758194,9.331025123596191,-0.013006212189793587,-3.1769261360168457
1403715525847143000,0.09267572313547134,0.015900200232863426,0.049576204270124435,9.249762535095215,1.401876449584961,-3.387390375137329
1403715525852143000,0.04178953170776367,0.03737369924783707,0.05414781719446182,9.322568893432617,1.818681240081787,-3.219270706176758
1403715525857143000,-0.046769045293331146,0.01618455909192562,0.08842037618160248,8.736922264099121,1.760942816734314,-3.245814323425293
1403715525862143000,-0.09943927824497223,0.01782897673547268,0.06687696278095245,9.618759155273438,0.635888934135437,-3.354991912841797
1403715525867143000,-0.08816063404083252,0.01931510679423809,0.10602408647537231,8.860151290893555,-0.094217948615551,-3.121652603149414
1403715525872143000,-0.06370262801647186,0.01469297893345356,0.07012345641851425,9.609850883483887,-0.6588613986968994,-3.2439217567443848
1403715525877143000,-0.003539822995662689,0.031041638925671577,0.08949440717697144,9.437240600585938,-0.5615937113761902,-3.250312089920044
1403715525882143000,0.019384905695915222,0.027981458231806755,0.05505762994289398,9.17570972442627,-0.16605907678604126,-3.1775400638580322
1403715525887143000,0.049192823469638824,0.03163947910070419,0.07019525021314621,9.600689888000488,0.02424522489309311,-3.3585031032562256
1403715525892143000,0.05012809485197067,0.039920516312122345,0.0628737136721611,8.940353393554688,0.24535703659057617,-3.111400604248047
1403715525897143000,0.041827648878097534,0.029159026220440865,0.07320517301559448,9.079787254333496,0.9021090865135193,-3.1563665866851807
1403715525902143000,0.015980631113052368,0.020884962752461433,0.08069883286952972,9.390463829040527,0.8131806254386902,-3.2386910915374756
1403715525907143000,-0.010818324983119965,0.029603304341435432,0.08780449628829956,9.06377124786377,0.8596363067626953,-3.4032702445983887
1403715525912143000,-0.04163450002670288,0.029799742624163628,0.07971017807722092,9.348091125488281,0.7612611055374146,-3.2572457790374756
1403715525917143000,-0.05909483879804611,0.035342827439308167,0.08039804548025131,9.243247985839844,0.6380298733711243,-3.2065632343292236
1403715525922143000,-0.05679938197135925,0.03136487305164337,0.08060614764690399,8.95641040802002,-0.07457625865936279,-3.0884642601013184
1403715525927143000,-0.02329925447702408,0.029396438971161842,0.09028077125549316,9.519432067871094,-0.38196125626564026,-3.2270123958587646
1403715525932143000,0.006775416433811188,0.04409612715244293,0.08603307604789734,9.054044723510742,-0.5375853180885315,-2.9959797859191895
1403715525937143000,0.03203481435775757,0.02102978713810444,0.07817260175943375,9.036745071411133,0.09466652572154999,-3.022468090057373
1403715525942143000,0.041129954159259796,0.016919555142521858,0.07410784810781479,9.299819946289062,0.20220337808132172,-3.0719127655029297
1403715525947143000,0.027800656855106354,0.016622396185994148,0.05879276990890503,9.136857032775879,0.6124556660652161,-3.302730083465576
1403715525952143000,0.013060525059700012,0.006073543801903725,0.057355158030986786,9.397682189941406,0.7698148488998413,-3.2719318866729736
1403715525957143000,-0.007207080721855164,0.025596512481570244,0.06843261420726776,9.20318603515625,0.8701152205467224,-3.2225515842437744
1403715525962143000,-0.030367836356163025,0.02089552767574787,0.07820091396570206,9.06273365020752,0.41295287013053894,-3.081941604614258
1403715525967143000,-0.03252634406089783,0.020153628662228584,0.09146708250045776,9.259000778198242,0.2873263955116272,-3.221184492111206
1403715525972143000,-0.030445680022239685,0.033431194722652435,0.09848281741142273,9.365203857421875,0.179213285446167,-3.1476047039031982
1403715525977143000,-0.024824924767017365,0.0167797040194273,0.09079421311616898,8.988485336303711,0.12950150668621063,-3.1308841705322266
1403715525982143000,-0.018364299088716507,0.007723158225417137,0.07706008106470108,9.43845272064209,-0.02004711516201496,-3.2040348052978516
1403715525987143000,0.001282326877117157,0.018942827358841896,0.06045746058225632,9.159777641296387,-0.2750589847564697,-3.1520192623138428
1403715525992143000,0.02783489227294922,0.016213150694966316,0.0610278844833374,9.405050277709961,-0.02968737669289112,-3.268362283706665
1403715525997143000,0.03769218921661377,0.019604532048106194,0.0707382932305336,9.10403823852539,0.38146668672561646,-3.0313918590545654
1403715526002143000,0.023698851466178894,0.018209295347332954,0.06280861794948578,9.413612365722656,0.5062204003334045,-3.400625467300415
1403715526007143000,0.018521636724472046,0.02503078617155552,0.07729792594909668,9.35649585723877,0.6720356345176697,-3.271308660507202
1403715526012143000,0.0009536817669868469,0.03181544691324234,0.08721219003200531,9.430617332458496,0.878657341003418,-3.3134002685546875
1403715526017143000,-0.037278108298778534,0.03622547537088394,0.08294852077960968,8.86739730834961,0.8452161550521851,-3.0848560333251953
1403715526022143000,-0.05747774988412857,0.011832231655716896,0.07772104442119598,9.226602554321289,0.32631969451904297,-3.155717134475708
1403715526027143000,-0.036000967025756836,0.02369476668536663,0.07991378009319305,9.429558753967285,-0.16521570086479187,-3.178868293762207
1403715526032143000,-0.005257532000541687,0.02019014023244381,0.08606459945440292,8.939692497253418,-0.2240590900182724,-3.1283912658691406
1403715526037143000,0.015947923064231873,0.011847557500004768,0.0777268260717392,9.35683536529541,0.020614739507436752,-3.088789224624634
1403715526042143000,0.02305523306131363,0.022488700225949287,0.06846989691257477,9.388653755187988,0.15145432949066162,-3.267900228500366
1403715526047143000,0.03115614503622055,0.032842449843883514,0.06843456625938416,9.404827117919922,0.3575754463672638,-3.3107032775878906
1403715526052143000,0.02490108460187912,0.03482877463102341,0.07699919492006302,9.291752815246582,0.5392085313796997,-3.2618229389190674
1403715526057143000,-2.370774745941162e-05,0.03280770778656006,0.0634583830833435,9.006366729736328,0.8680480122566223,-3.0340168476104736
1403715526062143000,-0.012733519077301025,0.01388956792652607,0.08585399389266968,9.030314445495605,0.6059519052505493,-3.1396524906158447
1403715526067143000,-0.016534581780433655,0.016552167013287544,0.08320783823728561,9.446706771850586,0.21436311304569244,-3.221186876296997
1403715526072143000,-0.017219118773937225,0.008770843967795372,0.08999180793762207,8.989733695983887,0.3690842390060425,-3.246623992919922
1403715526077143000,-0.022680655121803284,0.00688694603741169,0.07067478448152542,9.372685432434082,0.2608276605606079,-3.254446029663086
1403715526082143000,-0.012068800628185272,0.022950714454054832,0.08320439606904984,9.24219799041748,0.30015313625335693,-3.1873159408569336
1403715526087143000,-0.007191814482212067,0.015403768047690392,0.06384064257144928,9.168525695800781,-0.09285285323858261,-3.0793468952178955
1403715526092143000,0.012358412146568298,0.014693697914481163,0.06947098672389984,9.470735549926758,0.08606228232383728,-3.203221082687378
1403715526097143000,0.018756799399852753,0.02252020128071308,0.06648969650268555,9.119173049926758,0.12023092061281204,-3.1206133365631104
1403715526102143000,0.02915758639574051,0.015332365408539772,0.0865100622177124,9.103052139282227,0.49767613410949707,-3.2130324840545654
1403715526107143000,0.01937399059534073,0.021584855392575264,0.08799543231725693,9.406450271606445,0.4907306432723999,-3.303563117980957
1403715526112143000,-0.0023237690329551697,0.026401257142424583,0.08354057371616364,9.177689552307129,0.8357760906219482,-3.231170892715454
1403715526117143000,-0.021974563598632812,0.018078738823533058,0.07961674779653549,9.299383163452148,0.45099741220474243,-3.2628040313720703
1403715526122143000,-0.02900148183107376,0.022132566198706627,0.06173897162079811,9.087519645690918,0.2943435609340668,-3.1794168949127197
1403715526127143000,-0.025450386106967926,0.005561294034123421,0.06598085165023804,9.005396842956543,-0.11350811272859573,-3.1368563175201416
1403715526132143000,-0.009353302419185638,0.01743626780807972,0.07362325489521027,9.503519058227539,0.02343803644180298,-3.351435899734497
1403715526137143000,0.006045028567314148,0.030162418261170387,0.08465294539928436,9.331716537475586,-0.05144853517413139,-3.1864678859710693
1403715526142143000,0.01654190570116043,0.023800460621714592,0.08095645904541016,9.053915977478027,0.36470696330070496,-3.187990188598633
1403715526147143000,0.017996065318584442,0.02727862261235714,0.08300887048244476,9.389579772949219,0.45631542801856995,-3.212782144546509
1403715526152143000,0.009655632078647614,0.036302901804447174,0.07752251625061035,9.413759231567383,0.42377322912216187,-3.1956491470336914
1403715526157143000,0.0033412575721740723,0.02708827145397663,0.07140950858592987,9.054350852966309,0.44074949622154236,-3.0818145275115967
1403715526162143000,-0.007230840623378754,0.01238917000591755,0.07138638198375702,8.998175621032715,0.36724022030830383,-3.1145479679107666
1403715526167143000,-0.013587258756160736,0.011776478961110115,0.07686799764633179,9.36473274230957,0.4920075535774231,-3.344640016555786
1403715526172143000,-0.015013407915830612,0.01659669168293476,0.08952896296977997,9.340147018432617,0.3198580741882324,-3.303450107574463
1403715526177143000,-0.012918107211589813,0.024994390085339546,0.0768892914056778,9.471392631530762,0.2528233230113983,-3.2538554668426514
1403715526182143000,-0.0100313201546669,0.02594117261469364,0.07673583924770355,8.956502914428711,0.2597479820251465,-3.1213481426239014
1403715526187143000,-0.003717489540576935,0.02092018537223339,0.07135201245546341,9.44578742980957,0.3255782127380371,-3.277754068374634
1403715526192143000,0.002607293426990509,0.03555986285209656,0.06729671359062195,9.159984588623047,0.14556445181369781,-3.088639736175537
1403715526197143000,0.0054184868931770325,0.010383879765868187,0.06939863413572311,8.97340202331543,0.22580160200595856,-3.097630739212036
1403715526202143000,0.01375298947095871,0.008417433127760887,0.07837344706058502,9.291356086730957,0.21113574504852295,-3.1222081184387207
1403715526207143000,0.00886785238981247,0.014628788456320763,0.08092672377824783,9.250049591064453,0.42467743158340454,-3.2779653072357178
1403715526212143000,-0.0023434534668922424,0.00817599892616272,0.07955591380596161,9.324251174926758,0.5244473218917847,-3.1976191997528076
1403715526217143000,-0.010744035243988037,0.01456490345299244,0.07265254855155945,9.455364227294922,0.3673490285873413,-3.3354227542877197
1403715526222143000,-0.008702822029590607,0.03073413483798504,0.08179352432489395,9.266438484191895,0.4250994026660919,-3.1634714603424072
1403715526227143000,-0.01565181463956833,0.022997329011559486,0.07507745921611786,9.168087005615234,0.2040136605501175,-3.211794137954712
1403715526232143000,-0.010008282959461212,0.024371566250920296,0.07207192480564117,9.250859260559082,0.236412912607193,-3.0734028816223145
1403715526237143000,0.0018086805939674377,0.01694742776453495,0.07626622915267944,9.144137382507324,-0.08390802890062332,-3.194457530975342
1403715526242143000,0.013633660972118378,0.0160712618380785,0.08799728006124496,9.429469108581543,0.32525765895843506,-3.254289150238037
1403715526247143000,0.0061640664935112,0.02014036662876606,0.08931215107440948,9.120222091674805,0.3660072088241577,-3.155017137527466
1403715526252143000,-0.0014624670147895813,0.016640761867165565,0.08100041002035141,9.365300178527832,0.5710143446922302,-3.2958664894104004
1403715526257143000,-0.004438258707523346,0.020899062976241112,0.07694420963525772,9.364928245544434,0.2851279675960541,-3.2611892223358154
1403715526262143000,-0.006593570113182068,0.029943110421299934,0.06657284498214722,9.429746627807617,0.3103888928890228,-3.3187248706817627
1403715526267143000,-0.0009218156337738037,0.02929634042084217,0.07076889276504517,8.980615615844727,0.2620881497859955,-3.0644712448120117
1403715526272143000,-0.00794634222984314,0.01605495624244213,0.06499863415956497,9.169116020202637,0.3924674391746521,-3.0817084312438965
1403715526277143000,-0.0017520561814308167,0.018894506618380547,0.07824631780385971,9.282652854919434,0.2292739450931549,-3.2859575748443604
1403715526282143000,0.0024777501821517944,0.02508806623518467,0.08805911988019943,9.201411247253418,0.24390453100204468,-3.220787286758423
1403715526287143000,-0.0002307891845703125,0.020761890336871147,0.08863995969295502,9.25917911529541,0.5060861110687256,-3.2221193313598633
1403715526292143000,-0.011931158602237701,0.020882615819573402,0.08869878202676773,9.120235443115234,0.5213229656219482,-3.147623300552368
1403715526297143000,-0.01901015266776085,0.012422608211636543,0.07344255596399307,9.324075698852539,0.34201863408088684,-3.146923780441284
1403715526302143000,-0.00937904417514801,0.018750803545117378,0.06650406122207642,9.307422637939453,-0.025988109409809113,-3.2193074226379395
1403715526307143000,0.00317315012216568,0.015368739143013954,0.06312841176986694,9.160225868225098,0.13781791925430298,-3.1463115215301514
1403715526312143000,0.010283388197422028,0.019667575135827065,0.07558080554008484,9.200901985168457,0.3022565543651581,-3.121999740600586
1403715526317143000,0.013052232563495636,0.017494725063443184,0.07336074113845825,9.291030883789062,0.36801332235336304,-3.228780746459961
1403715526322143000,0.010105021297931671,0.018780773505568504,0.08172234147787094,9.348810195922852,0.366892009973526,-3.220942974090576
1403715526327143000,-0.0002757906913757324,0.022866500541567802,0.0788303017616272,9.21803092956543,0.6209130883216858,-3.303999423980713
1403715526332143000,-0.009226486086845398,0.022171953693032265,0.08656769245862961,9.25890827178955,0.6289224624633789,-3.2057316303253174
1403715526337143000,-0.02946341782808304,0.01592330075800419,0.08052170276641846,9.23448371887207,0.30122900009155273,-3.212502956390381
1403715526342143000,-0.026788614690303802,0.014611626043915749,0.0707017108798027,9.209847450256348,-0.01734173856675625,-3.154348134994507
1403715526347143000,-0.0017423555254936218,0.011266674846410751,0.07494927197694778,9.193061828613281,-0.1982799917459488,-3.1615819931030273
1403715526352143000,0.02062109112739563,0.022457966580986977,0.07772713154554367,9.355666160583496,0.06481077522039413,-3.2768735885620117
1403715526357143000,0.026369936764240265,0.016096608713269234,0.07683581113815308,9.184666633605957,0.301696240901947,-3.195526361465454
1403715526362143000,0.021522872149944305,0.02644856460392475,0.06989356875419617,9.348624229431152,0.5475922226905823,-3.4178271293640137
1403715526367143000,0.008084245026111603,0.025033356621861458,0.07679150998592377,9.242793083190918,0.6121755838394165,-3.1642422676086426
1403715526372143000,-0.007263243198394775,0.03333204239606857,0.07755140960216522,9.307751655578613,0.6618684530258179,-3.360990285873413
1403715526377143000,-0.025904394686222076,0.03272928297519684,0.08599251508712769,9.014033317565918,0.49036213755607605,-3.041724443435669
1403715526382143000,-0.03368605673313141,0.015986928716301918,0.07411970943212509,9.218356132507324,0.17982669174671173,-3.2860798835754395
1403715526387143000,-0.019901838153600693,0.018161633983254433,0.08035889267921448,9.16027545928955,-0.0584237240254879,-3.0397186279296875
1403715526392143000,-0.0003843382000923157,0.012543423101305962,0.08193128556013107,9.364300727844238,-0.14062044024467468,-3.341887950897217
1403715526397143000,0.019941598176956177,0.025161290541291237,0.0720827504992485,9.306914329528809,0.09702566266059875,-3.1297550201416016
1403715526402143000,0.027065880596637726,0.012558391317725182,0.07351057231426239,9.209362983703613,0.30202919244766235,-3.3095383644104004
1403715526407143000,0.01801590621471405,0.02639382891356945,0.0720430389046669,9.446486473083496,0.6205235123634338,-3.2872767448425293
1403715526412143000,0.0011867955327033997,0.03204541653394699,0.07885423302650452,9.234533309936523,0.5624183416366577,-3.2042076587677
1403715526417143000,-0.012063480913639069,0.02843559719622135,0.07262690365314484,9.177315711975098,0.7186436057090759,-3.132960796356201
1403715526422143000,-0.028112806379795074,0.017480941489338875,0.07749541848897934,9.103850364685059,0.3598049581050873,-3.0490612983703613
1403715526427143000,-0.02884230762720108,0.0089391078799963,0.08103549480438232,9.169005393981934,0.15529407560825348,-3.229250907897949
1403715526432143000,-0.010799534618854523,0.014576064422726631,0.08962216228246689,9.266655921936035,-0.0583244226872921,-3.228062152862549
1403715526437143000,0.006553240120410919,0.014651698991656303,0.07978393882513046,9.340169906616211,0.039191316813230515,-3.2443630695343018
1403715526442143000,0.017865978181362152,0.02100248448550701,0.07411424815654755,9.111239433288574,0.2858569324016571,-3.0721819400787354
1403715526447143000,0.01731831580400467,0.009746868163347244,0.0762721449136734,9.356541633605957,0.36694562435150146,-3.334956169128418
1403715526452143000,0.008897237479686737,0.022142020985484123,0.06846914440393448,9.536444664001465,0.6355426907539368,-3.3445866107940674
1403715526457143000,-0.006465494632720947,0.027850301936268806,0.06709979474544525,9.127991676330566,0.5622642636299133,-3.238034248352051
1403715526462143000,-0.013398401439189911,0.02578076906502247,0.0775802731513977,9.201620101928711,0.5145575404167175,-3.1730551719665527
1403715526467143000,-0.0183536596596241,0.020333031192421913,0.08656293153762817,9.014089584350586,0.22843097150325775,-3.015197277069092
1403715526472143000,-0.011455632746219635,0.012459458783268929,0.08392169326543808,9.372793197631836,0.2040865272283554,-3.294800281524658
1403715526477143000,-0.0031084492802619934,0.021592652425169945,0.08604660630226135,9.307522773742676,0.040376145392656326,-3.1546578407287598
1403715526482143000,0.007993735373020172,0.01808910258114338,0.07615336030721664,9.250152587890625,0.1796274334192276,-3.260988473892212
1403715526487143000,0.01643010973930359,0.026563772931694984,0.07349923253059387,9.16825008392334,0.22889944911003113,-3.104923963546753
1403715526492143000,0.010307401418685913,0.01668555848300457,0.0700240284204483,9.422253608703613,0.5466618537902832,-3.3765945434570312
1403715526497143000,0.0005632564425468445,0.029219912365078926,0.06918198615312576,9.36491584777832,0.5626217722892761,-3.254382371902466
1403715526502143000,-0.0113588348031044,0.02372005395591259,0.0692707747220993,9.185043334960938,0.3820626437664032,-3.212735891342163
1403715526507143000,-0.012102663516998291,0.028601745143532753,0.07339946925640106,9.242012977600098,0.2688702940940857,-3.1386666297912598
1403715526512143000,-0.009972169995307922,0.0174348633736372,0.08795166015625,9.079130172729492,0.22014741599559784,-3.179170846939087
1403715526517143000,-0.005138985812664032,0.02011829800903797,0.08461148291826248,9.332467079162598,0.2777990698814392,-3.164172887802124
1403715526522143000,-0.0030945613980293274,0.01740874908864498,0.08253473043441772,9.16877555847168,0.105924591422081,-3.1544606685638428
1403715526527143000,0.007295869290828705,0.018810449168086052,0.07484212517738342,9.396707534790039,0.14694415032863617,-3.293792486190796
1403715526532143000,0.010163873434066772,0.019538355991244316,0.07557372748851776,9.111505508422852,0.3021041750907898,-3.0887513160705566
1403715526537143000,0.005406580865383148,0.013155924156308174,0.07208559662103653,9.406211853027344,0.5146759748458862,-3.360499858856201
1403715526542143000,-0.005697406828403473,0.032077208161354065,0.0712713971734047,9.128172874450684,0.43972209095954895,-3.155238151550293
1403715526547143000,-0.014894746243953705,0.019585924223065376,0.07267054915428162,9.160432815551758,0.28441786766052246,-3.17960262298584
1403715526552143000,-0.008655518293380737,0.02509032003581524,0.08809701353311539,9.28299331665039,0.2853061854839325,-3.213076591491699
1403715526557143000,-0.0023301169276237488,0.01743977703154087,0.08809623122215271,9.185383796691895,0.15466439723968506,-3.228153944015503
1403715526562143000,-0.0008894577622413635,0.0277810487896204,0.08729752898216248,9.291407585144043,0.3266521096229553,-3.1722583770751953
1403715526567143000,0.0011238306760787964,0.01818026416003704,0.08527543395757675,9.06273365020752,0.12178009748458862,-3.113189697265625
1403715526572143000,0.007301323115825653,0.01320912130177021,0.07410221546888351,9.446012496948242,0.2857542932033539,-3.3025078773498535
1403715526577143000,0.0017848089337348938,0.022327488288283348,0.07279466092586517,9.27465534210205,0.35098153352737427,-3.187762498855591
1403715526582143000,-0.006411321461200714,0.014445414766669273,0.06722822785377502,9.381465911865234,0.5220993757247925,-3.328319549560547
1403715526587143000,-0.009896151721477509,0.02792348898947239,0.07407045364379883,9.16891860961914,0.3584151268005371,-3.1304657459259033
1403715526592143000,-0.009373553097248077,0.014732858166098595,0.06924042105674744,9.160457611083984,0.26822444796562195,-3.0973758697509766
1403715526597143000,0.0011185184121131897,0.02085014618933201,0.08107302337884903,9.340058326721191,0.3339582085609436,-3.2949445247650146
1403715526602143000,-0.0008944645524024963,0.025073083117604256,0.0852271169424057,9.095417976379395,0.23647263646125793,-3.179295063018799
1403715526607143000,0.0018384382128715515,0.02438931353390217,0.08460722863674164,9.258787155151367,0.2531142234802246,-3.1798362731933594
1403715526612143000,0.004592418670654297,0.01615106873214245,0.08318418264389038,9.038216590881348,0.1627568006515503,-3.0641160011291504
1403715526617143000,0.004563711583614349,0.013826018199324608,0.07059906423091888,9.438211441040039,0.40772005915641785,-3.3518505096435547
1403715526622143000,0.0011627152562141418,0.027869636192917824,0.06930077075958252,9.160550117492676,0.35091501474380493,-3.163332939147949
1403715526627143000,-0.0071361735463142395,0.014542995020747185,0.06581243127584457,9.29127025604248,0.5061368346214294,-3.221616506576538
1403715526632143000,-0.009290747344493866,0.02239716611802578,0.07343050092458725,9.127850532531738,0.2114250361919403,-3.1625776290893555
1403715526637143000,-0.005886174738407135,0.011854851618409157,0.06994032114744186,9.356492042541504,0.28450921177864075,-3.244915246963501
1403715526642143000,-0.005128554999828339,0.026361564174294472,0.0859684944152832,9.3567476272583,0.35076919198036194,-3.2461862564086914
1403715526647143000,-0.007172130048274994,0.022332409396767616,0.08032400906085968,9.12783145904541,0.2529709041118622,-3.1712234020233154
1403715526652143000,0.0025328919291496277,0.023037580773234367,0.09013941138982773,9.274872779846191,0.26950639486312866,-3.163270950317383
1403715526657143000,0.0046015530824661255,0.01745242066681385,0.07904110848903656,9.144339561462402,0.24419374763965607,-3.1789731979370117
1403715526662143000,0.0011382624506950378,0.012365555390715599,0.07126982510089874,9.397549629211426,0.4158713221549988,-3.3524675369262695
1403715526667143000,-0.0022743195295333862,0.020200444385409355,0.07353393733501434,9.10366439819336,0.2774930000305176,-3.1712794303894043
1403715526672143000,-0.0072092339396476746,0.01529737003147602,0.07630383968353271,9.307557106018066,0.38359472155570984,-3.286668539047241
1403715526677143000,-0.004469513893127441,0.019544025883078575,0.07684823125600815,9.1605806350708,0.31737664341926575,-3.105701446533203
1403715526682143000,-0.005801819264888763,0.01810639165341854,0.07414095848798752,9.405665397644043,0.28545624017715454,-3.3106014728546143
1403715526687143000,-0.002324417233467102,0.02366056479513645,0.08170957863330841,9.225845336914062,0.285427451133728,-3.2620625495910645
1403715526692143000,-0.00026492029428482056,0.024444201961159706,0.07754623144865036,9.225700378417969,0.34303510189056396,-3.155043601989746
1403715526697143000,0.004607483744621277,0.026483887806534767,0.08747734129428864,9.233927726745605,0.2612256705760956,-3.122162103652954
1403715526702143000,0.0004621967673301697,0.01672305352985859,0.07617844641208649,9.217933654785156,0.309655100107193,-3.2204535007476807
1403715526707143000,0.0004586949944496155,0.019424190744757652,0.082420215010643,9.340471267700195,0.43224331736564636,-3.2542974948883057
1403715526712143000,-0.004378996789455414,0.024409687146544456,0.07283538579940796,9.08703327178955,0.24468748271465302,-3.203745126724243
1403715526717143000,-0.0037384256720542908,0.011078031733632088,0.06850537657737732,9.307441711425781,0.35092583298683167,-3.2373909950256348
1403715526722143000,-0.00304412841796875,0.013236919417977333,0.07278119772672653,9.332207679748535,0.25996923446655273,-3.162761688232422
1403715526727143000,-0.004422418773174286,0.018051983788609505,0.07559362053871155,9.348365783691406,0.31796711683273315,-3.36838436126709
1403715526732143000,-0.0023460611701011658,0.031363584101200104,0.08101474493741989,9.291089057922363,0.32680457830429077,-3.1390068531036377
1403715526737143000,-0.001659497618675232,0.029368171468377113,0.08108912408351898,9.291139602661133,0.35909387469291687,-3.1223111152648926
1403715526742143000,-0.0016584545373916626,0.025876665487885475,0.07965429127216339,9.127654075622559,0.2360672503709793,-3.146602153778076
1403715526747143000,0.00043889135122299194,0.015267854556441307,0.07335305213928223,9.2669677734375,0.334703266620636,-3.19616436958313
1403715526752143000,-0.0030187442898750305,0.02150026522576809,0.07629278302192688,9.275069236755371,0.3177960515022278,-3.2210702896118164
1403715526757143000,-0.001632295548915863,0.0132089052349329,0.07554517686367035,9.160422325134277,0.29363003373146057,-3.2206733226776123
1403715526762143000,-0.002341531217098236,0.014638753607869148,0.07559418678283691,9.340377807617188,0.26893189549446106,-3.236722230911255
1403715526767143000,-0.00024768710136413574,0.01741032488644123,0.07627136260271072,9.16910171508789,0.28448453545570374,-3.211885452270508
1403715526772143000,0.002541549503803253,0.02158324606716633,0.07403543591499329,9.299267768859863,0.31024667620658875,-3.204407215118408
1403715526777143000,-0.0009356215596199036,0.022331515327095985,0.08106234669685364,9.193235397338867,0.293938547372818,-3.2040295600891113
1403715526782143000,-0.0009263232350349426,0.02862408198416233,0.08387595415115356,9.24221420288086,0.3751695156097412,-3.2129812240600586
1403715526787143000,-0.0023558810353279114,0.02577969618141651,0.0837959423661232,9.119874000549316,0.3586823642253876,-3.147352457046509
1403715526792143000,-0.005833640694618225,0.022264743223786354,0.07555214315652847,9.25891399383545,0.3512594997882843,-3.2046446800231934
1403715526797143000,-0.005804538726806641,0.01746768318116665,0.08116337656974792,9.087080001831055,0.19509223103523254,-3.1300156116485596
1403715526802143000,-0.005820445716381073,0.018102439120411873,0.07830502092838287,9.283121109008789,0.21980111300945282,-3.2531020641326904
1403715526807143000,-0.0016663148999214172,0.01527014933526516,0.07624080032110214,9.266732215881348,0.21194812655448914,-3.1792638301849365
1403715526812143000,0.0004433467984199524,0.013197151944041252,0.06924979388713837,9.332064628601074,0.2850131690502167,-3.2614152431488037
1403715526817143000,0.003954924643039703,0.020234322175383568,0.07481315732002258,9.315634727478027,0.29340675473213196,-3.212445020675659
1403715526822143000,0.0032656192779541016,0.024408718571066856,0.07906714826822281,9.307527542114258,0.3918844163417816,-3.2699105739593506
1403715526827143000,0.0011583790183067322,0.029255779460072517,0.07688532024621964,9.307371139526367,0.4980787932872772,-3.205185651779175
1403715526832143000,-0.004420705139636993,0.025124838575720787,0.08098933100700378,9.1852445602417,0.35841599106788635,-3.1716320514678955
1403715526837143000,-0.010019727051258087,0.02506408654153347,0.0768277570605278,9.160860061645508,0.3919964134693146,-3.139348268508911
1403715526842143000,-0.008613459765911102,0.013870732858777046,0.0846032202243805,9.152735710144043,0.25221022963523865,-3.187798023223877
1403715526847143000,-0.011403925716876984,0.017306918278336525,0.07420554757118225,9.242325782775879,0.2934480309486389,-3.237563133239746
1403715526852143000,-0.005845509469509125,0.01113961637020111,0.08184053003787994,9.291348457336426,0.18706795573234558,-3.1957852840423584
1403715526857143000,0.0011323317885398865,0.013937355950474739,0.06650980561971664,9.552271842956543,0.12953399121761322,-3.3592143058776855
1403715526862143000,0.006750620901584625,0.020885298028588295,0.0720427930355072,9.405000686645508,0.35900968313217163,-3.48262619972229
1403715526867143000,0.00679459422826767,0.022985806688666344,0.07902701944112778,9.331997871398926,0.4082305133342743,-3.2700955867767334
1403715526872143000,0.003302924335002899,0.033466093242168427,0.08176694065332413,9.49533462524414,0.4650728702545166,-3.286654233932495
1403715526877143000,-0.005119435489177704,0.027187896892428398,0.08314095437526703,9.274557113647461,0.33440929651260376,-3.187915325164795
1403715526882143000,-0.0016987994313240051,0.021579748019576073,0.07620672881603241,9.535688400268555,0.2609837055206299,-3.327561855316162
1403715526887143000,-0.004435159265995026,0.02158069796860218,0.07827814668416977,9.160438537597656,0.16303564608097076,-3.13057017326355
1403715526892143000,-0.005161009728908539,0.005475625395774841,0.07217149436473846,9.356413841247559,0.17095667123794556,-3.236799716949463
1403715526897143000,0.008812911808490753,0.011082319542765617,0.09649159014225006,9.650633811950684,0.36657994985580444,-3.2129948139190674
1403715526902143000,0.002568773925304413,0.015154505148530006,0.09284213185310364,9.781060218811035,0.6935670971870422,-3.353336811065674
1403715526907143000,-0.016901664435863495,0.0620235875248909,0.08938904106616974,9.347918510437012,0.5467455387115479,-3.352874517440796
1403715526912143000,-0.03921367973089218,0.02672492153942585,0.06498080492019653,8.360791206359863,0.13728168606758118,-2.670485734939575
1403715526917143000,-0.0199015811085701,0.0071721188724040985,0.06578973680734634,8.924363136291504,-0.2381449192762375,-2.972057580947876
1403715526922143000,0.018478959798812866,0.001487893983721733,0.08617468178272247,8.499405860900879,-0.033578600734472275,-2.9232492446899414
1403715526927143000,0.03747626394033432,0.007508398965001106,0.07840468734502792,9.609861373901367,0.34236276149749756,-3.3034212589263916
1403715526932143000,0.02299845963716507,0.034289926290512085,0.07524864375591278,8.320340156555176,0.6127235293388367,-2.95149302482605
1403715526937143000,-0.004516370594501495,-0.00620613619685173,0.04389510676264763,8.876493453979492,0.7596979737281799,-3.0663087368011475
1403715526942143000,-0.01926015317440033,0.015356766059994698,0.06002187356352806,8.852005004882812,0.5805618762969971,-2.9504201412200928
1403715526947143000,-0.014849729835987091,-0.016466183587908745,0.09094646573066711,8.91678524017334,0.5224587321281433,-3.229649066925049
1403715526952143000,-0.01122293621301651,0.020086565986275673,0.09376624971628189,9.837871551513672,0.21885868906974792,-3.443427324295044
1403715526957143000,-0.011195950210094452,0.049782171845436096,0.09000124037265778,8.81691837310791,0.4319969117641449,-3.154741048812866
1403715526962143000,-0.01920165866613388,-0.0006562788039445877,0.07277706265449524,9.063230514526367,0.16147112846374512,-3.180593252182007
1403715526967143000,-0.022078577429056168,0.014789445325732231,0.05253155529499054,9.153100967407227,0.007104207761585712,-3.177953004837036
1403715526972143000,0.008824221789836884,-0.002955300733447075,0.08069190382957458,9.20952033996582,-0.025197934359312057,-3.317647933959961
1403715526977143000,0.020875148475170135,0.01038946770131588,0.08405609428882599,9.927054405212402,0.07272318750619888,-3.548722743988037
1403715526982143000,0.022309623658657074,0.05153678357601166,0.07379399240016937,8.973408699035645,0.5399863123893738,-3.2119438648223877
1403715526987143000,-0.004464961588382721,0.01272675208747387,0.05618105083703995,9.423205375671387,0.2442324459552765,-3.2369165420532227
1403715526992143000,-0.011690683662891388,0.02674124576151371,0.047687772661447525,9.454435348510742,0.13092093169689178,-3.2360899448394775
1403715526997143000,0.0031678304076194763,0.013729104772210121,0.08315081894397736,9.094881057739258,0.36042341589927673,-3.228860855102539
1403715527002143000,-0.008513428270816803,0.03487803041934967,0.085493303835392,10.02491283416748,0.35141539573669434,-3.5252232551574707
1403715527007143000,-0.013309679925441742,0.06204511225223541,0.09190112352371216,9.054633140563965,0.4812716841697693,-3.114150285720825
1403715527012143000,-0.021374884992837906,0.022517243400216103,0.07424482703208923,9.112234115600586,-0.0920305848121643,-3.112877607345581
1403715527017143000,-0.011723741888999939,0.033029451966285706,0.06817252188920975,9.323933601379395,-0.16549035906791687,-3.04665207862854
1403715527022143000,0.01171429455280304,0.004565296694636345,0.08735783398151398,8.997454643249512,0.22784583270549774,-3.137826442718506
1403715527027143000,0.020948484539985657,0.011716904118657112,0.09920746088027954,9.7223482131958,0.2757733166217804,-3.3362390995025635
1403715527032143000,0.01875462383031845,0.04527180641889572,0.1016683503985405,9.04781723022461,0.545872688293457,-3.122096061706543
1403715527037143000,0.009371340274810791,0.009162241593003273,0.07960590720176697,9.325080871582031,0.4978504180908203,-3.196828603744507
1403715527042143000,-0.009420417249202728,0.018286464735865593,0.06166617199778557,9.176596641540527,0.474173903465271,-3.1146280765533447
1403715527047143000,-0.015509944409132004,-0.010175738483667374,0.058778949081897736,9.005892753601074,0.5232263803482056,-3.1890029907226562
1403715527052143000,-0.0029081180691719055,0.0024925079196691513,0.08595168590545654,9.64900016784668,0.5312442779541016,-3.2795844078063965
1403715527057143000,-0.00580819696187973,0.03255319595336914,0.08918546885251999,9.153136253356934,0.5796046257019043,-3.237947463989258
1403715527062143000,-0.015038367360830307,0.013919757679104805,0.08234269917011261,9.104291915893555,0.6206461787223816,-3.1736578941345215
1403715527067143000,-0.016350530087947845,0.02604127861559391,0.06595686078071594,9.32400894165039,0.3013935089111328,-3.1718766689300537
1403715527072143000,-0.0162922665476799,0.008948003873229027,0.04076102375984192,8.964323043823242,0.022178443148732185,-3.0799896717071533
1403715527077143000,0.0026562437415122986,-0.00014352239668369293,0.06305010616779327,9.208083152770996,0.1788119226694107,-3.2447285652160645
1403715527082143000,0.015981480479240417,0.022309361025691032,0.07694461196660995,9.390198707580566,0.28311631083488464,-3.2199885845184326
1403715527087143000,0.022802911698818207,0.0258511770516634,0.09350643306970596,9.055257797241211,0.5794417858123779,-3.3031296730041504
1403715527092143000,0.0032284483313560486,0.02525945194065571,0.07490000128746033,9.209613800048828,0.6301234364509583,-3.1487975120544434
1403715527097143000,-0.016300246119499207,0.025048712268471718,0.06708702445030212,9.07988166809082,0.27804505825042725,-3.1217024326324463
1403715527102143000,-0.020527832210063934,0.016804540529847145,0.054502613842487335,8.914249420166016,-0.0645260140299797,-3.0959300994873047
1403715527107143000,-0.0024717971682548523,0.01308927871286869,0.08252544701099396,9.348892211914062,0.30172988772392273,-3.122360944747925
1403715527112143000,0.0032347887754440308,0.03426377475261688,0.097220778465271,9.300155639648438,0.10613977164030075,-3.137746572494507
1403715527117143000,0.005366265773773193,0.030833663418889046,0.10208791494369507,9.152153968811035,0.400282084941864,-3.1313657760620117
1403715527122143000,0.00041768699884414673,0.02865261770784855,0.08958953619003296,9.316468238830566,0.25143295526504517,-3.097806453704834
1403715527127143000,-0.007990516722202301,0.03429695963859558,0.06761864572763443,9.35573959350586,0.12062133848667145,-3.1620283126831055
1403715527132143000,-0.007222473621368408,0.017486615106463432,0.053739722818136215,9.053836822509766,-0.09096396714448929,-3.013704538345337
1403715527137143000,0.010265596210956573,0.013877993449568748,0.06659617274999619,9.569477081298828,0.2858395576477051,-3.2120916843414307
1403715527142143000,0.017239950597286224,0.027974223718047142,0.09804803133010864,9.242334365844727,0.32614728808403015,-3.302441120147705
1403715527147143000,0.00817013531923294,0.021452831104397774,0.09380647540092468,9.438433647155762,0.6691753268241882,-3.312971830368042
1403715527152143000,-0.01487133651971817,0.0291959997266531,0.08446507900953293,9.381650924682617,0.5732624530792236,-3.1240921020507812
1403715527157143000,-0.028997190296649933,0.016077792271971703,0.059081267565488815,9.046404838562012,0.1302514523267746,-3.1212899684906006
1403715527162143000,-0.021318890154361725,0.0006254371255636215,0.056509800255298615,9.405176162719727,-0.007741488516330719,-3.162463426589966
1403715527167143000,-0.0009397938847541809,0.0075660161674022675,0.06748686730861664,9.364667892456055,0.14591827988624573,-3.2446818351745605
1403715527172143000,0.008885480463504791,0.010424543172121048,0.08427688479423523,9.217705726623535,0.22673657536506653,-3.163635492324829
1403715527177143000,0.010291457176208496,0.013201916590332985,0.09244664758443832,9.560709953308105,0.473051518201828,-3.3692188262939453
1403715527182143000,0.0019289776682853699,0.025836048647761345,0.08922195434570312,9.120128631591797,0.6526131629943848,-3.0745201110839844
1403715527187143000,-0.013538144528865814,0.011173781007528305,0.07501498609781265,9.070939064025879,0.33298689126968384,-3.1715595722198486
1403715527192143000,-0.013496942818164825,0.007633903995156288,0.05507982149720192,9.471003532409668,0.1795826107263565,-3.3022043704986572
1403715527197143000,-0.0015852823853492737,0.01254952885210514,0.07090786099433899,9.176636695861816,0.24426311254501343,-3.2363882064819336
1403715527202143000,0.010913722217082977,0.01665217988193035,0.08144540339708328,9.103045463562012,0.44790855050086975,-3.24652099609375
1403715527207143000,0.00680021196603775,0.018740857020020485,0.10429912805557251,9.251459121704102,0.5477630496025085,-3.2956111431121826
1403715527212143000,-0.005793549120426178,0.026575284078717232,0.09553484618663788,9.120051383972168,0.5055968761444092,-3.1722629070281982
1403715527217143000,-0.012871794402599335,0.02020150236785412,0.07630754262208939,9.160392761230469,0.3664845824241638,-3.188359260559082
1403715527222143000,-0.012174926698207855,0.01527070440351963,0.062068209052085876,9.217921257019043,0.06519768387079239,-3.2521979808807373
1403715527227143000,-0.00435291975736618,0.011128909885883331,0.05283985286951065,9.110786437988281,0.039938781410455704,-3.3008992671966553
1403715527232143000,0.007527150213718414,0.015298416838049889,0.06132008507847786,9.323549270629883,0.3000051975250244,-3.2781994342803955
1403715527237143000,0.010292403399944305,0.03206508606672287,0.08565893769264221,9.29970932006836,0.42530179023742676,-3.294381618499756
1403715527242143000,0.004636630415916443,0.027975717559456825,0.08993369340896606,8.932170867919922,0.3592608571052551,-3.072749614715576
1403715527247143000,-0.002341128885746002,0.02364775724709034,0.08539873361587524,9.267085075378418,0.5315325260162354,-3.237884283065796
1403715527252143000,-0.015621066093444824,0.022257858887314796,0.07250040769577026,9.299442291259766,0.2784246802330017,-3.343299627304077
1403715527257143000,-0.013563461601734161,0.025016212835907936,0.05467415601015091,9.290858268737793,-0.008404763415455818,-3.1786155700683594
1403715527262143000,-0.0022995248436927795,0.01799582503736019,0.06830842792987823,9.282959938049316,0.3752882480621338,-3.3116655349731445
1403715527267143000,-0.013458773493766785,0.030684346333146095,0.0745660811662674,9.356501579284668,0.4574318528175354,-3.294764518737793
1403715527272143000,-0.009317837655544281,0.03915166109800339,0.09503398835659027,9.364500045776367,0.04804060235619545,-3.3095345497131348
1403715527277143000,0.003885827958583832,0.03348294645547867,0.0990058183670044,9.242498397827148,0.0073038325645029545,-3.1541101932525635
1403715527282143000,0.013586223125457764,0.024475982412695885,0.10019780695438385,9.487569808959961,0.17081071436405182,-3.2198967933654785
1403715527287143000,0.013722740113735199,0.02946852333843708,0.06913283467292786,9.730705261230469,-0.3858816623687744,-3.2019665241241455
1403715527292143000,0.0360141396522522,0.0237929355353117,0.046663761138916016,9.640409469604492,-0.3857768774032593,-3.1693813800811768
1403715527297143000,0.05548243969678879,0.03273767977952957,0.06321246922016144,9.087048530578613,0.6785357594490051,-3.049565553665161
1403715527302143000,0.037572987377643585,0.009623028337955475,0.08097770810127258,9.34897232055664,1.2921913862228394,-3.175142765045166
1403715527307143000,-0.013117797672748566,0.02330239675939083,0.09051322937011719,9.503273010253906,1.36537504196167,-3.3074965476989746
1403715527312143000,-0.07622141391038895,0.015620863065123558,0.08458633720874786,9.063763618469238,0.9061652421951294,-3.045273542404175
1403715527317143000,-0.08837330341339111,0.01519179530441761,0.07861661911010742,9.145955085754395,0.11220839619636536,-3.123422861099243
1403715527322143000,-0.07071290165185928,0.009963804855942726,0.06530439853668213,9.022014617919922,-0.451652854681015,-2.8821260929107666
1403715527327143000,-0.00857493281364441,0.010049505159258842,0.07124388962984085,9.379952430725098,-0.9109103083610535,-2.995335578918457
1403715527332143000,0.05003828555345535,0.022607626393437386,0.07663920521736145,9.085719108581543,-0.6483383178710938,-3.0197718143463135
1403715527337143000,0.07992076128721237,0.019006775692105293,0.07549676299095154,9.119949340820312,0.38401368260383606,-3.2685608863830566
1403715527342143000,0.05703652650117874,0.02380906231701374,0.06452811509370804,8.835394859313965,1.0629377365112305,-3.149132251739502
1403715527347143000,0.013942278921604156,0.014387385919690132,0.06714166700839996,9.325275421142578,1.4146194458007812,-3.176298141479492
1403715527352143000,-0.014684878289699554,0.02905024029314518,0.09199294447898865,9.0155668258667,0.8996697664260864,-3.117039680480957
1403715527357143000,-0.03577091544866562,-0.0036256536841392517,0.08880288898944855,8.949028968811035,0.554617166519165,-3.1569414138793945
1403715527362143000,-0.04775045067071915,0.018757710233330727,0.07012715190649033,9.315657615661621,0.08190315961837769,-3.483088493347168
1403715527367143000,-0.035991065204143524,-0.0007202904671430588,0.07154446095228195,9.111671447753906,0.10607171803712845,-3.1550636291503906
1403715527372143000,-0.011017248034477234,0.024413926526904106,0.06661438941955566,9.772988319396973,-0.21559332311153412,-3.359619617462158
1403715527377143000,0.023423001170158386,0.02314111776649952,0.08660539239645004,8.710626602172852,0.05465618893504143,-2.981024980545044
1403715527382143000,0.023040011525154114,0.004840729758143425,0.07472942024469376,9.690969467163086,0.3416447341442108,-3.5234978199005127
1403715527387143000,0.004914931952953339,0.032096609473228455,0.0655394122004509,9.160520553588867,0.34779709577560425,-3.1137330532073975
1403715527392143000,0.007493413984775543,0.010438285768032074,0.06324835866689682,9.291584014892578,0.10445434600114822,-3.1538236141204834
1403715527397143000,0.029703572392463684,0.023115703836083412,0.09532072395086288,9.062952995300293,0.2793099284172058,-3.13832426071167
1403715527402143000,0.018002279102802277,-0.0013700108975172043,0.08100446313619614,9.201666831970215,0.3692430555820465,-3.449150323867798
1403715527407143000,-0.013378210365772247,0.009510884061455727,0.05985401198267937,9.234127044677734,0.7862449884414673,-3.1749494075775146
1403715527412143000,-0.028408735990524292,0.014524834230542183,0.06618916243314743,9.422672271728516,0.46921753883361816,-3.0493197441101074
1403715527417143000,-0.022407494485378265,0.02017814852297306,0.09723097085952759,9.022046089172363,-0.13811834156513214,-3.1778204441070557
1403715527422143000,-0.017105035483837128,0.005183761939406395,0.09340818226337433,9.502878189086914,-0.30499252676963806,-3.185727834701538
1403715527427143000,-0.018063075840473175,0.034953273832798004,0.07003068178892136,9.535730361938477,-0.051197800785303116,-3.171139717102051
1403715527432143000,-0.0043899789452552795,0.02048383466899395,0.08086616545915604,9.184544563293457,-0.4119702875614166,-2.873849630355835
1403715527437143000,0.03298911452293396,0.02461710013449192,0.09931254386901855,9.339859008789062,-0.18317347764968872,-3.177208185195923
1403715527442143000,0.04091484099626541,0.012127047404646873,0.08551278710365295,9.421708106994629,0.06237255781888962,-3.3500101566314697
1403715527447143000,0.010636337101459503,0.01859149895608425,0.06482361257076263,9.454750061035156,1.0773650407791138,-3.3633077144622803
1403715527452143000,-0.013964816927909851,0.0340052992105484,0.0592649020254612,9.121106147766113,0.541167140007019,-3.180802822113037
1403715527457143000,-0.001856788992881775,0.01398860476911068,0.08940820395946503,8.647359848022461,0.3517451286315918,-3.0974326133728027
1403715527462143000,0.005658574402332306,0.004277387633919716,0.0904012992978096,9.968642234802246,0.2535718083381653,-3.638986587524414
1403715527467143000,-0.01893719658255577,0.02540924958884716,0.05776657164096832,9.193178176879883,1.0562204122543335,-3.183588743209839
1403715527472143000,-0.04265344887971878,0.033265694975852966,0.049562934786081314,8.736296653747559,0.4410395920276642,-3.033884048461914
1403715527477143000,-0.013760171830654144,0.0021978747099637985,0.09165114909410477,8.70423698425293,-0.052694328129291534,-2.924002170562744
1403715527482143000,-0.006721243262290955,0.01904807798564434,0.08267681300640106,10.041910171508789,0.06163159757852554,-3.662461996078491
1403715527487143000,-0.008256860077381134,0.038948990404605865,0.07417368143796921,8.963765144348145,0.5438354015350342,-3.0508105754852295
1403715527492143000,-0.002612300217151642,0.03609272092580795,0.07542012631893158,8.623096466064453,0.0792723298072815,-2.8914029598236084
1403715527497143000,0.04560691863298416,0.007333708927035332,0.10600857436656952,8.915599822998047,-0.3037474751472473,-3.060098648071289
1403715527502143000,0.04213672876358032,0.0224748607724905,0.08410602807998657,9.91111946105957,0.49881136417388916,-3.4987025260925293
1403715527507143000,0.0069287121295928955,0.05187201499938965,0.05022808909416199,9.120414733886719,1.129934549331665,-3.1760804653167725
1403715527512143000,-0.014716289937496185,0.03192856162786484,0.07450327277183533,8.411602020263672,0.5576308369636536,-3.0249407291412354
1403715527517143000,-0.004866577684879303,0.006652556359767914,0.09383059293031693,9.846220016479492,-0.008533854968845844,-3.424189805984497
1403715527522143000,-0.014999836683273315,0.03687490522861481,0.06999264657497406,9.4944486618042,0.5709134340286255,-3.2456514835357666
1403715527527143000,-0.03909236937761307,0.037855908274650574,0.05030716955661774,8.974088668823242,0.5054752826690674,-3.0838019847869873
1403715527532143000,-0.01002136617898941,0.006212251260876656,0.09426024556159973,8.958013534545898,-0.30692964792251587,-2.882009983062744
1403715527537143000,0.009257040917873383,0.020014503970742226,0.08249558508396149,10.072726249694824,-0.12623700499534607,-3.4317193031311035
1403715527542143000,-0.0002051815390586853,0.03898041695356369,0.05055781453847885,9.077954292297363,0.5135685801506042,-3.0331904888153076
1403715527547143000,-0.006866045296192169,0.019111523404717445,0.07137490063905716,8.854063987731934,0.4400446116924286,-3.115225076675415
1403715527552143000,0.012933559715747833,0.009368136525154114,0.1054593175649643,9.536993026733398,-0.10033261030912399,-3.2269980907440186
1403715527557143000,0.01490703970193863,0.040921710431575775,0.09379582107067108,9.794905662536621,0.10653960704803467,-3.2593789100646973
1403715527562143000,-0.007079698145389557,0.031043531373143196,0.054461896419525146,8.8347749710083,0.6077907085418701,-3.0995328426361084
1403715527567143000,-0.0029982998967170715,-0.009290719404816628,0.0849107950925827,8.690633773803711,0.23912376165390015,-3.048395872116089
1403715527572143000,0.009085528552532196,0.009489618241786957,0.09664782136678696,10.278668403625488,0.02214573137462139,-3.441835880279541
1403715527577143000,-0.0059914663434028625,0.030007677152752876,0.033204585313797,8.822996139526367,0.3445774018764496,-3.088766098022461
1403715527582143000,-0.013959765434265137,-0.002555476501584053,0.06488864123821259,8.624835968017578,0.6955983638763428,-3.05220890045166
1403715527587143000,-0.0016299188137054443,-0.005435854196548462,0.10131064057350159,9.677138328552246,0.34878823161125183,-3.2374470233917236
1403715527592143000,-0.005992211401462555,0.03391294926404953,0.07822483777999878,9.786643981933594,0.0017968431347981095,-3.218743085861206
1403715527597143000,-0.011922366917133331,0.014348523691296577,0.05811028927564621,8.654130935668945,0.4317645728588104,-3.049950361251831
1403715527602143000,0.0020964667201042175,-0.008626781404018402,0.09264697134494781,9.099138259887695,0.6790503859519958,-3.182154655456543
1403715527607143000,0.008020423352718353,0.029799239709973335,0.11600736528635025,9.992315292358398,-0.010644592344760895,-3.4737398624420166
1403715527612143000,-0.003784649074077606,0.038472980260849,0.046728916466236115,9.296273231506348,0.029426272958517075,-3.2274155616760254
1403715527617143000,0.004099361598491669,0.0024440940469503403,0.06744824349880219,8.592534065246582,0.7784377336502075,-3.026839017868042
1403715527622143000,0.003147207200527191,0.014133913442492485,0.0921098068356514,9.709206581115723,0.47651660442352295,-3.376955509185791
1403715527627143000,-0.011539898812770844,0.038576819002628326,0.056312549859285355,8.895821571350098,-0.001667824457399547,-2.9887092113494873
1403715527632143000,-0.011992208659648895,-0.017971782013773918,0.05436619743704796,8.647740364074707,0.6679017543792725,-3.0924599170684814
1403715527637143000,-0.00036313384771347046,0.005497243255376816,0.09551942348480225,10.111587524414062,0.6136273145675659,-3.501706600189209
1403715527642143000,-0.016315817832946777,0.029647575691342354,0.08058702945709229,8.562499046325684,-0.015498091466724873,-3.0868568420410156
1403715527647143000,-0.0014761537313461304,-0.00308341346681118,0.06262873113155365,9.166950225830078,0.10982172936201096,-3.343543767929077
1403715527652143000,0.016555704176425934,0.0013394486159086227,0.09825462847948074,9.43358039855957,0.3232000768184662,-3.1620800495147705
1403715527657143000,0.012109719216823578,0.036581575870513916,0.07188276946544647,9.41287612915039,0.10844458639621735,-3.1038451194763184
1403715527662143000,0.01393183320760727,0.006156180053949356,0.0725855901837349,9.21436882019043,0.11409351229667664,-3.4993984699249268
1403715527667143000,0.01041962206363678,0.018421323969960213,0.08357424288988113,9.627819061279297,1.058761477470398,-3.3299953937530518
1403715527672143000,-0.017298460006713867,0.060417115688323975,0.07091869413852692,9.087203979492188,0.15542010962963104,-2.580991268157959
1403715527677143000,-0.019106954336166382,-0.0013004187494516373,0.06566077470779419,9.143898010253906,0.10830862820148468,-2.8440639972686768
1403715527682143000,-0.009293772280216217,-0.0015465430915355682,0.09428992867469788,10.140946388244629,0.35747620463371277,-3.2869064807891846
1403715527687143000,-0.025569356977939606,0.045541755855083466,0.060361236333847046,8.66940975189209,-0.17442287504673004,-3.0701353549957275
1403715527692143000,-0.010678336024284363,-0.0057786935940384865,0.05868716537952423,8.948952674865723,0.042790334671735764,-3.2871806621551514
1403715527697143000,0.006116189062595367,0.01473131962120533,0.08684033155441284,9.717549324035645,0.4006167948246002,-3.407940149307251
1403715527702143000,0.0037922263145446777,0.05757424235343933,0.07235247641801834,8.588930130004883,-0.18232043087482452,-3.355283260345459
1403715527707143000,0.013891153037548065,-0.009238477796316147,0.06633452326059341,8.638964653015137,0.03184951841831207,-3.384760856628418
1403715527712143000,0.025084830820560455,0.01238061673939228,0.08887125551700592,9.98718547821045,0.720050036907196,-3.5247385501861572
1403715527717143000,0.0009520202875137329,0.05617883801460266,0.0673336461186409,8.489180564880371,-0.04252857342362404,-2.766458749771118
1403715527722143000,0.006004348397254944,-0.026107877492904663,0.07023533433675766,8.835119247436523,0.48952341079711914,-2.912663459777832
1403715527727143000,-0.0021348968148231506,0.023428792133927345,0.10432153940200806,10.281651496887207,1.0118008852005005,-3.560410976409912
1403715527732143000,-0.030950933694839478,0.060410648584365845,0.08778438717126846,8.040548324584961,-0.3184219002723694,-3.487394332885742
1403715527737143000,-0.017698027193546295,-0.009328752756118774,0.09182697534561157,9.618058204650879,0.18849146366119385,-3.0515036582946777
1403715527742143000,-0.006419971585273743,0.06072492152452469,0.10953941196203232,9.703529357910156,0.7068522572517395,-2.9320497512817383
1403715527747143000,-0.010759145021438599,0.03871840238571167,0.0724295899271965,8.260420799255371,-0.5009471774101257,-3.354057550430298
1403715527752143000,0.019397065043449402,-0.015701519325375557,0.08578923344612122,9.568692207336426,0.17393001914024353,-3.2967278957366943
1403715527757143000,0.020803816616535187,0.06572385877370834,0.08248208463191986,10.077902793884277,0.6573213338851929,-2.894064426422119
1403715527762143000,0.010207541286945343,0.008031940087676048,0.0438687726855278,7.7708659172058105,-0.40430834889411926,-3.1509788036346436
1403715527767143000,0.022225618362426758,-0.041696369647979736,0.056461893022060394,10.043828964233398,0.9679267406463623,-3.1520774364471436
1403715527772143000,-0.0008501783013343811,0.06059938669204712,0.07188120484352112,10.004608154296875,0.9781939387321472,-3.2792489528656006
1403715527777143000,-0.027509696781635284,0.00421859510242939,0.04588117450475693,8.153584480285645,-0.10361021757125854,-3.1532304286956787
1403715527782143000,-0.01821845769882202,-0.01673196256160736,0.08222362399101257,10.068312644958496,1.123841404914856,-3.2743616104125977
1403715527787143000,-0.02685486525297165,0.0843849629163742,0.09560571610927582,8.745722770690918,-0.07591616362333298,-2.986553430557251
1403715527792143000,-0.015126936137676239,-0.016020607203245163,0.08504022657871246,8.782949447631836,-0.3092556595802307,-3.153637170791626
1403715527797143000,0.02016570419073105,0.017053617164492607,0.1063147783279419,10.698701858520508,0.804289698600769,-3.282109022140503
1403715527802143000,-0.00575748085975647,0.07180707156658173,0.08010361343622208,8.702945709228516,0.027705145999789238,-3.1188254356384277
1403715527807143000,0.008741505444049835,-0.04765259474515915,0.06617867946624756,8.408156394958496,0.03543809428811073,-3.114084243774414
1403715527812143000,0.01464109867811203,0.009198391810059547,0.07625805586576462,10.886468887329102,1.1147451400756836,-3.338773012161255
1403715527817143000,-0.02111773192882538,0.046552106738090515,0.06478102505207062,7.919360637664795,0.09287472069263458,-3.053593873977661
1403715527822143000,-0.0030048564076423645,-0.06106045842170715,0.07057763636112213,8.67888069152832,0.19473795592784882,-3.1481738090515137
1403715527827143000,0.008186869323253632,0.027799831703305244,0.09482838213443756,10.683199882507324,0.8548334836959839,-3.2552590370178223
1403715527832143000,-0.010879896581172943,0.02573624812066555,0.08268609642982483,7.958324909210205,-0.22630172967910767,-3.0687263011932373
1403715527837143000,0.010941244661808014,-0.06496081501245499,0.09514382481575012,10.466880798339844,1.036512017250061,-3.4411375522613525
1403715527842143000,-0.018209703266620636,0.06005556881427765,0.06883329898118973,9.613058090209961,0.5024092793464661,-3.1695141792297363
1403715527847143000,-0.029650229960680008,-0.011345874518156052,0.04384584352374077,7.777832508087158,-0.14738841354846954,-2.9801743030548096
1403715527852143000,0.009492285549640656,-0.029788468033075333,0.07825229316949844,10.900590896606445,0.5218696594238281,-3.4461545944213867
1403715527857143000,-0.00846140831708908,0.10589341819286346,0.0758519172668457,9.130935668945312,0.0020074204076081514,-3.2241251468658447
1403715527862143000,0.006765782833099365,-0.03650243580341339,0.08632403612136841,7.551913261413574,-0.17858970165252686,-2.997663974761963
1403715527867143000,0.020172618329524994,-0.002681279554963112,0.09408004581928253,11.25567626953125,1.0216021537780762,-3.7174720764160156
1403715527872143000,-0.010018974542617798,0.0857970267534256,0.09408977627754211,7.707686901092529,0.008999037556350231,-2.9446582794189453
1403715527877143000,0.005804218351840973,-0.0720285102725029,0.08650632202625275,8.361103057861328,0.17630945146083832,-2.9840331077575684
1403715527882143000,-0.005640774965286255,0.04420708864927292,0.07120732963085175,11.053844451904297,0.9353101849555969,-3.756013870239258
1403715527887143000,-0.023944921791553497,0.05893073230981827,0.047532640397548676,7.449921607971191,-0.18083639442920685,-2.673517942428589
1403715527892143000,0.0029966458678245544,-0.07240143418312073,0.08142390102148056,10.62893009185791,0.5259884595870972,-3.3990426063537598
1403715527897143000,-0.012747026979923248,0.10316534340381622,0.06541236490011215,9.196402549743652,-0.19463306665420532,-3.059748888015747
1403715527902143000,0.015706606209278107,-0.035657282918691635,0.07856189459562302,7.738249778747559,0.17572328448295593,-3.0046417713165283
1403715527907143000,0.00895678997039795,0.02387973852455616,0.07780234515666962,10.793875694274902,0.9855865836143494,-3.414677143096924
1403715527912143000,-0.009208932518959045,0.09318710118532181,0.08029536157846451,8.256038665771484,0.06433222442865372,-2.6000618934631348
1403715527917143000,0.005915559828281403,-0.05616384744644165,0.10894101858139038,8.613326072692871,0.3059219419956207,-3.0585110187530518
1403715527922143000,-0.005254991352558136,0.06393212080001831,0.09615421295166016,10.879301071166992,0.1705578714609146,-3.697713613510132
1403715527927143000,0.001994878053665161,0.027486545965075493,0.08574075996875763,7.845236778259277,0.07313667982816696,-2.8236029148101807
1403715527932143000,0.008122630417346954,-0.03167310357093811,0.07058596611022949,9.894664764404297,0.7999627590179443,-3.454138994216919
1403715527937143000,-0.010814644396305084,0.08214040100574493,0.07759267091751099,9.77609634399414,0.08842922747135162,-2.988316059112549
1403715527942143000,0.005320042371749878,-0.019846932962536812,0.07270945608615875,8.154426574707031,0.38133248686790466,-3.5466816425323486
1403715527947143000,-0.01085885614156723,-0.0030476469546556473,0.05844746530056,10.778356552124023,-0.008091526105999947,-3.6177449226379395
1403715527952143000,-0.002825431525707245,0.03383047878742218,0.06837620586156845,8.248800277709961,0.4057522714138031,-3.029818296432495
1403715527957143000,-0.007826276123523712,-0.01211358979344368,0.05101162567734718,9.37802505493164,0.5306912660598755,-3.2555394172668457
1403715527962143000,0.00173080712556839,0.05050237476825714,0.07921759784221649,9.742132186889648,0.06246937811374664,-3.284134864807129
1403715527967143000,0.005448669195175171,0.020309606567025185,0.07464965432882309,9.26683521270752,0.823702335357666,-3.550356388092041
1403715527972143000,-0.032396525144577026,0.04715999960899353,0.047560323029756546,9.918522834777832,0.07432478666305542,-3.6728010177612305
1403715527977143000,-0.0021364614367485046,0.05867011845111847,0.08120658993721008,8.76258659362793,0.5052101016044617,-3.0886852741241455
1403715527982143000,-0.01847105473279953,0.042395465075969696,0.06310293823480606,8.905474662780762,0.22806210815906525,-2.86714506149292
1403715527987143000,-0.0010917335748672485,0.044796936213970184,0.08329948782920837,8.802279472351074,-0.2373134046792984,-3.0372657775878906
1403715527992143000,0.01815284788608551,0.00789543054997921,0.08954664319753647,9.202142715454102,0.7331570386886597,-3.2309799194335938
1403715527997143000,-0.012330442667007446,0.05083604156970978,0.05568096786737442,8.774515151977539,-0.25160717964172363,-2.816627264022827
1403715528002143000,0.025604330003261566,-0.010504689067602158,0.09824609756469727,9.00029468536377,0.7850574851036072,-3.0757784843444824
1403715528007143000,-0.005124904215335846,0.02518008090555668,0.046645328402519226,9.96019458770752,0.5285713076591492,-3.8514769077301025
1403715528012143000,0.011675558984279633,0.019429044798016548,0.06946522742509842,8.377086639404297,0.7110556364059448,-3.0739846229553223
1403715528017143000,-0.006455279886722565,-0.003277735784649849,0.045916132628917694,10.190679550170898,0.2828208804130554,-3.148118495941162
1403715528022143000,-0.019835222512483597,0.02417503111064434,0.05261559784412384,8.684246063232422,-0.2778836786746979,-2.928375005722046
1403715528027143000,-0.008590206503868103,-0.047888729721307755,0.07799067348241806,8.925554275512695,0.7425308227539062,-3.00250506401062
1403715528032143000,-0.04443156719207764,0.030617469921708107,0.05496898666024208,10.402216911315918,0.3647584319114685,-3.3557510375976562
1403715528037143000,-0.0007192566990852356,0.022369524464011192,0.11284903436899185,8.645925521850586,0.4508343040943146,-3.0413308143615723
1403715528042143000,-0.01983555406332016,0.019656522199511528,0.06733644008636475,9.903070449829102,-0.21507808566093445,-3.892277717590332
1403715528047143000,0.010720990598201752,0.06418105959892273,0.07839329540729523,8.947498321533203,-0.38489410281181335,-2.7154154777526855
1403715528052143000,0.02147643268108368,0.029349857941269875,0.05470100790262222,9.243566513061523,0.12249404191970825,-2.8982410430908203
1403715528057143000,-0.005380623042583466,0.05059449374675751,0.046563491225242615,8.922323226928711,-0.5986841320991516,-2.9703660011291504
1403715528062143000,0.023604191839694977,-0.008351519703865051,0.0741204023361206,8.957590103149414,0.5484089851379395,-3.2217209339141846
1403715528067143000,-0.02058609575033188,0.04483940452337265,0.06936130672693253,9.430157661437988,0.36788803339004517,-3.5018954277038574
1403715528072143000,0.008694075047969818,0.00833895429968834,0.12927956879138947,8.04340934753418,0.6134462356567383,-2.279925584793091
1403715528077143000,-0.02251424640417099,-0.004998067393898964,0.08393897116184235,10.159506797790527,0.1450594663619995,-3.6962406635284424
1403715528082143000,-0.004575766623020172,0.031003622338175774,0.10677005350589752,9.273991584777832,0.1610683798789978,-3.2102344036102295
1403715528087143000,-0.002807796001434326,0.016810933127999306,0.08865280449390411,9.470307350158691,0.8896876573562622,-3.2401657104492188
1403715528092143000,-0.015096932649612427,0.0686374083161354,0.0855007916688919,9.209268569946289,-0.26572081446647644,-2.8835225105285645
1403715528097143000,0.01803351193666458,0.003751210868358612,0.09655134379863739,8.524457931518555,0.120721735060215,-2.8330368995666504
1403715528102143000,-0.010172493755817413,0.020650433376431465,0.052577514201402664,10.221256256103516,-0.158654123544693,-3.5412492752075195
1403715528107143000,0.021333493292331696,0.03708299994468689,0.07733458280563354,8.367851257324219,0.3009010851383209,-2.515669107437134
1403715528112143000,0.0005464479327201843,-0.010801450349390507,0.026898764073848724,9.847203254699707,0.19594600796699524,-3.6553404331207275
1403715528117143000,-0.004589356482028961,0.010702034458518028,0.05435975268483162,8.744148254394531,0.46295738220214844,-3.120213747024536
1403715528122143000,-0.013400465250015259,-0.0038341227918863297,0.04494132101535797,9.391088485717773,0.6318035125732422,-3.4667563438415527
1403715528127143000,-0.021472159773111343,0.03783781826496124,0.05982234701514244,9.601431846618652,-0.6631637811660767,-3.0962531566619873
1403715528132143000,-0.003032766282558441,-0.011949798092246056,0.0740683525800705,9.094541549682617,0.3680621087551117,-3.014901638031006
1403715528137143000,-0.038653865456581116,0.016885822638869286,0.05678676813840866,9.674653053283691,0.42357519268989563,-3.7790474891662598
1403715528142143000,-0.0029065534472465515,0.009742440655827522,0.09463804960250854,8.278968811035156,0.718123733997345,-2.8049449920654297
1403715528147143000,-0.010023236274719238,-0.0017136652022600174,0.08262412250041962,9.823963165283203,-0.042883940041065216,-3.3613505363464355
1403715528152143000,0.005831412971019745,0.04039441794157028,0.08404487371444702,9.28116512298584,-0.6272708773612976,-3.2730276584625244
1403715528157143000,0.03145594894886017,-0.011889941990375519,0.09580866992473602,9.184544563293457,0.5629761815071106,-3.0491909980773926
1403715528162143000,0.021880798041820526,0.02447390742599964,0.11751950532197952,9.439393997192383,-0.48388543725013733,-3.06282639503479
1403715528167143000,0.05078142136335373,-0.03239089995622635,0.11060825735330582,9.112545013427734,0.7824918627738953,-3.058622360229492
1403715528172143000,0.005397684872150421,0.006802879273891449,0.09412066638469696,9.553471565246582,0.7417673468589783,-3.689138174057007
1403715528177143000,0.010183103382587433,0.011395879089832306,0.10697281360626221,8.409628868103027,0.7590534090995789,-2.6823713779449463
1403715528182143000,-0.03167729824781418,-0.006372418254613876,0.06719887256622314,10.174010276794434,0.21515001356601715,-3.6237027645111084
1403715528187143000,-0.02284906804561615,0.048531197011470795,0.059888821095228195,9.910111427307129,0.22704865038394928,-3.326472043991089
1403715528192143000,-0.020226415246725082,0.02121560089290142,0.05592331662774086,9.241717338562012,1.069502830505371,-3.329707145690918
1403715528197143000,-0.028263241052627563,0.027203725650906563,0.057423144578933716,8.990324974060059,-0.3362143039703369,-3.284715414047241
1403715528202143000,-0.0014829039573669434,-0.016962997615337372,0.06448071449995041,9.281952857971191,0.12229011207818985,-3.1041440963745117
1403715528207143000,-0.014266230165958405,0.0062416065484285355,0.04128570854663849,9.462040901184082,0.0797368586063385,-3.47456955909729
1403715528212143000,0.028277747333049774,0.02379678748548031,0.09984324872493744,8.785717010498047,-0.010878534987568855,-2.9971046447753906
1403715528217143000,0.005593918263912201,0.0006012152880430222,0.06536704301834106,9.252120018005371,0.42664310336112976,-3.450529098510742
