#timestamp [ns],w_RS_S_x [rad s^-1],w_RS_S_y [rad s^-1],w_RS_S_z [rad s^-1],a_RS_S_x [m s^-2],a_RS_S_y [m s^-2],a_RS_S_z [m s^-2]
1403715523912143000,-0.0006981317007977319,0.019547687622336492,0.0767944870877505,9.218250999999999,0.3023717083333333,-3.1544724166666662
1403715523917143000,-0.0006981317007977319,0.020943951023931952,0.07260569688296412,9.316317499999998,0.29419949999999995,-3.2525389166666665
1403715523922143000,-0.003490658503988659,0.023038346126325153,0.0747000919853573,9.210078791666666,0.29419949999999995,-3.178989041666666
1403715523927143000,-0.0027925268031909274,0.017453292519943295,0.07819075048934597,9.324489708333333,0.3023717083333333,-3.260711125
1403715523932143000,-0.003490658503988659,0.02234021442552742,0.08028514559173915,9.226423208333333,0.269682875,-3.195333458333333
1403715523937143000,-0.0027925268031909274,0.021642082724729686,0.08098327729253688,9.324489708333333,0.34323275000000003,-3.219850083333333
1403715523942143000,-0.0006981317007977319,0.024434609527920613,0.07749261878854824,9.226423208333333,0.34323275000000003,-3.178989041666666
1403715523947143000,0.0,0.01884955592153876,0.07819075048934597,9.299973083333333,0.35957716666666667,-3.178989041666666
1403715523952143000,0.0,0.020943951023931952,0.07888888219014369,9.234595416666666,0.3350605416666666,-3.211677875
1403715523957143000,-0.0020943951023931952,0.02024581932313422,0.07749261878854824,9.308145291666667,0.367749375,-3.2035056666666666
1403715523962143000,-0.0027925268031909274,0.024434609527920613,0.07958701389094143,9.201906583333333,0.3023717083333333,-3.138128
1403715523967143000,-0.0013962634015954637,0.02024581932313422,0.0767944870877505,9.291800875,0.34323275000000003,-3.170816833333333
1403715523972143000,-0.0013962634015954637,0.021642082724729686,0.07609635538695278,9.234595416666666,0.3105439166666667,-3.2035056666666666
1403715523977143000,-0.003490658503988659,0.02024581932313422,0.07539822368615504,9.291800875,0.35140495833333335,-3.219850083333333
1403715523982143000,-0.004886921905584123,0.023736477827122883,0.0767944870877505,9.259112041666667,0.3105439166666667,-3.18716125
1403715523987143000,-0.0027925268031909274,0.019547687622336492,0.07539822368615504,9.275456458333332,0.34323275000000003,-3.195333458333333
1403715523992143000,-0.003490658503988659,0.020943951023931952,0.07609635538695278,9.226423208333333,0.318716125,-3.211677875
1403715523997143000,-0.003490658503988659,0.017453292519943295,0.0747000919853573,9.242767624999999,0.35140495833333335,-3.219850083333333
1403715524002143000,-0.003490658503988659,0.01884955592153876,0.08028514559173915,9.226423208333333,0.29419949999999995,-3.170816833333333
1403715524007143000,-0.004886921905584123,0.01884955592153876,0.07819075048934597,9.283628666666665,0.35957716666666667,-3.211677875
1403715524012143000,-0.003490658503988659,0.023736477827122883,0.07539822368615504,9.226423208333333,0.3350605416666666,-3.2035056666666666
1403715524017143000,0.0006981317007977319,0.016755160819145562,0.07888888219014369,9.26728425,0.3350605416666666,-3.2035056666666666
1403715524022143000,-0.0027925268031909274,0.016755160819145562,0.07888888219014369,9.242767624999999,0.3023717083333333,-3.2035056666666666
1403715524027143000,-0.0013962634015954637,0.016755160819145562,0.07819075048934597,9.275456458333332,0.35140495833333335,-3.18716125
1403715524032143000,-0.0006981317007977319,0.02234021442552742,0.07819075048934597,9.259112041666667,0.318716125,-3.18716125
1403715524037143000,-0.0013962634015954637,0.023038346126325153,0.07609635538695278,9.283628666666665,0.318716125,-3.2035056666666666
1403715524042143000,0.0020943951023931952,0.023736477827122883,0.08377580409572781,9.242767624999999,0.3023717083333333,-3.170816833333333
1403715524047143000,-0.0013962634015954637,0.01815142422074103,0.0767944870877505,9.324489708333333,0.3350605416666666,-3.211677875
1403715524052143000,-0.0027925268031909274,0.021642082724729686,0.0767944870877505,9.26728425,0.3023717083333333,-3.195333458333333
1403715524057143000,-0.0014918893575668335,0.02000945806503296,0.0784246176481247,9.284903526306152,0.3431027829647064,-3.2020890712738037
1403715524062143000,0.0034512653946876526,0.019385255873203278,0.07836585491895676,9.252494812011719,0.3107280731201172,-3.1696338653564453
1403715524067143000,0.003445863723754883,0.015179932117462158,0.07341010123491287,9.285000801086426,0.3432343900203705,-3.1937062740325928
1403715524072143000,-0.0008316375315189362,0.01862754300236702,0.07911375910043716,9.236237525939941,0.26993584632873535,-3.2022857666015625
1403715524077143000,-0.0015110746026039124,0.01370195671916008,0.07422495633363724,9.30962085723877,0.3266971707344055,-3.194228172302246
1403715524082143000,-8.10772180557251e-05,0.017948448657989502,0.07481926679611206,9.187359809875488,0.32719355821609497,-3.193842649459839
1403715524087143000,0.0006442517042160034,0.016596417874097824,0.07554613053798676,9.285186767578125,0.35148802399635315,-3.185920476913452
1403715524092143000,-0.00010573863983154297,0.0180034376680851,0.07845669239759445,9.21189022064209,0.27789992094039917,-3.161245822906494
1403715524097143000,-7.980316877365112e-05,0.017938297241926193,0.07771124690771103,9.268807411193848,0.318381667137146,-3.177535057067871
1403715524102143000,-0.0008033551275730133,0.022144079208374023,0.07763497531414032,9.203889846801758,0.27827420830726624,-3.169419288635254
1403715524107143000,-0.0021964125335216522,0.01797695830464363,0.07554730027914047,9.244468688964844,0.3595837652683258,-3.210141181945801
1403715524112143000,-0.0021694041788578033,0.02075037732720375,0.07838285714387894,9.228158950805664,0.3434330224990845,-3.2187910079956055
1403715524117143000,-0.00286286324262619,0.01794600486755371,0.07978358864784241,9.195462226867676,0.33499613404273987,-3.177769422531128
1403715524122143000,-0.0021602213382720947,0.024255096912384033,0.07909305393695831,9.203902244567871,0.30235493183135986,-3.2020058631896973
1403715524127143000,-5.980581045150757e-05,0.021445881575345993,0.0755668580532074,9.268998146057129,0.3350198268890381,-3.194230556488037
1403715524132143000,-0.00218779593706131,0.01792329177260399,0.08044719696044922,9.227901458740234,0.32718685269355774,-3.1857640743255615
1403715524137143000,-0.0014657564461231232,0.018620405346155167,0.08116085082292557,9.276975631713867,0.3021952211856842,-3.227023124694824
1403715524142143000,-0.0007618516683578491,0.022831693291664124,0.07905720174312592,9.228025436401367,0.3266967833042145,-3.2107949256896973
1403715524147143000,-0.0007458850741386414,0.019349917769432068,0.07485535740852356,9.293112754821777,0.3433903455734253,-3.2514595985412598
1403715524152143000,-7.106363773345947e-05,0.02215832844376564,0.07697819173336029,9.27682876586914,0.29447776079177856,-3.2112250328063965
1403715524157143000,-7.610023021697998e-05,0.019350919872522354,0.07835828512907028,9.260302543640137,0.37554287910461426,-3.1776363849639893
1403715524162143000,-0.0014925897121429443,0.02001931518316269,0.07836522907018661,9.236288070678711,0.29457104206085205,-3.218449115753174
1403715524167143000,-0.0015057846903800964,0.017901815474033356,0.07561841607093811,9.22804069519043,0.3186376988887787,-3.1452884674072266
1403715524172143000,-0.0022000856697559357,0.020766858011484146,0.07770907878875732,9.252605438232422,0.2615516781806946,-3.1935718059539795
1403715524177143000,-0.0021556243300437927,0.02010907232761383,0.07621593773365021,9.268780708312988,0.351444274187088,-3.218893527984619
1403715524182143000,-0.0014712586998939514,0.019329730421304703,0.07763487845659256,9.285080909729004,0.29461541771888733,-3.177988290786743
1403715524187143000,-0.002178329974412918,0.02070670574903488,0.07633614540100098,9.260537147521973,0.3266719877719879,-3.169440269470215
1403715524192143000,0.0006431452929973602,0.020747393369674683,0.0777248814702034,9.228018760681152,0.3188202381134033,-3.2019646167755127
1403715524197143000,0.002747628837823868,0.01933501660823822,0.07624014467000961,9.285124778747559,0.3188716769218445,-3.1776955127716064
1403715524202143000,0.0027202144265174866,0.020046908408403397,0.07691800594329834,9.219895362854004,0.2943461239337921,-3.193748712539673
1403715524207143000,0.00130356103181839,0.01654183119535446,0.07979007065296173,9.285111427307129,0.33482521772384644,-3.1942005157470703
1403715524212143000,-0.00010755658149719238,0.01863580197095871,0.08191955834627151,9.228019714355469,0.35163214802742004,-3.169180393218994
1403715524217143000,-9.102001786231995e-05,0.020037785172462463,0.07834652066230774,9.26875114440918,0.3268972337245941,-3.1775572299957275
1403715524222143000,-0.0015018954873085022,0.0221637561917305,0.07551832497119904,9.277029991149902,0.2858622074127197,-3.185947895050049
1403715524227143000,-0.0007847659289836884,0.018648821860551834,0.079069584608078,9.284942626953125,0.3103320598602295,-3.1940255165100098
1403715524232143000,-0.005023006349802017,0.020020365715026855,0.07842113077640533,9.252525329589844,0.26185473799705505,-3.161541223526001
1403715524237143000,-0.002165362238883972,0.016519486904144287,0.07486995309591293,9.301392555236816,0.31854379177093506,-3.177522897720337
1403715524242143000,-0.0014576315879821777,0.023548081517219543,0.07910769432783127,9.244235038757324,0.3025214672088623,-3.1857542991638184
1403715524247143000,-0.0014369338750839233,0.016572915017604828,0.0720689445734024,9.301355361938477,0.3433033525943756,-3.1941094398498535
1403715524252143000,0.002073373645544052,0.020754758268594742,0.07688836008310318,9.285099029541016,0.310687392950058,-3.2432217597961426
1403715524257143000,-0.0007536187767982483,0.017225738614797592,0.07487805932760239,9.341917991638184,0.3594599664211273,-3.2354674339294434
1403715524262143000,-7.656961679458618e-05,0.021408244967460632,0.07563626766204834,9.268698692321777,0.28625351190567017,-3.194254159927368
1403715524267143000,-0.0014923103153705597,0.020746033638715744,0.0756048783659935,9.276815414428711,0.35106658935546875,-3.1939237117767334
1403715524272143000,-0.0014744587242603302,0.02217581868171692,0.07765013724565506,9.228134155273438,0.3107202351093292,-3.2020299434661865
1403715524277143000,-0.002185449004173279,0.0172572024166584,0.07555946707725525,9.260684967041016,0.32678675651550293,-3.1777501106262207
1403715524282143000,-0.0022043436765670776,0.018626168370246887,0.07347327470779419,9.21208381652832,0.26965469121932983,-3.218510866165161
1403715524287143000,-0.0007831454277038574,0.01863405853509903,0.07137603312730789,9.228405952453613,0.318513423204422,-3.161717176437378
1403715524292143000,-8.0108642578125e-05,0.021476641297340393,0.07983806729316711,9.203856468200684,0.3108587861061096,-3.160845994949341
1403715524297143000,-0.0014651007950305939,0.020777706056833267,0.07419423013925552,9.301545143127441,0.3431842029094696,-3.218651056289673
1403715524302143000,-0.002897251397371292,0.018644962459802628,0.07624481618404388,9.244378089904785,0.2779957354068756,-3.194383144378662
1403715524307143000,-0.0014552995562553406,0.01580994576215744,0.07137056440114975,9.285176277160645,0.32670024037361145,-3.2349464893341064
1403715524312143000,-0.0014611557126045227,0.02001592516899109,0.07836146652698517,9.252546310424805,0.3190953731536865,-3.2026286125183105
1403715524317143000,-0.0021855533123016357,0.016584180295467377,0.07628795504570007,9.227933883666992,0.33517512679100037,-3.1855170726776123
1403715524322143000,-0.0028953999280929565,0.017298050224781036,0.08051455765962601,9.236333847045898,0.2859889566898346,-3.218583345413208
1403715524327143000,-0.002160973846912384,0.0186551995575428,0.07983871549367905,9.285046577453613,0.3510943353176117,-3.1698293685913086
1403715524332143000,0.0006298273801803589,0.0193401537835598,0.07692597806453705,9.228073120117188,0.27012544870376587,-3.1774141788482666
1403715524337143000,-6.64442777633667e-05,0.017208367586135864,0.07475227117538452,9.301368713378906,0.35924673080444336,-3.1697349548339844
1403715524342143000,-0.0007950887084007263,0.020754985511302948,0.07629755139350891,9.24441909790039,0.24539604783058167,-3.2020716667175293
1403715524347143000,-0.005010519176721573,0.015181146562099457,0.07777459919452667,9.301215171813965,0.3020658493041992,-3.2026822566986084
1403715524352143000,-0.004283346235752106,0.020052682608366013,0.0819348469376564,9.236125946044922,0.3025681674480438,-3.218606472015381
1403715524357143000,-0.003550756722688675,0.020743947476148605,0.07482820749282837,9.285070419311523,0.3516237437725067,-3.218735456466675
1403715524362143000,-0.00568162277340889,0.024278949946165085,0.07762061804533005,9.21185302734375,0.28625866770744324,-3.1613237857818604
1403715524367143000,-0.0028533227741718292,0.017253998667001724,0.07415567338466644,9.244438171386719,0.3346402943134308,-3.193592071533203
1403715524372143000,-0.0007527545094490051,0.020693067461252213,0.07838880270719528,9.228214263916016,0.31091970205307007,-3.1695072650909424
1403715524377143000,0.0013531222939491272,0.017933350056409836,0.07635197043418884,9.236298561096191,0.3187618553638458,-3.193746566772461
1403715524382143000,0.0006033889949321747,0.022858671844005585,0.07772457599639893,9.195693016052246,0.27777284383773804,-3.177957534790039
1403715524387143000,0.0020393170416355133,0.016564510762691498,0.0748269110918045,9.301629066467285,0.31840643286705017,-3.2349257469177246
1403715524392143000,-0.00010431930422782898,0.02076132968068123,0.07691767811775208,9.21168327331543,0.2944808006286621,-3.1373414993286133
1403715524397143000,-0.0008052438497543335,0.01862771436572075,0.07766950875520706,9.301417350769043,0.31040310859680176,-3.209901809692383
1403715524402143000,-0.00011727213859558105,0.02139929309487343,0.0819554328918457,9.228123664855957,0.26970231533050537,-3.178197145462036
1403715524407143000,-0.0014907047152519226,0.017251528799533844,0.07699200510978699,9.268712997436523,0.3267488181591034,-3.218162775039673
1403715524412143000,-0.0022081956267356873,0.019375264644622803,0.07552169263362885,9.236218452453613,0.3190540373325348,-3.1372551918029785
1403715524417143000,-0.0028956495225429535,0.0200510174036026,0.07764662802219391,9.325793266296387,0.3023514449596405,-3.1934783458709717
1403715524422143000,0.0006624683737754822,0.01862204819917679,0.07557164877653122,9.276766777038574,0.326673686504364,-3.20255708694458
1403715524427143000,-0.0021680928766727448,0.018636085093021393,0.07348659634590149,9.284953117370605,0.33511683344841003,-3.1777243614196777
1403715524432143000,-0.0014742016792297363,0.0207613967359066,0.07773756980895996,9.268733024597168,0.3025139272212982,-3.1695077419281006
1403715524437143000,-0.0014620870351791382,0.020749937742948532,0.07138022780418396,9.317625045776367,0.3020015358924866,-3.202070951461792
1403715524442143000,-0.002164199948310852,0.01931752637028694,0.08043432235717773,9.244050025939941,0.33495938777923584,-3.153120756149292
1403715524447143000,-0.004295580089092255,0.02144746482372284,0.07068604975938797,9.293498992919922,0.2699039876461029,-3.20192289352417
1403715524452143000,-0.0028806738555431366,0.02005753666162491,0.07770349085330963,9.260689735412598,0.293891966342926,-3.153461217880249
1403715524457143000,-0.003547191619873047,0.02212851122021675,0.07774868607521057,9.301331520080566,0.302347868680954,-3.2098639011383057
1403715524462143000,-4.4871121644973755e-05,0.020026590675115585,0.07904918491840363,9.260608673095703,0.31080958247184753,-3.1944496631622314
1403715524467143000,-7.12759792804718e-05,0.022148940712213516,0.07344251126050949,9.277055740356445,0.3023407757282257,-3.2021191120147705
1403715524472143000,0.0020465590059757233,0.02213239297270775,0.07978024333715439,9.25245189666748,0.3349243402481079,-3.1614015102386475
1403715524477143000,-0.0007864087820053101,0.018599484115839005,0.08190349489450455,9.293147087097168,0.33524155616760254,-3.1854870319366455
1403715524482143000,-0.0007949471473693848,0.02003232017159462,0.08115269243717194,9.219881057739258,0.32689014077186584,-3.202118396759033
1403715524487143000,-0.0007706843316555023,0.02214711531996727,0.08184235543012619,9.29338264465332,0.3185320794582367,-3.2268881797790527
1403715524492143000,-7.331371307373047e-05,0.018644101917743683,0.08329517394304276,9.260637283325195,0.3022681176662445,-3.210794448852539
1403715524497143000,-0.003608427941799164,0.019333243370056152,0.07691378146409988,9.276922225952148,0.3023148477077484,-3.210526704788208
1403715524502143000,-0.002905823290348053,0.017244040966033936,0.07548703998327255,9.277082443237305,0.2859753966331482,-3.186141014099121
1403715524507143000,-0.004275798797607422,0.022157449275255203,0.07423007488250732,9.260653495788574,0.326821893453598,-3.210253953933716
1403715524512143000,-3.168731927871704e-05,0.015845175832509995,0.07635550200939178,9.260594367980957,0.35148581862449646,-3.210627555847168
1403715524517143000,-5.026906728744507e-05,0.019351210445165634,0.07486220449209213,9.24443531036377,0.33518287539482117,-3.218628406524658
1403715524522143000,-0.0028743036091327667,0.018681511282920837,0.07413854449987411,9.268844604492188,0.34307512640953064,-3.1943092346191406
1403715524527143000,-0.00429198145866394,0.020756550133228302,0.0756000280380249,9.236369132995605,0.2942711114883423,-3.226651906967163
1403715524532143000,-0.0014479272067546844,0.01792679727077484,0.0727594792842865,9.309613227844238,0.3349756598472595,-3.2027134895324707
1403715524537143000,-0.002857159823179245,0.02145789936184883,0.07556667923927307,9.285086631774902,0.2943187654018402,-3.2104036808013916
1403715524542143000,-0.0035832226276397705,0.01867072284221649,0.07776684314012527,9.244196891784668,0.3186054527759552,-3.186077833175659
1403715524547143000,-0.004279032349586487,0.020723216235637665,0.07983008027076721,9.252585411071777,0.3187149465084076,-3.210136651992798
1403715524552143000,-0.0021387487649917603,0.020734742283821106,0.0790293961763382,9.268754959106445,0.3433367908000946,-3.2268872261047363
1403715524557143000,-0.0007586516439914703,0.024263866245746613,0.08112211525440216,9.252412796020508,0.30252915620803833,-3.1942989826202393
1403715524562143000,-7.413327693939209e-05,0.019346028566360474,0.0783497765660286,9.236328125,0.310380756855011,-3.193979501724243
1403715524567143000,-0.0014733634889125824,0.019316308200359344,0.07483058422803879,9.195734977722168,0.32707110047340393,-3.242927074432373
1403715524572143000,-0.004988722503185272,0.015824664384126663,0.07767842710018158,9.301501274108887,0.34345099329948425,-3.2353951930999756
1403715524577143000,-6.781518459320068e-05,0.020751990377902985,0.07703372091054916,9.252420425415039,0.29428526759147644,-3.194343328475952
1403715524582143000,0.0006444938480854034,0.02006988227367401,0.07275128364562988,9.301436424255371,0.3102438151836395,-3.210519552230835
1403715524587143000,-6.407499313354492e-05,0.022158853709697723,0.07905647158622742,9.317761421203613,0.2780197262763977,-3.218862533569336
1403715524592143000,-0.0022032633423805237,0.013729147613048553,0.07559032738208771,9.333576202392578,0.3432484567165375,-3.2270352840423584
1403715524597143000,0.0020436719059944153,0.021380770951509476,0.07904620468616486,9.301093101501465,0.3025346100330353,-3.2190191745758057
1403715524602143000,-0.0007752254605293274,0.020036038011312485,0.08048703521490097,9.325698852539062,0.28584563732147217,-3.235203981399536
1403715524607143000,-0.0022025257349014282,0.02148596942424774,0.07699380069971085,9.24416446685791,0.3186527490615845,-3.1860599517822266
1403715524612143000,-0.0035729706287384033,0.020782075822353363,0.07413744181394577,9.333992004394531,0.3353745639324188,-3.2428555488586426
1403715524617143000,-0.0014406070113182068,0.02283792942762375,0.08046135306358337,9.252408981323242,0.3107432425022125,-3.21895694732666
1403715524622143000,-0.0014511942863464355,0.02489909902215004,0.0769934430718422,9.285093307495117,0.3428451120853424,-3.2429916858673096
1403715524627143000,-0.0007892698049545288,0.01859191805124283,0.07978649437427521,9.260797500610352,0.2943650186061859,-3.2026662826538086
1403715524632143000,0.0006627626717090607,0.018629100173711777,0.07484273612499237,9.333930015563965,0.32678288221359253,-3.22660493850708
1403715524637143000,-0.0014897175133228302,0.021482374519109726,0.0783538892865181,9.219870567321777,0.27792075276374817,-3.177917718887329
1403715524642143000,-0.002895273268222809,0.01722652092576027,0.07696638256311417,9.293392181396484,0.3266873061656952,-3.1937990188598633
1403715524647143000,-8.135661482810974e-05,0.020723707973957062,0.08118943870067596,9.236401557922363,0.2534984052181244,-3.1778011322021484
1403715524652143000,0.0006661191582679749,0.017959266901016235,0.07842773199081421,9.301335334777832,0.334800660610199,-3.2183609008789062
1403715524657143000,-8.695200085639954e-05,0.019341319799423218,0.0811823382973671,9.236193656921387,0.3353669047355652,-3.161548137664795
1403715524662143000,-0.0022226907312870026,0.018622644245624542,0.07620211690664291,9.260855674743652,0.3025035858154297,-3.218097686767578
1403715524667143000,-0.001477569341659546,0.020738691091537476,0.07973069697618484,9.260679244995117,0.3429316580295563,-3.169813871383667
1403715524672143000,-0.0014691613614559174,0.02009519189596176,0.08052933216094971,9.252418518066406,0.32701560854911804,-3.1852047443389893
1403715524677143000,0.0006380453705787659,0.01933346688747406,0.07699529081583023,9.29327392578125,0.3188474774360657,-3.1532962322235107
1403715524682143000,-0.0007763579487800598,0.022818680852651596,0.07694926112890244,9.285185813903809,0.27756333351135254,-3.2098875045776367
1403715524687143000,-0.0014948844909667969,0.01934874802827835,0.07697087526321411,9.22801685333252,0.29408496618270874,-3.1616125106811523
1403715524692143000,-0.002184353768825531,0.020727090537548065,0.07695333659648895,9.30154037475586,0.31880438327789307,-3.2181825637817383
1403715524697143000,-0.0035913661122322083,0.017236873507499695,0.07628800719976425,9.260510444641113,0.3270222544670105,-3.169894218444824
1403715524702143000,-0.0035723522305488586,0.01795584335923195,0.0734994113445282,9.244392395019531,0.2941858172416687,-3.2181496620178223
1403715524707143000,0.0006610006093978882,0.012328185141086578,0.07559594511985779,9.29336929321289,0.3348415493965149,-3.1619200706481934
1403715524712143000,-0.002888716757297516,0.018657147884368896,0.07206964492797852,9.268869400024414,0.2700321078300476,-3.1935536861419678
1403715524717143000,-0.0021852999925613403,0.015894733369350433,0.07626374065876007,9.276863098144531,0.31862032413482666,-3.2025272846221924
1403715524722143000,-0.0028941556811332703,0.020075436681509018,0.07986777275800705,9.21999454498291,0.3024623990058899,-3.1939704418182373
1403715524727143000,-0.004262931644916534,0.01796189323067665,0.07629050314426422,9.228178024291992,0.3351233899593353,-3.2103896141052246
1403715524732143000,-0.0007482655346393585,0.02214852347970009,0.07550838589668274,9.252721786499023,0.29426559805870056,-3.194303512573242
1403715524737143000,0.0013603568077087402,0.015126712620258331,0.078349769115448,9.309370040893555,0.3756183683872223,-3.177706241607666
1403715524742143000,-0.0035864561796188354,0.023536689579486847,0.07910101860761642,9.268815040588379,0.2945452332496643,-3.2267088890075684
1403715524747143000,-0.0007845908403396606,0.019377686083316803,0.07627134025096893,9.285064697265625,0.3346768617630005,-3.194533348083496
1403715524752143000,-8.957087993621826e-05,0.020754393190145493,0.07909500598907471,9.219873428344727,0.28601711988449097,-3.1774849891662598
1403715524757143000,-0.002872936427593231,0.01790551096200943,0.07488883286714554,9.309483528137207,0.31865325570106506,-3.1613922119140625
1403715524762143000,-0.0015024468302726746,0.017911721020936966,0.0762220248579979,9.252429008483887,0.2861277759075165,-3.14469051361084
1403715524767143000,-0.006400361657142639,0.023562587797641754,0.07556262612342834,9.24444580078125,0.3267422616481781,-3.2263271808624268
1403715524772143000,-0.006368301808834076,0.024960927665233612,0.07705803215503693,9.228245735168457,0.34344717860221863,-3.1290576457977295
1403715524777143000,-0.002141989767551422,0.019358601421117783,0.06857828795909882,9.358654022216797,0.2697959244251251,-3.2751901149749756
1403715524782143000,-0.009177584201097488,0.013022944331169128,0.07972627133131027,9.031621932983398,0.620712399482727,-3.120455741882324
1403715524787143000,-0.021041538566350937,0.016454540193080902,0.08331900835037231,9.456178665161133,0.564848005771637,-3.3070883750915527
1403715524792143000,-0.027433335781097412,0.024298325181007385,0.0861593559384346,9.227877616882324,0.22062817215919495,-3.162977457046509
1403715524797143000,-0.013313572853803635,0.010322093963623047,0.08752110600471497,9.285124778747559,-0.10008522868156433,-3.128840684890747
1403715524802143000,0.019664689898490906,0.03617103397846222,0.06849601864814758,9.392793655395508,-0.6210681200027466,-3.0896477699279785
1403715524807143000,0.05684436857700348,0.011660981923341751,0.07122562825679779,9.007916450500488,-0.08187313377857208,-3.062650442123413
1403715524812143000,0.06228127330541611,0.02332519367337227,0.043193355202674866,9.604122161865234,0.1903153508901596,-3.3254168033599854
1403715524817143000,0.03814791142940521,0.02897164225578308,0.05150921642780304,8.769388198852539,1.39762282371521,-3.0543620586395264
1403715524822143000,-0.01941712200641632,0.0008323080837726593,0.08119221776723862,9.388471603393555,1.7906666994094849,-3.5029637813568115
1403715524827143000,-0.08749286830425262,0.027738455682992935,0.0953623428940773,9.047575950622559,1.119816780090332,-3.1952321529388428
1403715524832143000,-0.1096189096570015,0.011782720685005188,0.1107037365436554,9.22781753540039,0.08605534583330154,-3.2166929244995117
1403715524837143000,-0.07079356163740158,0.017994843423366547,0.10568154603242874,9.393839836120605,-1.204562783241272,-2.9852163791656494
1403715524842143000,0.003301650285720825,0.027741562575101852,0.0858239233493805,9.302495956420898,-1.14629065990448,-3.0792901515960693
1403715524847143000,0.06558913737535477,0.009477753192186356,0.08093701303005219,9.236390113830566,-0.5717796087265015,-2.9680325984954834
1403715524852143000,0.08425222337245941,0.0164327509701252,0.05658756196498871,9.538195610046387,0.12483074516057968,-3.301058053970337
1403715524857143000,0.07772250473499298,0.04299516975879669,0.07355369627475739,9.095132827758789,0.9326776266098022,-3.2210700511932373
1403715524862143000,0.038169242441654205,0.01580211892724037,0.07491351664066315,9.112773895263672,1.0496407747268677,-3.25837779045105
1403715524867143000,0.004647254943847656,0.03596988320350647,0.08632911741733551,9.617996215820312,1.1303292512893677,-3.44809627532959
1403715524872143000,-0.03287454694509506,0.03053319826722145,0.09145089983940125,8.63135051727295,0.8179206848144531,-3.0527374744415283
1403715524877143000,-0.04662800580263138,0.010033488273620605,0.09363320469856262,9.978772163391113,0.5453547239303589,-3.46948504447937
1403715524882143000,-0.060215990990400314,0.05512872338294983,0.08694372326135635,8.55127239227295,0.22619150578975677,-2.834690570831299
1403715524887143000,-0.044339295476675034,-0.006520207971334457,0.08412536233663559,9.571305274963379,-0.09367344528436661,-3.4109292030334473
1403715524892143000,-0.0159698985517025,0.05579543113708496,0.06946580857038498,9.433951377868652,-0.5182754993438721,-2.996346950531006
1403715524897143000,0.021483246237039566,0.0040049441158771515,0.07435779273509979,8.753814697265625,-0.379431813955307,-3.0528082847595215
1403715524902143000,0.05103325843811035,0.026005908846855164,0.05932264029979706,9.728296279907227,-0.21227233111858368,-3.2641773223876953
1403715524907143000,0.05907581001520157,0.025000285357236862,0.06625459343194962,8.933836936950684,0.427075058221817,-3.071141242980957
1403715524912143000,0.04474349319934845,0.011554606258869171,0.06276068836450577,9.324034690856934,0.8941208124160767,-3.4057998657226562
1403715524917143000,0.01143278181552887,0.03541550040245056,0.06915578246116638,9.326231002807617,0.8532474040985107,-3.163038969039917
1403715524922143000,-0.0159464031457901,0.029803112149238586,0.07829725742340088,9.176648139953613,1.0627305507659912,-3.3291046619415283
1403715524927143000,-0.04401310160756111,0.025633443146944046,0.0869721844792366,9.163066864013672,0.4914168119430542,-3.112410306930542
1403715524932143000,-0.050762370228767395,0.03193406015634537,0.09463173896074295,9.220569610595703,0.2840251326560974,-3.1830170154571533
1403715524937143000,-0.041536226868629456,0.01582401990890503,0.0966963842511177,8.959367752075195,-0.11761046200990677,-3.0230062007904053
1403715524942143000,-0.01245487667620182,0.010888542979955673,0.095789834856987,9.392800331115723,-0.37013110518455505,-3.1700968742370605
1403715524947143000,0.01501312106847763,0.02147867903113365,0.0726175308227539,9.244681358337402,-0.23908187448978424,-3.1317760944366455
1403715524952143000,0.03739891201257706,0.0018881596624851227,0.07120682299137115,9.211942672729492,-0.07345583289861679,-3.1462934017181396
1403715524957143000,0.04577422887086868,0.02490881457924843,0.06362846493721008,9.603242874145508,0.32821202278137207,-3.245128870010376
1403715524962143000,0.03776818513870239,0.02352113649249077,0.07066299021244049,9.079506874084473,0.6473493576049805,-3.201652765274048
1403715524967143000,0.020086225122213364,0.022719968110322952,0.0762290209531784,9.438666343688965,0.8684547543525696,-3.3242032527923584
1403715524972143000,-0.008175678551197052,0.02978268265724182,0.08816592395305634,9.169897079467773,0.8267159461975098,-3.1441500186920166
1403715524977143000,-0.03202424198389053,0.015113525092601776,0.08597961813211441,9.129180908203125,0.6863476634025574,-3.231837511062622
1403715524982143000,-0.042407650500535965,0.017976880073547363,0.08175617456436157,9.351258277893066,0.276798814535141,-3.1862680912017822
1403715524987143000,-0.03802575170993805,0.01801261305809021,0.07281774282455444,9.318377494812012,-0.19848453998565674,-3.2433347702026367
1403715524992143000,-0.006878655403852463,0.02080056071281433,0.06663858890533447,9.326495170593262,-0.3462490141391754,-3.237761974334717
1403715524997143000,0.03542053699493408,0.02917715534567833,0.07289618253707886,9.375399589538574,-0.09940418601036072,-3.179619312286377
1403715525002143000,0.043032556772232056,0.03533390909433365,0.08331076800823212,9.145339965820312,0.5397971868515015,-3.19388747215271
1403715525007143000,0.015394307672977448,0.026068560779094696,0.08725529909133911,9.185104370117188,1.218461036682129,-3.1850461959838867
1403715525012143000,-0.030461587011814117,0.016308028250932693,0.1047319620847702,9.038651466369629,1.1943814754486084,-3.1345224380493164
1403715525017143000,-0.07667283713817596,0.014420945197343826,0.07952880859375,9.16281795501709,0.7843484878540039,-3.3474409580230713
1403715525022143000,-0.06946375966072083,0.008951298892498016,0.08740238845348358,9.466064453125,-0.19669109582901,-3.1802122592926025
1403715525027143000,-0.03640763834118843,0.030722174793481827,0.07512084394693375,9.2452974319458,-0.8184406161308289,-3.0803260803222656
1403715525032143000,0.037395916879177094,0.01727505773305893,0.05609947443008423,9.368715286254883,-1.2184548377990723,-3.1884303092956543
1403715525037143000,0.10259625315666199,0.03880921006202698,0.07069440931081772,9.38283920288086,-0.13970494270324707,-2.9425299167633057
1403715525042143000,0.10712401568889618,0.02605392038822174,0.06280520558357239,8.94039249420166,1.0661349296569824,-3.133133888244629
1403715525047143000,0.0633106380701065,-0.0008126106113195419,0.06169723719358444,9.079474449157715,1.7438839673995972,-3.2524960041046143
1403715525052143000,-0.020346857607364655,0.007841605693101883,0.07026320695877075,9.299490928649902,1.5846915245056152,-3.3815672397613525
1403715525057143000,-0.06709079444408417,0.00833660364151001,0.07913380861282349,9.3407564163208,0.8157585859298706,-3.3497812747955322
1403715525062143000,-0.0744931697845459,0.015451151877641678,0.0933372974395752,9.260674476623535,0.43169447779655457,-3.3241655826568604
1403715525067143000,-0.06317131221294403,0.027195949107408524,0.09188304096460342,9.367677688598633,-0.14029663801193237,-3.128843069076538
1403715525072143000,-0.03374301642179489,0.017286553978919983,0.09739550948143005,9.05690860748291,-0.452885240316391,-3.005702018737793
1403715525077143000,-0.004809446632862091,0.012926723808050156,0.07766681909561157,9.163602828979492,-0.3146224617958069,-3.1944236755371094
1403715525082143000,0.033273711800575256,0.008597902953624725,0.0865301564335823,9.367634773254395,-0.28554490208625793,-2.9932544231414795
1403715525087143000,0.04944232106208801,0.013787999749183655,0.07340425997972488,9.38308048248291,-0.2104826271533966,-3.2445688247680664
1403715525092143000,0.06282167136669159,0.013951174914836884,0.06493286043405533,9.520639419555664,0.4590360224246979,-3.3532803058624268
1403715525097143000,0.05613359808921814,0.0340103954076767,0.092311330139637,9.217732429504395,0.805972695350647,-3.1371004581451416
1403715525102143000,0.00931953638792038,0.019103500992059708,0.08864539116621017,9.200499534606934,1.3516981601715088,-3.3474884033203125
1403715525107143000,-0.03235035389661789,0.023938223719596863,0.08858667314052582,9.445932388305664,0.9989235997200012,-3.1527390480041504
1403715525112143000,-0.06177975609898567,0.03398318588733673,0.0966043472290039,8.762434959411621,0.7017606496810913,-2.975939989089966
1403715525117143000,-0.06826518476009369,0.0012349225580692291,0.08272477239370346,9.287525177001953,0.12865328788757324,-3.224694013595581
1403715525122143000,-0.041976623237133026,0.017977256327867508,0.08120410889387131,9.491094589233398,-0.3709390461444855,-3.1875205039978027
1403715525127143000,-0.0080462247133255,0.026475366204977036,0.06934043765068054,9.268203735351562,-0.32246819138526917,-3.2279796600341797
1403715525132143000,0.027767084538936615,0.025024089962244034,0.06308770179748535,9.261926651000977,-0.361070841550827,-3.1570522785186768
1403715525137143000,0.04586542397737503,0.03811989724636078,0.07142944633960724,9.342461585998535,0.08998315781354904,-3.129608154296875
1403715525142143000,0.047028712928295135,0.02482737973332405,0.061350420117378235,9.02312183380127,0.5332715511322021,-3.184908866882324
1403715525147143000,0.03635711967945099,0.0037490874528884888,0.06626856327056885,9.374526977539062,0.6982989311218262,-3.1779463291168213
1403715525152143000,0.010845642536878586,0.01847342774271965,0.06999053806066513,9.03233528137207,0.8271151781082153,-3.200049638748169
1403715525157143000,-0.02225041389465332,0.004684600979089737,0.07340873777866364,9.333588600158691,0.8346866369247437,-3.2910501956939697
1403715525162143000,-0.0411192961037159,0.0224149227142334,0.08404698967933655,9.472346305847168,0.49951937794685364,-3.333200693130493
1403715525167143000,-0.05362073704600334,0.026524513959884644,0.08627896755933762,9.178009033203125,0.2923985421657562,-3.186347723007202
1403715525172143000,-0.03650520741939545,0.02769671007990837,0.09461426734924316,9.138971328735352,-0.051110778003931046,-3.0799458026885986
1403715525177143000,-0.013210887089371681,0.018514864146709442,0.08957366645336151,9.253680229187012,-0.4350068271160126,-3.0559229850769043
1403715525182143000,0.01572936773300171,0.015703406184911728,0.08239594846963882,9.081452369689941,-0.2638776898384094,-3.112696409225464
1403715525187143000,0.033970095217227936,0.010965857654809952,0.08807103335857391,9.399826049804688,0.1556815505027771,-3.252758741378784
1403715525192143000,0.03445660322904587,0.01384587213397026,0.08253364264965057,9.333669662475586,0.4519312083721161,-3.220163106918335
1403715525197143000,0.0153326615691185,0.022134162485599518,0.07886716723442078,9.348454475402832,0.8260907530784607,-3.243104934692383
1403715525202143000,-0.010103043168783188,0.017211250960826874,0.09026407450437546,9.454843521118164,0.6473671793937683,-3.193999767303467
1403715525207143000,-0.023570602759718895,0.01860348880290985,0.0882996916770935,9.113360404968262,0.09932117164134979,-3.0948214530944824
1403715525212143000,-0.001697823405265808,0.012916918843984604,0.08743445575237274,9.212760925292969,-0.27923262119293213,-3.0792176723480225
1403715525217143000,0.034224577248096466,0.010888725519180298,0.07124055922031403,9.40906810760498,-0.3930467665195465,-3.27583909034729
1403715525222143000,0.04821770638227463,0.02430461347103119,0.062863789498806,9.309208869934082,0.24472472071647644,-3.1054697036743164
1403715525227143000,0.03692254424095154,0.017987702041864395,0.056477140635252,9.349491119384766,0.9399999380111694,-3.438354730606079
1403715525232143000,-0.0023395568132400513,0.03037186712026596,0.0627189576625824,9.315011978149414,1.494604468345642,-3.3522531986236572
1403715525237143000,-0.061973556876182556,0.03178349882364273,0.08333779126405716,9.078232765197754,1.3789572715759277,-3.2655417919158936
1403715525242143000,-0.10179910808801651,0.017190951853990555,0.08637483417987823,9.064459800720215,0.7496792674064636,-3.1026926040649414
1403715525247143000,-0.0917290598154068,0.020072005689144135,0.11071731895208359,9.066761016845703,-0.3292091190814972,-2.9719345569610596
1403715525252143000,-0.04942826181650162,0.004647374153137207,0.08951611071825027,9.304213523864746,-1.0902005434036255,-3.2515134811401367
1403715525257143000,0.02354208379983902,0.017270732671022415,0.08932555466890335,9.482051849365234,-0.8845160007476807,-2.888787269592285
1403715525262143000,0.06414830684661865,0.020081963390111923,0.06565294414758682,9.36660099029541,-0.08787089586257935,-3.315610647201538
1403715525267143000,0.0785883441567421,0.017921097576618195,0.04812296852469444,9.121528625488281,0.4860827624797821,-3.099724292755127
1403715525272143000,0.06297396123409271,0.030335672199726105,0.07411704957485199,9.340128898620605,1.0802381038665771,-3.2167325019836426
1403715525277143000,0.01780417561531067,0.02125738561153412,0.07003501057624817,9.250338554382324,0.9675363302230835,-3.202436685562134
1403715525282143000,-0.01588248461484909,0.02755606174468994,0.09353893995285034,9.030375480651855,1.1945663690567017,-3.190537929534912
1403715525287143000,-0.05323411151766777,0.005403060466051102,0.09025634080171585,9.082174301147461,0.6635727882385254,-3.0769119262695312
1403715525292143000,-0.056504178792238235,0.011692743748426437,0.10625941306352615,9.203871726989746,0.4630710780620575,-3.101137161254883
1403715525297143000,-0.061398956924676895,-0.005055146291851997,0.07136237621307373,9.51414680480957,-0.2075485736131668,-3.2352683544158936
1403715525302143000,-0.028672242537140846,0.008897483348846436,0.07983182370662689,9.195419311523438,-0.06941109150648117,-3.081116199493408
1403715525307143000,0.0009330436587333679,0.008239958435297012,0.06547530740499496,9.368224143981934,-0.6379650235176086,-3.090123176574707
1403715525312143000,0.036333151161670685,0.008182957768440247,0.06375175714492798,9.505476951599121,-0.1582845151424408,-3.294344425201416
1403715525317143000,0.06349361687898636,0.021412819623947144,0.06914757192134857,9.251022338867188,0.09968514740467072,-3.0900540351867676
1403715525322143000,0.05612979829311371,0.011562466621398926,0.0732954740524292,9.194549560546875,0.7060938477516174,-3.1847164630889893
1403715525327143000,0.029068738222122192,0.002467118203639984,0.07528383284807205,8.958487510681152,1.0742062330245972,-3.2175426483154297
1403715525332143000,-0.018161114305257797,-0.0003260672092437744,0.07390668988227844,9.536593437194824,0.9746537804603577,-3.315476894378662
1403715525337143000,-0.042553164064884186,0.02088388428092003,0.0804288312792778,9.30810260772705,0.7932621836662292,-3.4065682888031006
1403715525342143000,-0.05579189956188202,0.00629236176609993,0.08149640262126923,9.08941650390625,0.3910972476005554,-3.1946117877960205
1403715525347143000,-0.043472614139318466,0.02494807541370392,0.09182505309581757,9.547518730163574,0.030863717198371887,-3.3736093044281006
1403715525352143000,-0.022373776882886887,0.02923165261745453,0.0861787423491478,9.04001522064209,-0.24017731845378876,-3.122887134552002
1403715525357143000,0.004454698413610458,0.0192791149020195,0.08320465683937073,9.187599182128906,-0.2148645520210266,-3.16996169090271
1403715525362143000,0.02480056881904602,0.028998229652643204,0.07048922777175903,9.09135913848877,-0.008458965457975864,-3.0896060466766357
1403715525367143000,0.040859997272491455,0.003924921154975891,0.07822014391422272,9.154926300048828,0.20551593601703644,-3.1694276332855225
1403715525372143000,0.03021371364593506,0.0172693133354187,0.062243200838565826,9.529961585998535,0.4263034760951996,-3.3021106719970703
1403715525377143000,0.023668158799409866,0.023543700575828552,0.07275398820638657,9.129132270812988,0.688456118106842,-3.20241117477417
1403715525382143000,0.0045819394290447235,0.019258424639701843,0.07349590212106705,9.447175979614258,0.7786881327629089,-3.316007375717163
1403715525387143000,-0.017943568527698517,0.0298483744263649,0.07126223295927048,9.332969665527344,0.7202454209327698,-3.283628463745117
1403715525392143000,-0.029185127466917038,0.029104560613632202,0.0832594707608223,9.13705825805664,0.41637468338012695,-3.151858329772949
1403715525397143000,-0.018498891964554787,0.017147239297628403,0.09047087281942368,9.1232271194458,-0.01799084059894085,-3.005380392074585
1403715525402143000,-0.007051382213830948,0.009501233696937561,0.08198259770870209,9.017175674438477,0.0630655586719513,-2.9876184463500977
1403715525407143000,-0.010448873043060303,-0.007912907749414444,0.07472548633813858,9.260838508605957,0.48156559467315674,-3.3070144653320312
1403715525412143000,-0.020886827260255814,0.011093102395534515,0.07472943514585495,9.415104866027832,0.6543053388595581,-3.449718713760376
1403715525417143000,-0.03568609803915024,0.011864058673381805,0.07077345997095108,9.235787391662598,0.24425385892391205,-3.270801067352295
1403715525422143000,-0.025752680376172066,0.032045453786849976,0.08830557763576508,9.359066009521484,-0.1733807474374771,-3.285698413848877
1403715525427143000,0.011995390057563782,0.022238004952669144,0.07716058194637299,9.204068183898926,-0.6607027649879456,-2.9020497798919678
1403715525432143000,0.061807334423065186,0.021277591586112976,0.08043131977319717,9.122360229492188,-0.5867047905921936,-2.930447578430176
1403715525437143000,0.09805062413215637,0.011415492743253708,0.06688868254423141,9.212926864624023,-0.05536552891135216,-3.063102960586548
1403715525442143000,0.08503217250108719,-0.006752457469701767,0.05891945958137512,9.080192565917969,1.1792482137680054,-3.2334511280059814
1403715525447143000,0.023838646709918976,0.007903553545475006,0.06334125250577927,9.380173683166504,1.8904376029968262,-3.4500200748443604
1403715525452143000,-0.04777941852807999,0.010292969644069672,0.0714012160897255,9.290324211120605,1.4954149723052979,-3.408104181289673
1403715525457143000,-0.08591821789741516,0.019438795745372772,0.08139729499816895,9.438150405883789,0.7392085790634155,-3.308509111404419
1403715525462143000,-0.08416891098022461,0.020823728293180466,0.09540440887212753,9.008173942565918,-0.0038519352674484253,-3.1114821434020996
1403715525467143000,-0.06508137285709381,0.02001035213470459,0.07835090160369873,9.32749080657959,-0.5089715123176575,-3.0461583137512207
1403715525472143000,-0.012295257300138474,0.011589113622903824,0.09016267210245132,9.310354232788086,-0.4614003598690033,-2.9817514419555664
1403715525477143000,0.022084854543209076,0.014424998313188553,0.05944880098104477,9.399948120117188,-0.46776363253593445,-3.227940082550049
1403715525482143000,0.05296672135591507,0.015998579561710358,0.05518002063035965,9.106225967407227,0.179591104388237,-3.0826985836029053
1403715525487143000,0.05913052707910538,0.01663855090737343,0.06450796872377396,9.432275772094727,0.2816760540008545,-3.382814645767212
1403715525492143000,0.042795538902282715,0.02907285839319229,0.054600849747657776,9.30836296081543,0.5591220855712891,-3.205493688583374
1403715525497143000,0.020774394273757935,0.019860252737998962,0.06758660078048706,9.038473129272461,1.1056053638458252,-3.240328788757324
1403715525502143000,-0.012435734272003174,0.017674557864665985,0.07745738327503204,9.243352890014648,1.270371437072754,-3.3319709300994873
1403715525507143000,-0.04974594712257385,0.03187163174152374,0.09165576845407486,9.210962295532227,0.7941679954528809,-3.1922895908355713
1403715525512143000,-0.06782177835702896,0.018745291978120804,0.09175793826580048,9.284492492675781,0.4456259310245514,-3.184164047241211
1403715525517143000,-0.06049530580639839,0.018072620034217834,0.08618906140327454,9.123440742492676,-0.1409878432750702,-3.079763650894165
1403715525522143000,-0.02855078876018524,0.01168355718255043,0.08908111602067947,9.082840919494629,-0.5092087388038635,-3.1126034259796143
1403715525527143000,0.014481984078884125,0.0052676573395729065,0.08400679379701614,9.416627883911133,-0.44468972086906433,-3.139986753463745
1403715525532143000,0.045331984758377075,0.013704545795917511,0.05638674646615982,9.325780868530273,-0.04954531416296959,-3.245100975036621
1403715525537143000,0.05775758624076843,0.017234977334737778,0.06981953978538513,9.308857917785645,0.4680885076522827,-3.3024284839630127
1403715525542143000,0.041283950209617615,0.02498708665370941,0.06647650897502899,9.471809387207031,0.7791306376457214,-3.309814929962158
1403715525547143000,0.017189472913742065,0.02979133650660515,0.07812895625829697,9.152180671691895,1.023891568183899,-3.258655071258545
1403715525552143000,-0.020173966884613037,0.016397278755903244,0.08111889660358429,9.014949798583984,0.9091269969940186,-3.1341891288757324
1403715525557143000,-0.03828787803649902,0.015050742775201797,0.09107517451047897,9.236536979675293,0.6541042327880859,-3.199521541595459
1403715525562143000,-0.04384232312440872,0.011717136949300766,0.09598435461521149,9.17940902709961,0.16228796541690826,-3.1854143142700195
1403715525567143000,-0.03448353707790375,0.0075531527400016785,0.07542315125465393,9.391910552978516,-0.04349813237786293,-3.2603893280029297
1403715525572143000,-0.021010369062423706,0.011784989386796951,0.06432420015335083,9.294123649597168,-0.10793977975845337,-3.180182933807373
1403715525577143000,0.0016031526029109955,0.016633447259664536,0.051284030079841614,9.26918888092041,-0.1233944371342659,-3.1546595096588135
1403715525582143000,0.021409422159194946,0.01721196621656418,0.06374311447143555,9.39086627960205,0.1707109808921814,-3.2118096351623535
1403715525587143000,0.02620021253824234,0.0241498202085495,0.07426821440458298,9.259657859802246,0.4342038333415985,-3.1943905353546143
1403715525592143000,0.0216820165514946,0.015113387256860733,0.08970621228218079,8.942349433898926,0.5418624877929688,-3.0211398601531982
1403715525597143000,0.004011392593383789,0.007425040006637573,0.08382012695074081,9.22843074798584,0.7612423896789551,-3.2157745361328125
1403715525602143000,-0.017749931663274765,0.008092328906059265,0.08705540001392365,9.528549194335938,0.7943456768989563,-3.4146149158477783
1403715525607143000,-0.04736623540520668,0.01875588297843933,0.06975914537906647,9.234642028808594,0.6384674310684204,-3.2436716556549072
1403715525612143000,-0.05145125463604927,0.020233720541000366,0.05892673879861832,9.400399208068848,-0.03353435546159744,-3.2357869148254395
1403715525617143000,-0.02038273774087429,0.022234532982110977,0.0641244500875473,9.123350143432617,-0.6644893288612366,-3.170964241027832
1403715525622143000,0.030357331037521362,0.02630152553319931,0.06890998780727386,9.146933555603027,-0.5494687557220459,-3.023228645324707
1403715525627143000,0.07523752748966217,0.014969579875469208,0.08041301369667053,9.228888511657715,-0.14569087326526642,-3.137098789215088
1403715525632143000,0.07638111710548401,0.019835159182548523,0.0800747349858284,9.072678565979004,0.834953248500824,-3.308603286743164
1403715525637143000,0.03822420537471771,0.013550933450460434,0.07708632200956345,9.153058052062988,1.5129824876785278,-3.3260066509246826
1403715525642143000,-0.039077408611774445,0.007188715040683746,0.0898352563381195,9.509944915771484,1.7898406982421875,-3.530634880065918
1403715525647143000,-0.10501694679260254,0.01867217943072319,0.08891642838716507,9.143758773803711,1.070500135421753,-3.3335227966308594
1403715525652143000,-0.122149258852005,0.02156694605946541,0.08925681561231613,9.33445930480957,0.07897122204303741,-3.2016842365264893
1403715525657143000,-0.07482220232486725,0.015220999717712402,0.10185004770755768,9.246103286743164,-0.959355890750885,-3.1054983139038086
1403715525662143000,-0.007393628358840942,0.03198918700218201,0.08477234840393066,9.12280559539795,-1.2858244180679321,-2.844043493270874
1403715525667143000,0.06286466121673584,0.008758239448070526,0.07936427742242813,9.400568962097168,-0.6219592690467834,-3.1455142498016357
1403715525672143000,0.08648347109556198,0.018540043383836746,0.054230112582445145,9.317819595336914,0.141737163066864,-3.2709245681762695
1403715525677143000,0.07504384219646454,0.036057040095329285,0.049417898058891296,9.397917747497559,0.787760317325592,-3.327202558517456
1403715525682143000,0.04532952606678009,0.0241975337266922,0.053787365555763245,9.063033103942871,1.2933297157287598,-3.202988624572754
1403715525687143000,-0.005341939628124237,0.02764427661895752,0.05733256787061691,9.153429985046387,1.1969656944274902,-3.2977118492126465
1403715525692143000,-0.03836647421121597,0.024062179028987885,0.08201606571674347,9.22713565826416,0.9247404336929321,-3.249134063720703
1403715525697143000,-0.06164935976266861,0.011591829359531403,0.08066138625144958,9.350398063659668,0.35823652148246765,-3.298292875289917
1403715525702143000,-0.05862889438867569,0.0256756991147995,0.07824859768152237,9.139240264892578,0.20930953323841095,-3.144608736038208
1403715525707143000,-0.04641542211174965,0.013845261186361313,0.07202913612127304,9.474310874938965,-0.16610100865364075,-3.316235065460205
1403715525712143000,-0.019488971680402756,0.022367287427186966,0.061749786138534546,9.130577087402344,-0.420399010181427,-2.993180751800537
1403715525717143000,0.022955626249313354,0.026344619691371918,0.06106773763895035,9.269471168518066,-0.5016898512840271,-3.1212034225463867
1403715525722143000,0.05031094700098038,0.01426946371793747,0.06664758920669556,9.24524211883545,-0.16364507377147675,-3.156162738800049
1403715525727143000,0.06124276667833328,0.021353483200073242,0.07064627856016159,9.186846733093262,0.35459795594215393,-3.1125335693359375
1403715525732143000,0.054526135325431824,0.012961003929376602,0.08093108236789703,9.267961502075195,0.7553343176841736,-3.1363682746887207
1403715525737143000,0.020561031997203827,0.010881982743740082,0.0765528678894043,9.30017375946045,1.0078495740890503,-3.3890180587768555
1403715525742143000,-0.00693187490105629,0.023530755192041397,0.07811103016138077,9.267133712768555,0.949592113494873,-3.2103078365325928
1403715525747143000,-0.042732708156108856,0.023599516600370407,0.08969783037900925,9.2110013961792,0.6949843168258667,-3.2077176570892334
1403715525752143000,-0.058600760996341705,0.024333052337169647,0.08212680369615555,9.15499496459961,0.33332568407058716,-3.119351863861084
1403715525757143000,-0.04217145964503288,0.022078149020671844,0.09886766970157623,9.375627517700195,-0.20740680396556854,-3.1034584045410156
1403715525762143000,-0.01032559759914875,0.026979360729455948,0.09740714728832245,9.195751190185547,-0.3961115777492523,-3.1217010021209717
1403715525767143000,0.01076538860797882,0.013804741203784943,0.07747749239206314,8.927192687988281,-0.15709666907787323,-3.080595016479492
1403715525772143000,0.03394927829504013,0.014363009482622147,0.06891857087612152,9.490531921386719,0.025318915024399757,-3.260800838470459
1403715525777143000,0.04219561815261841,0.013079214841127396,0.061494290828704834,9.317230224609375,0.08242371678352356,-3.204988718032837
1403715525782143000,0.036455363035202026,0.012370578944683075,0.05034695565700531,9.267865180969238,0.6214394569396973,-3.300469398498535
1403715525787143000,0.015207972377538681,0.02338690310716629,0.06581883877515793,9.382059097290039,1.0168771743774414,-3.1696739196777344
1403715525792143000,-0.013047870248556137,0.03128039836883545,0.07436279952526093,9.129048347473145,0.7631726264953613,-3.28116512298584
1403715525797143000,-0.020073451101779938,0.017261076718568802,0.0749729797244072,9.47270679473877,0.06355740129947662,-3.1139278411865234
1403715525802143000,-0.014305921271443367,0.033283770084381104,0.08242721110582352,9.162948608398438,0.18474556505680084,-3.1918835639953613
1403715525807143000,-0.01844448782503605,0.015872739255428314,0.06145023554563522,9.073784828186035,0.32839909195899963,-3.177610397338867
1403715525812143000,-0.01891772821545601,0.010214775800704956,0.06716790795326233,9.4487943649292,0.4818862974643707,-3.292167901992798
1403715525817143000,-0.03214011713862419,0.03132954239845276,0.07154902815818787,9.112570762634277,0.6991751790046692,-3.3012022972106934
1403715525822143000,-0.04547381401062012,0.006179973483085632,0.08428872376680374,9.195514678955078,0.25221261382102966,-3.0973191261291504
1403715525827143000,-0.03688865527510643,0.023541368544101715,0.09047137200832367,9.38424015045166,-0.06596391648054123,-3.3003499507904053
1403715525832143000,0.0029884055256843567,0.0158342644572258,0.09095070511102676,8.975485801696777,-0.8170259594917297,-2.894700288772583
1403715525837143000,0.05492588132619858,0.00025967881083488464,0.06677627563476562,9.613805770874023,-1.029902696609497,-3.2517342567443848
1403715525842143000,0.10103917121887207,0.032586775720119476,0.06258149445056915,9.34221363067627,-0.01563289389014244,-3.1809749603271484
1403715525847143000,0.0936392992734909,0.014968618750572205,0.04932142049074173,9.257990837097168,1.4029462337493896,-3.3813424110412598
1403715525852143000,0.04209337383508682,0.036622144281864166,0.054431281983852386,9.330986976623535,1.8179638385772705,-3.2133095264434814
1403715525857143000,-0.047343626618385315,0.015606909990310669,0.08898334950208664,8.743870735168457,1.7522629499435425,-3.2308430671691895
1403715525862143000,-0.09944220632314682,0.017084896564483643,0.06731894612312317,9.627745628356934,0.6349528431892395,-3.3487720489501953
1403715525867143000,-0.08774153888225555,0.01879282295703888,0.10635248571634293,8.869912147521973,-0.09269183874130249,-3.1198902130126953
1403715525872143000,-0.0628797709941864,0.01375722885131836,0.0699511170387268,9.621609687805176,-0.6574013233184814,-3.244089126586914
1403715525877143000,-0.0023627206683158875,0.029941033571958542,0.08936680108308792,9.449593544006348,-0.5596534013748169,-3.2538866996765137
1403715525882143000,0.020593959838151932,0.027185339480638504,0.054757844656705856,9.186239242553711,-0.1653345823287964,-3.1795523166656494
1403715525887143000,0.05090051144361496,0.030322488397359848,0.06998856365680695,9.61172866821289,0.025018827989697456,-3.3605892658233643
1403715525892143000,0.05130273848772049,0.03880458325147629,0.06318876147270203,8.95031452178955,0.24768543243408203,-3.1141483783721924
1403715525897143000,0.04288886487483978,0.028283432126045227,0.07324632257223129,9.0885009765625,0.9014346599578857,-3.1506965160369873
1403715525902143000,0.016680266708135605,0.01990455761551857,0.08091966062784195,9.399658203125,0.8145856857299805,-3.2342143058776855
1403715525907143000,-0.010337326675653458,0.029115140438079834,0.08802063763141632,9.071545600891113,0.8592828512191772,-3.3969085216522217
1403715525912143000,-0.04132138937711716,0.029136572033166885,0.07960274815559387,9.3582181930542,0.7595852017402649,-3.25215482711792
1403715525917143000,-0.058711353689432144,0.034761376678943634,0.08045180886983871,9.252386093139648,0.6375123858451843,-3.200319766998291
1403715525922143000,-0.05634442716836929,0.030596420168876648,0.08077909797430038,8.967277526855469,-0.07490929216146469,-3.087224245071411
1403715525927143000,-0.02214961126446724,0.028322730213403702,0.09049072116613388,9.53151798248291,-0.381610244512558,-3.227449417114258
1403715525932143000,0.008073978126049042,0.043084241449832916,0.08620720356702805,9.065208435058594,-0.5336920022964478,-3.000180244445801
1403715525937143000,0.033306658267974854,0.019954722374677658,0.07822912931442261,9.049185752868652,0.09808816015720367,-3.021303653717041
1403715525942143000,0.04220236837863922,0.015766963362693787,0.07395084947347641,9.311053276062012,0.2072030007839203,-3.0719289779663086
1403715525947143000,0.02865844964981079,0.015880119055509567,0.05845867842435837,9.145593643188477,0.6138484477996826,-3.299238920211792
1403715525952143000,0.013786975294351578,0.005245864391326904,0.05720757693052292,9.406511306762695,0.7704098224639893,-3.2693567276000977
1403715525957143000,-0.006661225110292435,0.02490014210343361,0.06879473477602005,9.210938453674316,0.8689757585525513,-3.2170960903167725
1403715525962143000,-0.02992025390267372,0.0202164426445961,0.07875223457813263,9.073001861572266,0.41019389033317566,-3.0780577659606934
1403715525967143000,-0.03187010809779167,0.019446615129709244,0.09176024794578552,9.2693452835083,0.2832026183605194,-3.2163004875183105
1403715525972143000,-0.02958572283387184,0.032557301223278046,0.09861493855714798,9.374330520629883,0.1784546822309494,-3.1455740928649902
1403715525977143000,-0.02385626547038555,0.01581578329205513,0.09086823463439941,8.999616622924805,0.13005340099334717,-3.128197193145752
1403715525982143000,-0.017417244613170624,0.006753459572792053,0.07681797444820404,9.449519157409668,-0.01803075708448887,-3.20432710647583
1403715525987143000,0.002286527305841446,0.018060117959976196,0.06014689803123474,9.171487808227539,-0.27155858278274536,-3.154951333999634
1403715525992143000,0.029076531529426575,0.015221778303384781,0.06098778918385506,9.415452003479004,-0.025044316425919533,-3.2693731784820557
1403715525997143000,0.038642145693302155,0.018661189824342728,0.07089972496032715,9.113838195800781,0.38617992401123047,-3.031566619873047
1403715526002143000,0.024356357753276825,0.017152853310108185,0.06290772557258606,9.423622131347656,0.5097221732139587,-3.396592140197754
1403715526007143000,0.019362740218639374,0.024158362299203873,0.07748866826295853,9.365482330322266,0.670050859451294,-3.270033359527588
1403715526012143000,0.0018360204994678497,0.031117849051952362,0.08731665462255478,9.437755584716797,0.8743716478347778,-3.3071305751800537
1403715526017143000,-0.03694646805524826,0.03541095554828644,0.0831110030412674,8.876715660095215,0.843114972114563,-3.078420877456665
1403715526022143000,-0.057183727622032166,0.01105574145913124,0.07773085683584213,9.237253189086914,0.32602980732917786,-3.1506338119506836
1403715526027143000,-0.03501260280609131,0.022829383611679077,0.08003826439380646,9.440803527832031,-0.1675979346036911,-3.178858757019043
1403715526032143000,-0.0039579905569553375,0.019320987164974213,0.08633045107126236,8.950711250305176,-0.22337718307971954,-3.12917160987854
1403715526037143000,0.01700226217508316,0.01087045669555664,0.0775938630104065,9.368498802185059,0.024637458845973015,-3.089388132095337
1403715526042143000,0.023913785815238953,0.021477509289979935,0.06835337728261948,9.399805068969727,0.15598897635936737,-3.2677721977233887
1403715526047143000,0.032392412424087524,0.03198473900556564,0.06848698854446411,9.413838386535645,0.35887277126312256,-3.3104476928710938
1403715526052143000,0.025909297168254852,0.03397216647863388,0.0768701359629631,9.300788879394531,0.540188729763031,-3.260183572769165
1403715526057143000,0.00040131062269210815,0.031750865280628204,0.06350371241569519,9.015451431274414,0.8686776757240295,-3.028658151626587
1403715526062143000,-0.01223951205611229,0.012983597815036774,0.08622009307146072,9.040645599365234,0.607124924659729,-3.1328439712524414
1403715526067143000,-0.015641866251826286,0.015827521681785583,0.08356910943984985,9.457029342651367,0.21114295721054077,-3.2184019088745117
1403715526072143000,-0.01639101281762123,0.0081741102039814,0.09014633297920227,8.999465942382812,0.3655746281147003,-3.2426302433013916
1403715526077143000,-0.02198680490255356,0.006106887012720108,0.0704735815525055,9.384208679199219,0.2627285420894623,-3.252650737762451
1403715526082143000,-0.01118314266204834,0.022334467619657516,0.08328010886907578,9.252592086791992,0.30174678564071655,-3.1865479946136475
1403715526087143000,-0.0062424130737781525,0.014544986188411713,0.06388600915670395,9.178762435913086,-0.09212245792150497,-3.0805411338806152
1403715526092143000,0.013530995696783066,0.013571999967098236,0.06918655335903168,9.481287002563477,0.08808925747871399,-3.202906847000122
1403715526097143000,0.019659373909235,0.021394066512584686,0.06658390909433365,9.130204200744629,0.12462198734283447,-3.121079206466675
1403715526102143000,0.030194170773029327,0.014510039240121841,0.08687367290258408,9.113729476928711,0.5000070333480835,-3.209195613861084
1403715526107143000,0.02018284797668457,0.020792528986930847,0.08807703107595444,9.415922164916992,0.4914170801639557,-3.3010683059692383
1403715526112143000,-0.0017352886497974396,0.025651782751083374,0.08365155756473541,9.185284614562988,0.8332384824752808,-3.2262661457061768
1403715526117143000,-0.021410752087831497,0.01728244125843048,0.07970252633094788,9.309311866760254,0.45139774680137634,-3.259305953979492
1403715526122143000,-0.028284136205911636,0.02144526317715645,0.06159309670329094,9.0985107421875,0.29349932074546814,-3.17777156829834
1403715526127143000,-0.024699410423636436,0.0046129003167152405,0.06584528088569641,9.017073631286621,-0.11533579230308533,-3.136375665664673
1403715526132143000,-0.008316144347190857,0.016526587307453156,0.07373718172311783,9.514514923095703,0.02298927493393421,-3.350130558013916
1403715526137143000,0.007103476673364639,0.029244553297758102,0.08495631068944931,9.341756820678711,-0.04841107875108719,-3.18886137008667
1403715526142143000,0.01760181039571762,0.022924669086933136,0.08110470324754715,9.064661026000977,0.3670355975627899,-3.185621738433838
1403715526147143000,0.018970228731632233,0.026273246854543686,0.08292374014854431,9.3997802734375,0.4586848020553589,-3.2114791870117188
1403715526152143000,0.010475415736436844,0.03530241549015045,0.07743845134973526,9.422319412231445,0.42548370361328125,-3.1939499378204346
1403715526157143000,0.004063248634338379,0.026262670755386353,0.0713333785533905,9.063764572143555,0.4415261447429657,-3.078908920288086
1403715526162143000,-0.00657021626830101,0.011608753353357315,0.07155738025903702,9.009435653686523,0.36839818954467773,-3.110316753387451
1403715526167143000,-0.012779772281646729,0.010936494916677475,0.07720242440700531,9.375545501708984,0.49068278074264526,-3.340064764022827
1403715526172143000,-0.014191336929798126,0.01595120131969452,0.08968208730220795,9.349321365356445,0.3181849420070648,-3.3016810417175293
1403715526177143000,-0.011991817504167557,0.02423866093158722,0.07678587734699249,9.480304718017578,0.25194472074508667,-3.2528297901153564
1403715526182143000,-0.009194906800985336,0.024990402162075043,0.07677703350782394,8.967619895935059,0.2604420781135559,-3.120243549346924
1403715526187143000,-0.0027073733508586884,0.02006036415696144,0.07133370637893677,9.456548690795898,0.32673799991607666,-3.274904489517212
1403715526192143000,0.0035661496222019196,0.03470240533351898,0.06722144037485123,9.170607566833496,0.14717744290828705,-3.0887398719787598
1403715526197143000,0.006277251988649368,0.0094633549451828,0.06942424923181534,8.983609199523926,0.2277124673128128,-3.0945003032684326
1403715526202143000,0.01468224823474884,0.0073890239000320435,0.07861047238111496,9.303391456604004,0.21313272416591644,-3.1210010051727295
1403715526207143000,0.009711302816867828,0.013897005468606949,0.08120833337306976,9.260430335998535,0.426087886095047,-3.2749199867248535
1403715526212143000,-0.0016018040478229523,0.007528003305196762,0.07954950630664825,9.332844734191895,0.5238616466522217,-3.195518970489502
1403715526217143000,-0.010031228885054588,0.013712335377931595,0.07254956662654877,9.464531898498535,0.36800116300582886,-3.333160161972046
1403715526222143000,-0.007801808416843414,0.02983764559030533,0.08191293478012085,9.275784492492676,0.42416152358055115,-3.162372589111328
1403715526227143000,-0.014850689098238945,0.02226387709379196,0.07503489404916763,9.17904281616211,0.2047499120235443,-3.2087857723236084
1403715526232143000,-0.009182175621390343,0.023460257798433304,0.07212556153535843,9.261070251464844,0.23679190874099731,-3.0718183517456055
1403715526237143000,0.0027500875294208527,0.01576964557170868,0.07640045881271362,9.155311584472656,-0.08210111409425735,-3.1928303241729736
1403715526242143000,0.014852285385131836,0.015157900750637054,0.08817128837108612,9.440049171447754,0.32545006275177,-3.252830982208252
1403715526247143000,0.006900526583194733,0.019417833536863327,0.08947192132472992,9.129934310913086,0.3693157434463501,-3.153402328491211
1403715526252143000,-0.0008001253008842468,0.015811078250408173,0.08097561448812485,9.37427806854248,0.5724326968193054,-3.292013168334961
1403715526257143000,-0.003574434667825699,0.020079229027032852,0.07693704962730408,9.37458610534668,0.28589507937431335,-3.2608630657196045
1403715526262143000,-0.005629409104585648,0.029104217886924744,0.06641701608896255,9.439142227172852,0.30955296754837036,-3.3168957233428955
1403715526267143000,-0.00014826655387878418,0.02839379385113716,0.07067076116800308,8.991833686828613,0.2625427544116974,-3.063643455505371
1403715526272143000,-0.0071776993572711945,0.015112761408090591,0.06525824218988419,9.180153846740723,0.392499715089798,-3.0769686698913574
1403715526277143000,-0.0007562190294265747,0.01793557032942772,0.07857588678598404,9.293856620788574,0.22875946760177612,-3.283389091491699
1403715526282143000,0.00341932475566864,0.024285629391670227,0.08824347704648972,9.211413383483887,0.24359895288944244,-3.2198903560638428
1403715526287143000,0.0006750263273715973,0.020053401589393616,0.08865659683942795,9.268911361694336,0.5065085291862488,-3.2189085483551025
1403715526292143000,-0.011308901011943817,0.020043455064296722,0.08871989697217941,9.130245208740234,0.5242685079574585,-3.1446735858917236
1403715526297143000,-0.018305934965610504,0.011647216975688934,0.07345952838659286,9.333698272705078,0.3429553508758545,-3.144334077835083
1403715526302143000,-0.008427632972598076,0.017903774976730347,0.06646806001663208,9.318038940429688,-0.026187686249613762,-3.219067335128784
1403715526307143000,0.004206422716379166,0.01440436765551567,0.06306980550289154,9.171323776245117,0.13856491446495056,-3.14563250541687
1403715526312143000,0.011187095195055008,0.018706683069467545,0.07575448602437973,9.21243667602539,0.3042287826538086,-3.1196296215057373
1403715526317143000,0.0139436274766922,0.016687598079442978,0.07358609139919281,9.301501274108887,0.36872243881225586,-3.22624135017395
1403715526322143000,0.011091195046901703,0.01790541782975197,0.08176030218601227,9.357662200927734,0.36656245589256287,-3.2194676399230957
1403715526327143000,0.0005503259599208832,0.022051095962524414,0.07884524762630463,9.227313995361328,0.6206888556480408,-3.2999749183654785
1403715526332143000,-0.008540812879800797,0.02140989899635315,0.08662223815917969,9.268190383911133,0.6310998797416687,-3.2027511596679688
1403715526337143000,-0.028934888541698456,0.015225585550069809,0.08055079728364944,9.244279861450195,0.3025694787502289,-3.2095229625701904
1403715526342143000,-0.026067377999424934,0.013800419867038727,0.07083453238010406,9.22021198272705,-0.018452780321240425,-3.153874158859253
1403715526347143000,-0.0007203668355941772,0.01024586707353592,0.07504092156887054,9.204641342163086,-0.19704407453536987,-3.1617958545684814
1403715526352143000,0.021872591227293015,0.02142874151468277,0.07768190652132034,9.367364883422852,0.06605609506368637,-3.2767245769500732
1403715526357143000,0.027309350669384003,0.015196513384580612,0.07683908939361572,9.195185661315918,0.3035637438297272,-3.1952943801879883
1403715526362143000,0.022333897650241852,0.02565012127161026,0.06979090720415115,9.358223915100098,0.5476897358894348,-3.415009021759033
1403715526367143000,0.008951973170042038,0.024201061576604843,0.07692015171051025,9.251678466796875,0.6129876375198364,-3.1633682250976562
1403715526372143000,-0.0064453259110450745,0.032550498843193054,0.0775996744632721,9.316734313964844,0.6625128984451294,-3.355642557144165
1403715526377143000,-0.025497447699308395,0.03194863349199295,0.08611106127500534,9.024044036865234,0.49118396639823914,-3.039456367492676
1403715526382143000,-0.03311285749077797,0.015186872333288193,0.07430697977542877,9.229168891906738,0.17909815907478333,-3.2810707092285156
1403715526387143000,-0.019013792276382446,0.017226584255695343,0.0806221067905426,9.17188835144043,-0.05886493995785713,-3.041170597076416
1403715526392143000,0.0007238425314426422,0.011591330170631409,0.08186064660549164,9.3754301071167,-0.13990634679794312,-3.340123414993286
1403715526397143000,0.02110106125473976,0.024225495755672455,0.07191920280456543,9.318081855773926,0.09800297766923904,-3.1324634552001953
1403715526402143000,0.028076045215129852,0.011718068271875381,0.07340886443853378,9.219710350036621,0.3029335141181946,-3.307281255722046
1403715526407143000,0.018960170447826385,0.025583133101463318,0.07209601253271103,9.455399513244629,0.6212647557258606,-3.286311626434326
1403715526412143000,0.0019482634961605072,0.031208544969558716,0.07902877777814865,9.242979049682617,0.5648038983345032,-3.201368570327759
1403715526417143000,-0.011390209197998047,0.02764163911342621,0.07265248894691467,9.186270713806152,0.719273567199707,-3.127448320388794
1403715526422143000,-0.027593888342380524,0.016541846096515656,0.07774358242750168,9.114706993103027,0.36059099435806274,-3.0448427200317383
1403715526427143000,-0.028223339468240738,0.008223891258239746,0.0813588872551918,9.179845809936523,0.15434063971042633,-3.2249882221221924
1403715526432143000,-0.009882904589176178,0.013781845569610596,0.0896185114979744,9.277715682983398,-0.0586434043943882,-3.228379726409912
1403715526437143000,0.007758580148220062,0.01374487578868866,0.07969824224710464,9.350845336914062,0.04002372920513153,-3.2442855834960938
1403715526442143000,0.018937423825263977,0.020117945969104767,0.07413112372159958,9.121992111206055,0.2861698865890503,-3.072293281555176
1403715526447143000,0.01821383833885193,0.008903298527002335,0.07621525228023529,9.366717338562012,0.3678646385669708,-3.3320348262786865
1403715526452143000,0.009881354868412018,0.02128789573907852,0.06839956343173981,9.54460620880127,0.6371232271194458,-3.343454122543335
1403715526457143000,-0.00573103129863739,0.02698954939842224,0.06710150837898254,9.13701057434082,0.5648878216743469,-3.234605550765991
1403715526462143000,-0.01276630163192749,0.02500520646572113,0.07784542441368103,9.212041854858398,0.5154352188110352,-3.169226884841919
1403715526467143000,-0.01774933561682701,0.019496876746416092,0.08700506389141083,9.02504825592041,0.228674978017807,-3.0124804973602295
1403715526472143000,-0.010591484606266022,0.011633377522230148,0.08386578410863876,9.383060455322266,0.20332704484462738,-3.2906322479248047
1403715526477143000,-0.002231467515230179,0.02064068615436554,0.0859636440873146,9.31804370880127,0.04079413041472435,-3.1558713912963867
1403715526482143000,0.00907464325428009,0.01721058413386345,0.07626210898160934,9.260894775390625,0.1791301667690277,-3.2593953609466553
1403715526487143000,0.01751057803630829,0.025709837675094604,0.07342896610498428,9.17966079711914,0.22895993292331696,-3.105833053588867
1403715526492143000,0.011245951056480408,0.015887774527072906,0.06986196339130402,9.431081771850586,0.5475738644599915,-3.3724799156188965
1403715526497143000,0.0013708807528018951,0.028314031660556793,0.06932363659143448,9.373296737670898,0.5650522112846375,-3.2533843517303467
1403715526502143000,-0.010687809437513351,0.022768273949623108,0.06938321888446808,9.195261001586914,0.3845255672931671,-3.2096354961395264
1403715526507143000,-0.011335212737321854,0.027753088623285294,0.07345167547464371,9.253352165222168,0.2692089378833771,-3.136956214904785
1403715526512143000,-0.009252389892935753,0.016660936176776886,0.08819543570280075,9.089811325073242,0.2208724319934845,-3.1757123470306396
1403715526517143000,-0.004273496568202972,0.019310280680656433,0.08472765982151031,9.342215538024902,0.2783547341823578,-3.161654233932495
1403715526522143000,-0.002237647771835327,0.01650828868150711,0.08255486190319061,9.179600715637207,0.10596201568841934,-3.1534230709075928
1403715526527143000,0.008403800427913666,0.01788729429244995,0.07481390237808228,9.407859802246094,0.14593403041362762,-3.2932615280151367
1403715526532143000,0.011170301586389542,0.018698599189519882,0.07555405795574188,9.1220064163208,0.30258142948150635,-3.088775396347046
1403715526537143000,0.006318002939224243,0.012348797172307968,0.07200173288583755,9.415037155151367,0.5161346793174744,-3.356304883956909
1403715526542143000,-0.005028914660215378,0.03124704211950302,0.07142908871173859,9.138033866882324,0.4420764148235321,-3.1547210216522217
1403715526547143000,-0.014201613143086433,0.01868489757180214,0.07289734482765198,9.171236038208008,0.2853394150733948,-3.1759586334228516
1403715526552143000,-0.007765104994177818,0.024229753762483597,0.08819811046123505,9.29395866394043,0.2855628430843353,-3.210832118988037
1403715526557143000,-0.0014868900179862976,0.01657898724079132,0.08811783045530319,9.195613861083984,0.15620432794094086,-3.226236343383789
1403715526562143000,-4.2051076889038086e-05,0.02700289711356163,0.087387815117836,9.301329612731934,0.3263854384422302,-3.170194149017334
1403715526567143000,0.0019383504986763,0.01726144552230835,0.08543661236763,9.073683738708496,0.12235160917043686,-3.1123225688934326
1403715526572143000,0.008397176861763,0.0122726671397686,0.07407806813716888,9.45637035369873,0.28493374586105347,-3.3005852699279785
1403715526577143000,0.002741672098636627,0.021470025181770325,0.0726696252822876,9.28451156616211,0.35185104608535767,-3.1871862411499023
1403715526582143000,-0.005666222423315048,0.013742998242378235,0.06718093156814575,9.39021110534668,0.5237705111503601,-3.324620485305786
1403715526587143000,-0.009205268695950508,0.02701367437839508,0.07433640211820602,9.179211616516113,0.3598478436470032,-3.1298749446868896
1403715526592143000,-0.00849994458258152,0.013815216720104218,0.06936050206422806,9.171104431152344,0.268571138381958,-3.0941097736358643
1403715526597143000,0.002108898013830185,0.020063113421201706,0.08105448633432388,9.35035514831543,0.33474481105804443,-3.2916884422302246
1403715526602143000,-0.0001434609293937683,0.024249453097581863,0.08542425185441971,9.10584831237793,0.23777733743190765,-3.1781861782073975
1403715526607143000,0.002728395164012909,0.023500140756368637,0.08467583358287811,9.26938247680664,0.2526910901069641,-3.177722692489624
1403715526612143000,0.005458187311887741,0.015206817537546158,0.08328086137771606,9.049483299255371,0.16259880363941193,-3.063472270965576
1403715526617143000,0.005599655210971832,0.013013545423746109,0.07058043032884598,9.448007583618164,0.4084385335445404,-3.3482825756073
1403715526622143000,0.001999925822019577,0.02703757956624031,0.06922425329685211,9.170785903930664,0.35261961817741394,-3.1632025241851807
1403715526627143000,-0.006421957165002823,0.013742350041866302,0.0657685399055481,9.301104545593262,0.5064615607261658,-3.217700958251953
1403715526632143000,-0.008560240268707275,0.021476510912179947,0.07360395789146423,9.139101028442383,0.21267548203468323,-3.1618728637695312
1403715526637143000,-0.004983194172382355,0.010995045304298401,0.07006965577602386,9.366629600524902,0.2852943539619446,-3.242302179336548
1403715526642143000,-0.004230983555316925,0.025603365153074265,0.0860523134469986,9.366061210632324,0.3517693281173706,-3.244020938873291
1403715526647143000,-0.006408125162124634,0.021437495946884155,0.08045800030231476,9.138276100158691,0.2540709972381592,-3.169621467590332
1403715526652143000,0.003508724272251129,0.022140905261039734,0.09019304066896439,9.285429954528809,0.2686253488063812,-3.1615424156188965
1403715526657143000,0.005565177649259567,0.016637690365314484,0.07908586412668228,9.154756546020508,0.24461892247200012,-3.1772918701171875
1403715526662143000,0.002076871693134308,0.01155862957239151,0.07128023356199265,9.406895637512207,0.41749316453933716,-3.3496556282043457
1403715526667143000,-0.0015628859400749207,0.01929599419236183,0.07351398468017578,9.11414623260498,0.2786087691783905,-3.1710405349731445
1403715526672143000,-0.006382036954164505,0.014513570815324783,0.07631654292345047,9.317928314208984,0.38334283232688904,-3.283478260040283
1403715526677143000,-0.0035913586616516113,0.0187603197991848,0.07703143358230591,9.171114921569824,0.31885045766830444,-3.10500168800354
1403715526682143000,-0.0049923136830329895,0.017260544002056122,0.07415217161178589,9.415313720703125,0.2863806188106537,-3.3071603775024414
1403715526687143000,-0.0014540329575538635,0.02279070019721985,0.08181891590356827,9.236044883728027,0.2858336865901947,-3.261380434036255
1403715526692143000,0.0006465204060077667,0.02350960671901703,0.07762487977743149,9.236204147338867,0.34299442172050476,-3.153019905090332
1403715526697143000,0.005539834499359131,0.025648441165685654,0.08745665103197098,9.244491577148438,0.26172733306884766,-3.120319366455078
1403715526702143000,0.0012921392917633057,0.015886634588241577,0.0763666033744812,9.227922439575195,0.30997687578201294,-3.2178096771240234
1403715526707143000,0.0013685375452041626,0.01857391744852066,0.08258246630430222,9.349925994873047,0.4331638813018799,-3.251775026321411
1403715526712143000,-0.0036368146538734436,0.02355353906750679,0.07273976504802704,9.098017692565918,0.24604621529579163,-3.202526807785034
1403715526717143000,-0.002878539264202118,0.010254904627799988,0.06841365993022919,9.31810188293457,0.3505244851112366,-3.2352194786071777
1403715526722143000,-0.002209071069955826,0.012335725128650665,0.07283824682235718,9.3422212600708,0.2616162896156311,-3.161562442779541
1403715526727143000,-0.003561541438102722,0.017269570380449295,0.07567989826202393,9.357841491699219,0.31912392377853394,-3.3652420043945312
1403715526732143000,-0.001451253890991211,0.030560269951820374,0.08121567964553833,9.301219940185547,0.3266538977622986,-3.138923168182373
1403715526737143000,-0.000757802277803421,0.028439078480005264,0.08116131275892258,9.301145553588867,0.3594312369823456,-3.1188642978668213
1403715526742143000,-0.0007873289287090302,0.024955667555332184,0.07972848415374756,9.13823127746582,0.23732315003871918,-3.144599676132202
1403715526747143000,0.001355580985546112,0.014400269836187363,0.07339292019605637,9.277206420898438,0.3344849944114685,-3.1933655738830566
1403715526752143000,-0.00216548889875412,0.020621120929718018,0.07624728977680206,9.285301208496094,0.31932559609413147,-3.21890926361084
1403715526757143000,-0.0007942430675029755,0.01234988123178482,0.07568281888961792,9.171134948730469,0.29442211985588074,-3.2189509868621826
1403715526762143000,-0.0014934614300727844,0.013861563056707382,0.07566188275814056,9.35084056854248,0.2692386209964752,-3.23541259765625
1403715526767143000,0.0006089210510253906,0.016673211008310318,0.07625950872898102,9.179123878479004,0.28604528307914734,-3.2103145122528076
1403715526772143000,0.003439381718635559,0.020685017108917236,0.07408364117145538,9.309486389160156,0.3110073208808899,-3.2024004459381104
1403715526777143000,-0.00011640787124633789,0.021362200379371643,0.08113480359315872,9.203815460205078,0.29421088099479675,-3.201993227005005
1403715526782143000,-7.532909512519836e-05,0.02772761508822441,0.08400366455316544,9.252452850341797,0.3757037818431854,-3.2102794647216797
1403715526787143000,-0.0015125423669815063,0.025037914514541626,0.08403044939041138,9.13043212890625,0.3597909212112427,-3.1448280811309814
1403715526792143000,-0.004983115941286087,0.021445024758577347,0.07555314153432846,9.26910400390625,0.35142263770103455,-3.2017791271209717
1403715526797143000,-0.005045149475336075,0.016503039747476578,0.08114805817604065,9.097956657409668,0.1960548311471939,-3.1290996074676514
1403715526802143000,-0.004977092146873474,0.017237871885299683,0.0783691555261612,9.293781280517578,0.22013264894485474,-3.251075267791748
1403715526807143000,-0.0007525309920310974,0.014478668570518494,0.07627943903207779,9.277213096618652,0.21272410452365875,-3.179051160812378
1403715526812143000,0.0013545416295528412,0.012336868792772293,0.06928212940692902,9.341939926147461,0.2862420380115509,-3.259326457977295
1403715526817143000,0.004863373935222626,0.01934393122792244,0.07489465177059174,9.325639724731445,0.2942354083061218,-3.2116267681121826
1403715526822143000,0.00417080894112587,0.023559927940368652,0.07904486358165741,9.317161560058594,0.39208588004112244,-3.2673137187957764
1403715526827143000,0.0020600706338882446,0.028411850333213806,0.07689473778009415,9.316922187805176,0.4988168179988861,-3.202704906463623
1403715526832143000,-0.003642857074737549,0.024242300540208817,0.08122877031564713,9.195096015930176,0.35999080538749695,-3.1687796115875244
1403715526837143000,-0.009241599589586258,0.02424577623605728,0.07704499363899231,9.171092987060547,0.3914005160331726,-3.1362483501434326
1403715526842143000,-0.007817493751645088,0.013025902211666107,0.08462563157081604,9.163366317749023,0.2530864179134369,-3.185089111328125
1403715526847143000,-0.010584188625216484,0.016514848917722702,0.0741300880908966,9.252908706665039,0.29399600625038147,-3.2352075576782227
1403715526852143000,-0.004956088960170746,0.010292164981365204,0.08192938566207886,9.301647186279297,0.18770496547222137,-3.1950950622558594
1403715526857143000,0.0021188557147979736,0.013076435774564743,0.06650742888450623,9.562494277954102,0.13016998767852783,-3.358686685562134
1403715526862143000,0.007795877754688263,0.020064525306224823,0.07189403474330902,9.414589881896973,0.35920247435569763,-3.482128858566284
1403715526867143000,0.007691085338592529,0.022112540900707245,0.07907381653785706,9.341164588928223,0.4096986651420593,-3.269671678543091
1403715526872143000,0.00417724996805191,0.03258331120014191,0.08190996199846268,9.504368782043457,0.4660763442516327,-3.2839434146881104
1403715526877143000,-0.004335179924964905,0.026331517845392227,0.08329404145479202,9.283980369567871,0.3347015976905823,-3.1860744953155518
1403715526882143000,-0.0007549747824668884,0.020666342228651047,0.07617533951997757,9.545730590820312,0.261299729347229,-3.3245346546173096
1403715526887143000,-0.003674708306789398,0.020724106580018997,0.07831517606973648,9.171130180358887,0.16380801796913147,-3.130162000656128
1403715526892143000,-0.004343900829553604,0.004615109413862228,0.07206950336694717,9.366912841796875,0.17145825922489166,-3.23435378074646
1403715526897143000,0.009835716336965561,0.010141678154468536,0.09665527939796448,9.659464836120605,0.36705881357192993,-3.2120094299316406
1403715526902143000,0.003581121563911438,0.014378301799297333,0.09319094568490982,9.787525177001953,0.6943593621253967,-3.349385976791382
1403715526907143000,-0.016178086400032043,0.06143065541982651,0.08940359950065613,9.356660842895508,0.548286497592926,-3.3503572940826416
1403715526912143000,-0.03904498368501663,0.02591509371995926,0.06498786807060242,8.373031616210938,0.13827137649059296,-2.668679714202881
1403715526917143000,-0.018994659185409546,0.005876451730728149,0.06572248041629791,8.938374519348145,-0.23830771446228027,-2.967231512069702
1403715526922143000,0.01977819949388504,0.00033231452107429504,0.08637687563896179,8.512760162353516,-0.0325276181101799,-2.921846628189087
1403715526927143000,0.03876052796840668,0.0066457465291023254,0.07855600118637085,9.621520042419434,0.34473007917404175,-3.2988359928131104
1403715526932143000,0.02343764901161194,0.033699341118335724,0.07563605159521103,8.333719253540039,0.6137685179710388,-2.9492788314819336
1403715526937143000,-0.004031673073768616,-0.0068678054958581924,0.04383055865764618,8.888147354125977,0.7595864534378052,-3.0590741634368896
1403715526942143000,-0.018585480749607086,0.014548245817422867,0.05986492708325386,8.862950325012207,0.5806249380111694,-2.946747303009033
1403715526947143000,-0.014139942824840546,-0.01728881150484085,0.09117013216018677,8.925262451171875,0.5232306718826294,-3.2232909202575684
1403715526952143000,-0.010353121906518936,0.018963217735290527,0.09420157968997955,9.848932266235352,0.21983970701694489,-3.442918539047241
1403715526957143000,-0.010542120784521103,0.04924502968788147,0.09050417691469193,8.828125953674316,0.43141332268714905,-3.154029130935669
1403715526962143000,-0.018521567806601524,-0.001073542982339859,0.07253806293010712,9.073476791381836,0.16337686777114868,-3.1777281761169434
1403715526967143000,-0.021282225847244263,0.013699721544981003,0.0518927127122879,9.16417407989502,0.007394931744784117,-3.1789116859436035
1403715526972143000,0.009942200034856796,-0.00412563793361187,0.08040666580200195,9.217885971069336,-0.025374822318553925,-3.3180224895477295
1403715526977143000,0.02210177108645439,0.009304970502853394,0.08452210575342178,9.937050819396973,0.07411687076091766,-3.551107883453369
1403715526982143000,0.023259185254573822,0.051197342574596405,0.0745023638010025,8.981898307800293,0.5409713387489319,-3.21364688873291
1403715526987143000,-0.0038819722831249237,0.012022648006677628,0.05566395819187164,9.43143081665039,0.24725647270679474,-3.2356083393096924
1403715526992143000,-0.010844491422176361,0.025574732571840286,0.04697902873158455,9.464207649230957,0.13080574572086334,-3.236680269241333
1403715526997143000,0.004091039299964905,0.012578539550304413,0.08325617760419846,9.102740287780762,0.35971587896347046,-3.226370334625244
1403715527002143000,-0.007656781002879143,0.033667050302028656,0.08583666384220123,10.035691261291504,0.35393327474594116,-3.523149251937866
1403715527007143000,-0.012696746736764908,0.061721742153167725,0.0927964299917221,9.063419342041016,0.48201751708984375,-3.114183187484741
1403715527012143000,-0.02063165046274662,0.02176833525300026,0.0742521658539772,9.122200965881348,-0.09151143580675125,-3.110535144805908
1403715527017143000,-0.010614151135087013,0.031764693558216095,0.06731590628623962,9.336304664611816,-0.1656024158000946,-3.0474894046783447
1403715527022143000,0.012667998671531677,0.0035310685634613037,0.08720749616622925,9.00668716430664,0.22877539694309235,-3.1340413093566895
1403715527027143000,0.021930359303951263,0.010497786104679108,0.09974345564842224,9.73408317565918,0.27970537543296814,-3.33457612991333
1403715527032143000,0.019684694707393646,0.044783324003219604,0.10259018838405609,9.056509017944336,0.546076238155365,-3.120804786682129
1403715527037143000,0.010296229273080826,0.008501831442117691,0.07955755293369293,9.333596229553223,0.49686428904533386,-3.1922690868377686
1403715527042143000,-0.008770149201154709,0.017201367765665054,0.06087604537606239,9.187936782836914,0.47474825382232666,-3.1111276149749756
1403715527047143000,-0.014997269958257675,-0.011040151119232178,0.05843748897314072,9.015448570251465,0.5230871438980103,-3.182882785797119
1403715527052143000,-0.0020053423941135406,0.0015441663563251495,0.08642188459634781,9.660623550415039,0.5299298763275146,-3.2763233184814453
1403715527057143000,-0.0048642754554748535,0.0322820246219635,0.09019270539283752,9.16208267211914,0.5786728262901306,-3.234273910522461
1403715527062143000,-0.014165956526994705,0.013494737446308136,0.08266513049602509,9.11328411102295,0.619301438331604,-3.168806791305542
1403715527067143000,-0.015574689954519272,0.02510039508342743,0.0653192475438118,9.335537910461426,0.301800400018692,-3.169154644012451
1403715527072143000,-0.015518859028816223,0.008030775934457779,0.04010463505983353,8.975288391113281,0.02309904620051384,-3.0793707370758057
1403715527077143000,0.0036874376237392426,-0.0012756437063217163,0.06301248073577881,9.220904350280762,0.17848797142505646,-3.2429606914520264
1403715527082143000,0.01700606942176819,0.02148638665676117,0.0776839405298233,9.400357246398926,0.2875567376613617,-3.2203164100646973
1403715527087143000,0.023910745978355408,0.025310561060905457,0.09425096213817596,9.063878059387207,0.581157386302948,-3.2998766899108887
1403715527092143000,0.003958921879529953,0.02445220947265625,0.07465507090091705,9.21993637084961,0.6300017833709717,-3.1460633277893066
1403715527097143000,-0.01587856002151966,0.024120662361383438,0.06651850044727325,9.090045928955078,0.27950239181518555,-3.1190977096557617
1403715527102143000,-0.01998015120625496,0.01563982293009758,0.0542910061776638,8.927367210388184,-0.06475517898797989,-3.0957834720611572
1403715527107143000,-0.0013059154152870178,0.012209024280309677,0.08284333348274231,9.359517097473145,0.30238160490989685,-3.1201324462890625
1403715527112143000,0.004228264093399048,0.03341192007064819,0.09800861775875092,9.30960750579834,0.10930242389440536,-3.13702130317688
1403715527117143000,0.006207965314388275,0.03005709871649742,0.1024864912033081,9.161863327026367,0.39965489506721497,-3.1288001537323
1403715527122143000,0.0011962354183197021,0.02776459977030754,0.08916821330785751,9.326069831848145,0.25313010811805725,-3.0963149070739746
1403715527127143000,-0.007179910317063332,0.03309930860996246,0.06714828312397003,9.366199493408203,0.12367916852235794,-3.161160707473755
1403715527132143000,-0.006492089480161667,0.01640625298023224,0.053626369684934616,9.064881324768066,-0.08928114920854568,-3.0147311687469482
1403715527137143000,0.011375784873962402,0.01289617270231247,0.06683722138404846,9.579142570495605,0.2852606475353241,-3.209362030029297
1403715527142143000,0.018347065895795822,0.027078449726104736,0.09869533777236938,9.251670837402344,0.3288615047931671,-3.300642251968384
1403715527147143000,0.009010054171085358,0.020857717841863632,0.09397247433662415,9.446239471435547,0.6693183183670044,-3.309166669845581
1403715527152143000,-0.014380533248186111,0.02841126173734665,0.0841565877199173,9.390053749084473,0.5719526410102844,-3.1209704875946045
1403715527157143000,-0.028394656255841255,0.015084836632013321,0.058940619230270386,9.056645393371582,0.13069096207618713,-3.118831157684326
1403715527162143000,-0.0203519519418478,-0.0003597475588321686,0.05651228874921799,9.416685104370117,-0.010220158845186234,-3.1618566513061523
1403715527167143000,0.00020306184887886047,0.0067218877375125885,0.06757736206054688,9.375022888183594,0.14611059427261353,-3.243177890777588
1403715527172143000,0.0099126435816288,0.009658914059400558,0.08467712253332138,9.22749137878418,0.22974558174610138,-3.1627111434936523
1403715527177143000,0.011244278401136398,0.012536980211734772,0.09266563504934311,9.570395469665527,0.47223716974258423,-3.366281509399414
1403715527182143000,0.002642262727022171,0.02504541352391243,0.0891663134098053,9.128494262695312,0.6532384753227234,-3.072374105453491
1403715527187143000,-0.012869060039520264,0.010229244828224182,0.0748986154794693,9.081316947937012,0.33618903160095215,-3.1672048568725586
1403715527192143000,-0.01264888420701027,0.006597235798835754,0.05496223270893097,9.482394218444824,0.17861196398735046,-3.3014872074127197
1403715527197143000,-0.0006217136979103088,0.011632505804300308,0.07101120054721832,9.186976432800293,0.24437199532985687,-3.234896421432495
1403715527202143000,0.011979248374700546,0.0160355307161808,0.08176473528146744,9.114297866821289,0.4503447711467743,-3.24283504486084
1403715527207143000,0.007563438266515732,0.018118884414434433,0.104493647813797,9.261279106140137,0.5473907589912415,-3.292344808578491
1403715527212143000,-0.005211319774389267,0.025653034448623657,0.09565651416778564,9.129417419433594,0.5057011246681213,-3.1693904399871826
1403715527217143000,-0.012114416807889938,0.01928931474685669,0.07641417533159256,9.171073913574219,0.36729294061660767,-3.185460329055786
1403715527222143000,-0.0112692229449749,0.014338400214910507,0.061890605837106705,9.229594230651855,0.06540638953447342,-3.2520861625671387
1403715527227143000,-0.0034869909286499023,0.010225851088762283,0.0525326207280159,9.123272895812988,0.04047483205795288,-3.301006317138672
1403715527232143000,0.008492935448884964,0.014558784663677216,0.06131916493177414,9.334567070007324,0.3024812936782837,-3.277367115020752
1403715527237143000,0.01121264323592186,0.03138892352581024,0.08592374622821808,9.309022903442383,0.4262566864490509,-3.2928998470306396
1403715527242143000,0.005343161523342133,0.02710821107029915,0.09041135758161545,8.942310333251953,0.36018040776252747,-3.0716540813446045
1403715527247143000,-0.0015797428786754608,0.022727224975824356,0.08557171374559402,9.277338981628418,0.5306956171989441,-3.233386516571045
1403715527252143000,-0.014837032184004784,0.021330304443836212,0.07227643579244614,9.309745788574219,0.2796238958835602,-3.34195613861084
1403715527257143000,-0.012692753225564957,0.024178124964237213,0.05447755381464958,9.301518440246582,-0.007976026274263859,-3.1794612407684326
1403715527262143000,-0.0013345517218112946,0.017283350229263306,0.06814809888601303,9.293526649475098,0.374260812997818,-3.308417797088623
1403715527267143000,-0.01263139396905899,0.02995220571756363,0.07466574758291245,9.366182327270508,0.45955225825309753,-3.293083429336548
1403715527272143000,-0.008509287610650063,0.03834095597267151,0.09546719491481781,9.373929977416992,0.04994947463274002,-3.3093984127044678
1403715527277143000,0.004853174090385437,0.03252227604389191,0.09929312020540237,9.251893997192383,0.005132266785949469,-3.1553571224212646
1403715527282143000,0.014834113419055939,0.02321792021393776,0.10026077181100845,9.496912956237793,0.17187842726707458,-3.218226432800293
1403715527287143000,0.01453806459903717,0.02824755758047104,0.0687989890575409,9.74205493927002,-0.3812228739261627,-3.204450845718384
1403715527292143000,0.036967143416404724,0.022818751633167267,0.045942287892103195,9.651350021362305,-0.38655441999435425,-3.17189359664917
1403715527297143000,0.05677857995033264,0.03188185393810272,0.0632086843252182,9.09599781036377,0.6774091124534607,-3.045449733734131
1403715527302143000,0.03835403919219971,0.008621912449598312,0.08150018006563187,9.356231689453125,1.2965435981750488,-3.166459560394287
1403715527307143000,-0.013114258646965027,0.02258129045367241,0.09090518951416016,9.509551048278809,1.3649975061416626,-3.299323797225952
1403715527312143000,-0.07636615633964539,0.01508038118481636,0.08521182090044022,9.070743560791016,0.9025837779045105,-3.0366551876068115
1403715527317143000,-0.08782737702131271,0.014495894312858582,0.07888239622116089,9.157129287719727,0.11209114640951157,-3.1175010204315186
1403715527322143000,-0.07005641609430313,0.009104311466217041,0.06495893001556396,9.035279273986816,-0.45141148567199707,-2.8829076290130615
1403715527327143000,-0.007302820682525635,0.008957646787166595,0.0708371251821518,9.392874717712402,-0.9095771908760071,-2.9966585636138916
1403715527332143000,0.05164852738380432,0.02148931846022606,0.0769287571310997,9.098649024963379,-0.6482092142105103,-3.0239686965942383
1403715527337143000,0.08163152635097504,0.017888043075799942,0.07583952695131302,9.131092071533203,0.38419511914253235,-3.267021894454956
1403715527342143000,0.05790971219539642,0.022800106555223465,0.06452805548906326,8.845232009887695,1.0670799016952515,-3.1452012062072754
1403715527347143000,0.014331385493278503,0.013573788106441498,0.06710197776556015,9.3319673538208,1.4161030054092407,-3.1681809425354004
1403715527352143000,-0.014339491724967957,0.02833288162946701,0.09228798747062683,9.023116111755371,0.8991164565086365,-3.1104745864868164
1403715527357143000,-0.03540073335170746,-0.004443539306521416,0.08914870023727417,8.959619522094727,0.5551470518112183,-3.1505753993988037
1403715527362143000,-0.047326989471912384,0.018043309450149536,0.07007547467947006,9.328324317932129,0.0820368081331253,-3.4799439907073975
1403715527367143000,-0.035426847636699677,-0.0014293193817138672,0.07146964222192764,9.122008323669434,0.10470998287200928,-3.155977964401245
1403715527372143000,-0.009850068017840385,0.02352038398385048,0.06637676805257797,9.782867431640625,-0.214866504073143,-3.3590402603149414
1403715527377143000,0.024650968611240387,0.022245630621910095,0.08676280826330185,8.721860885620117,0.053781937807798386,-2.9845328330993652
1403715527382143000,0.024112079292535782,0.0038519874215126038,0.0749678909778595,9.700942039489746,0.34295907616615295,-3.5204501152038574
1403715527387143000,0.005715079605579376,0.031239919364452362,0.06588125228881836,9.170104026794434,0.35365888476371765,-3.117555618286133
1403715527392143000,0.008435256779193878,0.0095294788479805,0.06282733380794525,9.300067901611328,0.10700465738773346,-3.1523773670196533
1403715527397143000,0.030893713235855103,0.022119082510471344,0.09496185928583145,9.074026107788086,0.277742475271225,-3.137881278991699
1403715527402143000,0.018676191568374634,-0.0022381991147994995,0.08122427761554718,9.211921691894531,0.3715963065624237,-3.4458820819854736
1403715527407143000,-0.0131712406873703,0.008838105946779251,0.06019618362188339,9.243170738220215,0.7866178154945374,-3.171722888946533
1403715527412143000,-0.027845848351716995,0.013742603361606598,0.06655833125114441,9.431465148925781,0.4664444625377655,-3.0455846786499023
1403715527417143000,-0.021288596093654633,0.019384782761335373,0.09740667790174484,9.032699584960938,-0.14088459312915802,-3.1769542694091797
1403715527422143000,-0.01620127633213997,0.003990359604358673,0.09305116534233093,9.514655113220215,-0.3051285147666931,-3.187624931335449
1403715527427143000,-0.01746327430009842,0.03408963978290558,0.06997053325176239,9.545615196228027,-0.0485989935696125,-3.170435667037964
1403715527432143000,-0.0034853294491767883,0.01935397833585739,0.08142960071563721,9.194428443908691,-0.40639036893844604,-2.87717866897583
1403715527437143000,0.03458660840988159,0.023386865854263306,0.09931068867444992,9.351164817810059,-0.1827802211046219,-3.176302433013916
1403715527442143000,0.042052291333675385,0.010919500142335892,0.08490915596485138,9.431896209716797,0.06583214551210403,-3.3510913848876953
1403715527447143000,0.01105235144495964,0.017857104539871216,0.06481549143791199,9.461469650268555,1.081961750984192,-3.3579037189483643
1403715527452143000,-0.01368112862110138,0.03339433670043945,0.05983152613043785,9.130146980285645,0.5433675646781921,-3.1776771545410156
1403715527457143000,-0.0009281821548938751,0.013063114136457443,0.08964993804693222,8.65880012512207,0.3474118411540985,-3.093052387237549
1403715527462143000,0.007058579474687576,0.003123622387647629,0.08994020521640778,9.979776382446289,0.24978800117969513,-3.6350231170654297
1403715527467143000,-0.01839766651391983,0.02487405762076378,0.05787765234708786,9.199956893920898,1.0544407367706299,-3.179957389831543
1403715527472143000,-0.04249282553792,0.03279499709606171,0.04995270073413849,8.747640609741211,0.4430694282054901,-3.027597188949585
1403715527477143000,-0.012698054313659668,0.0012580715119838715,0.09186810255050659,8.718774795532227,-0.056533508002758026,-2.9240589141845703
1403715527482143000,-0.005289144814014435,0.017898377031087875,0.0823696181178093,10.05229663848877,0.05916189029812813,-3.6588265895843506
1403715527487143000,-0.007597696036100388,0.03839632868766785,0.07422670722007751,8.972162246704102,0.5496602654457092,-3.0517947673797607
1403715527492143000,-0.0021821781992912292,0.03552094101905823,0.07610483467578888,8.635293960571289,0.08485918492078781,-2.8889389038085938
1403715527497143000,0.047168560326099396,0.005847960710525513,0.10638990253210068,8.930794715881348,-0.30743616819381714,-3.0633370876312256
1403715527502143000,0.043563760817050934,0.02131657302379608,0.08324173092842102,9.919220924377441,0.4963151812553406,-3.4958133697509766
1403715527507143000,0.007255628705024719,0.05158166587352753,0.04979976266622543,9.12582778930664,1.1344243288040161,-3.1716830730438232
1403715527512143000,-0.014680963009595871,0.031235188245773315,0.0754614770412445,8.42349910736084,0.5602548122406006,-3.0193021297454834
1403715527517143000,-0.0035507306456565857,0.00511038675904274,0.09411460161209106,9.8595552444458,-0.014277495443820953,-3.423391819000244
1403715527522143000,-0.014049597084522247,0.036208391189575195,0.06945047527551651,9.500734329223633,0.5693482756614685,-3.2438766956329346
1403715527527143000,-0.03895575925707817,0.03761104494333267,0.05022371560335159,8.981178283691406,0.5131657123565674,-3.0782830715179443
1403715527532143000,-0.009240394458174706,0.005096007138490677,0.095088891685009,8.971174240112305,-0.3022325038909912,-2.8847720623016357
1403715527537143000,0.010839402675628662,0.018522128462791443,0.08252718299627304,10.084843635559082,-0.13087207078933716,-3.4304752349853516
1403715527542143000,0.0007136650383472443,0.03862281143665314,0.04974421486258507,9.085076332092285,0.5162299871444702,-3.0328612327575684
1403715527547143000,-0.006544973701238632,0.018626760691404343,0.07167980074882507,8.86192512512207,0.44797250628471375,-3.1093053817749023
1403715527552143000,0.014212936162948608,0.007686711847782135,0.10642077773809433,9.549240112304688,-0.09985937923192978,-3.229578733444214
1403715527557143000,0.016330882906913757,0.039703816175460815,0.09342248737812042,9.804285049438477,0.1016983613371849,-3.259800910949707
1403715527562143000,-0.006722114980220795,0.030926600098609924,0.05387403070926666,8.842534065246582,0.6085776686668396,-3.0947916507720947
1403715527567143000,-0.002567291259765625,-0.010269060730934143,0.08571244776248932,8.701684951782227,0.24224784970283508,-3.0447490215301514
1403715527572143000,0.010592292994260788,0.007760919630527496,0.09685786068439484,10.290358543395996,0.020366160199046135,-3.440418004989624
1403715527577143000,-0.005163174122571945,0.029653772711753845,0.03223327174782753,8.83315372467041,0.34055644273757935,-3.0886688232421875
1403715527582143000,-0.013796046376228333,-0.002868741750717163,0.06503813713788986,8.63427734375,0.6977773904800415,-3.043353319168091
1403715527587143000,-0.000634901225566864,-0.006864489987492561,0.10250505805015564,9.689038276672363,0.3524775505065918,-3.2355592250823975
1403715527592143000,-0.004770684987306595,0.03279832750558853,0.07818356901407242,9.795681953430176,0.00327615300193429,-3.2200927734375
1403715527597143000,-0.011469226330518723,0.014101453125476837,0.057253316044807434,8.663372039794922,0.4303746223449707,-3.0461885929107666
1403715527602143000,0.0027604885399341583,-0.009688107296824455,0.09335239976644516,9.109199523925781,0.681301474571228,-3.175753355026245
1403715527607143000,0.009335290640592575,0.02835831046104431,0.1167195737361908,10.00326156616211,-0.007584237493574619,-3.473407506942749
1403715527612143000,-0.0029332078993320465,0.03806808590888977,0.0455462709069252,9.305795669555664,0.027153683826327324,-3.2298495769500732
1403715527617143000,0.004598204046487808,0.0017917901277542114,0.0674603134393692,8.600836753845215,0.7758935689926147,-3.0196444988250732
1403715527622143000,0.004274792969226837,0.012598436325788498,0.09323685616254807,9.720600128173828,0.4795757532119751,-3.3725273609161377
1403715527627143000,-0.010732695460319519,0.03790952265262604,0.05586300790309906,8.908309936523438,-0.0017655211267992854,-2.99088716506958
1403715527632143000,-0.011560611426830292,-0.018273144960403442,0.053791116923093796,8.65694522857666,0.6652014851570129,-3.0837838649749756
1403715527637143000,0.0009040273725986481,0.004080258309841156,0.0964512825012207,10.120271682739258,0.6172212362289429,-3.498377561569214
1403715527642143000,-0.015622688457369804,0.028883621096611023,0.08109584450721741,8.574041366577148,-0.014132770709693432,-3.0892813205718994
1403715527647143000,-0.0008373409509658813,-0.0033224597573280334,0.061461471021175385,9.179909706115723,0.10877025127410889,-3.3414463996887207
1403715527652143000,0.017567694187164307,4.9740076065063477e-05,0.0985545963048935,9.442148208618164,0.32756075263023376,-3.1640079021453857
1403715527657143000,0.013338133692741394,0.03535466641187668,0.07277461141347885,9.421297073364258,0.11002740263938904,-3.1026341915130615
1403715527662143000,0.01452404260635376,0.005771137773990631,0.07171979546546936,9.227936744689941,0.11245965957641602,-3.4978585243225098
1403715527667143000,0.011214151978492737,0.01760954037308693,0.08349979668855667,9.634437561035156,1.0608479976654053,-3.328150510787964
1403715527672143000,-0.016456812620162964,0.05922258645296097,0.07190066576004028,9.096049308776855,0.16047264635562897,-2.579787015914917
1403715527677143000,-0.018598800525069237,-0.002024702727794647,0.06515607982873917,9.15416431427002,0.10315074771642685,-2.8378007411956787
1403715527682143000,-0.008367225527763367,-0.002870805561542511,0.09418323636054993,10.149337768554688,0.3565949499607086,-3.2837746143341064
1403715527687143000,-0.024715514853596687,0.044475577771663666,0.0611647292971611,8.68066120147705,-0.16659247875213623,-3.0708484649658203
1403715527692143000,-0.009935861453413963,-0.0060732364654541016,0.058112747967243195,8.960978507995605,0.03901739418506622,-3.284646987915039
1403715527697143000,0.007197961211204529,0.01364436000585556,0.08671072870492935,9.72739028930664,0.3983372449874878,-3.407860517501831
1403715527702143000,0.004911899566650391,0.05652383714914322,0.07303709536790848,8.598533630371094,-0.17540229856967926,-3.356005907058716
1403715527707143000,0.014545314013957977,-0.00971517339348793,0.06573931127786636,8.65206527709961,0.030229246243834496,-3.3843908309936523
1403715527712143000,0.02613227814435959,0.011096246540546417,0.08870528638362885,9.997485160827637,0.7185486555099487,-3.523280143737793
1403715527717143000,0.0017287544906139374,0.05506148934364319,0.06813348829746246,8.50015926361084,-0.03520414978265762,-2.768848419189453
1403715527722143000,0.0065940022468566895,-0.02633330225944519,0.06975196301937103,8.846213340759277,0.4858323037624359,-2.903658628463745
1403715527727143000,-0.0013480372726917267,0.022498473525047302,0.10414866358041763,10.289371490478516,1.011465311050415,-3.554910659790039
1403715527732143000,-0.030628910288214684,0.05942671000957489,0.08868671953678131,8.049515724182129,-0.31315547227859497,-3.4900119304656982
1403715527737143000,-0.017008040100336075,-0.00988064706325531,0.09156400710344315,9.629434585571289,0.17963345348834991,-3.054621696472168
1403715527742143000,-0.005407072603702545,0.0594654381275177,0.1095675602555275,9.709078788757324,0.7085816264152527,-2.9300413131713867
1403715527747143000,-0.009957514703273773,0.037604302167892456,0.07281742990016937,8.269997596740723,-0.49238651990890503,-3.3525969982147217
1403715527752143000,0.020422019064426422,-0.016284191980957985,0.08514140546321869,9.581842422485352,0.16293767094612122,-3.2978062629699707
1403715527757143000,0.0219280943274498,0.06429662555456161,0.08255551755428314,10.082856178283691,0.660168468952179,-2.892432451248169
1403715527762143000,0.010712716728448868,0.007049039006233215,0.04432539641857147,7.779486656188965,-0.392889142036438,-3.146958589553833
1403715527767143000,0.02309287339448929,-0.042340829968452454,0.05571134015917778,10.054798126220703,0.956768274307251,-3.1483867168426514
1403715527772143000,5.611032247543335e-05,0.059522077441215515,0.07203131914138794,10.00786018371582,0.9825816750526428,-3.27386212348938
1403715527777143000,-0.02725822851061821,0.0036897584795951843,0.04646926000714302,8.16305923461914,-0.09317884594202042,-3.1536309719085693
1403715527782143000,-0.01752164214849472,-0.017177976667881012,0.08177345991134644,10.078543663024902,1.1094269752502441,-3.2688844203948975
1403715527787143000,-0.026111973449587822,0.08299143612384796,0.09628833830356598,8.755486488342285,-0.0686974823474884,-2.9866058826446533
1403715527792143000,-0.014144890010356903,-0.01667780801653862,0.08550138771533966,8.794034004211426,-0.3027336299419403,-3.151970863342285
1403715527797143000,0.021472137421369553,0.01606663316488266,0.10527466237545013,10.706914901733398,0.7915040254592896,-3.27994966506958
1403715527802143000,-0.005005858838558197,0.07025086879730225,0.08047115802764893,8.711454391479492,0.03977135196328163,-3.1184372901916504
1403715527807143000,0.009550772607326508,-0.047986406832933426,0.06649989634752274,8.421651840209961,0.0394599474966526,-3.113088369369507
1403715527812143000,0.015682730823755264,0.008375171571969986,0.07528620213270187,10.895125389099121,1.1048877239227295,-3.3360533714294434
1403715527817143000,-0.020751280710101128,0.04525519162416458,0.06526535004377365,7.92584753036499,0.10784026235342026,-3.05155348777771
1403715527822143000,-0.0024314001202583313,-0.06136427819728851,0.07092949002981186,8.693136215209961,0.19348569214344025,-3.1454334259033203
1403715527827143000,0.009317558258771896,0.026665858924388885,0.0944141075015068,10.69353199005127,0.844208300113678,-3.2539470195770264
1403715527832143000,-0.010270124301314354,0.024461768567562103,0.08330890536308289,7.965887069702148,-0.21295565366744995,-3.0678293704986572
1403715527837143000,0.011956479400396347,-0.0654217004776001,0.09483468532562256,10.47640609741211,1.0327625274658203,-3.4358625411987305
1403715527842143000,-0.01765482872724533,0.058983057737350464,0.0684620812535286,9.619721412658691,0.4990147054195404,-3.1709706783294678
1403715527847143000,-0.029209528118371964,-0.012305893003940582,0.044211070984601974,7.78746223449707,-0.13685554265975952,-2.977633237838745
1403715527852143000,0.010812275111675262,-0.030296238139271736,0.07779758423566818,10.913944244384766,0.5150509476661682,-3.443734884262085
1403715527857143000,-0.007619861513376236,0.1046522706747055,0.07595548033714294,9.135812759399414,0.004157275427132845,-3.226280450820923
1403715527862143000,0.0073135048151016235,-0.03771694004535675,0.08705819398164749,7.560985088348389,-0.1698545515537262,-2.996161699295044
1403715527867143000,0.021272599697113037,-0.003531854599714279,0.093526192009449,11.268671989440918,1.0153728723526,-3.7139506340026855
1403715527872143000,-0.009597837924957275,0.0843581110239029,0.09434255957603455,7.713441371917725,0.015790412202477455,-2.947728395462036
1403715527877143000,0.006557680666446686,-0.07273022830486298,0.0865451991558075,8.37276840209961,0.17812734842300415,-2.9784328937530518
1403715527882143000,-0.004700399935245514,0.043551504611968994,0.07034491747617722,11.063679695129395,0.9275487661361694,-3.7538397312164307
1403715527887143000,-0.02365979366004467,0.057552412152290344,0.048091400414705276,7.458433628082275,-0.1721058338880539,-2.677598476409912
1403715527892143000,0.004259377717971802,-0.0731644332408905,0.08137370645999908,10.641796112060547,0.5255093574523926,-3.391310453414917
1403715527897143000,-0.01211807131767273,0.10239067673683167,0.06518200784921646,9.206304550170898,-0.19689889252185822,-3.0670952796936035
1403715527902143000,0.016530685126781464,-0.03726043552160263,0.07900624722242355,7.746461868286133,0.1818007528781891,-2.998760938644409
1403715527907143000,0.010000508278608322,0.02353058010339737,0.0775347575545311,10.80738639831543,0.9865951538085938,-3.4118149280548096
1403715527912143000,-0.008740747347474098,0.09240696579217911,0.08055783063173294,8.262295722961426,0.06862788647413254,-2.602797746658325
1403715527917143000,0.006736248731613159,-0.057752855122089386,0.10917071998119354,8.62458324432373,0.30667656660079956,-3.048656463623047
1403715527922143000,-0.004087314009666443,0.06333214044570923,0.09590368717908859,10.89151382446289,0.16840140521526337,-3.696948289871216
1403715527927143000,0.0024628043174743652,0.026325464248657227,0.08625096827745438,7.850633144378662,0.07790771871805191,-2.825526475906372
1403715527932143000,0.00908036157488823,-0.03274974599480629,0.07036825269460678,9.90546989440918,0.7988324761390686,-3.4454057216644287
1403715527937143000,-0.009959418326616287,0.08180959522724152,0.07741248607635498,9.784412384033203,0.09002406895160675,-2.994150161743164
1403715527942143000,0.005991093814373016,-0.020986635237932205,0.07271983474493027,8.162378311157227,0.382464736700058,-3.5388762950897217
1403715527947143000,-0.009959045797586441,-0.004053197801113129,0.05812440812587738,10.791879653930664,-0.009435303509235382,-3.6219050884246826
1403715527952143000,-0.0022239796817302704,0.03332676738500595,0.06878133863210678,8.25586223602295,0.4097612798213959,-3.0289018154144287
1403715527957143000,-0.007073981687426567,-0.013542091473937035,0.05099125951528549,9.39042854309082,0.531725287437439,-3.249779462814331
1403715527962143000,0.0028931759297847748,0.05059005320072174,0.07885631918907166,9.753264427185059,0.06443381309509277,-3.286815881729126
1403715527967143000,0.006414782255887985,0.019253745675086975,0.07491255551576614,9.27159309387207,0.82269686460495,-3.545605421066284
1403715527972143000,-0.03173279017210007,0.04587504267692566,0.047668516635894775,9.930734634399414,0.07666637748479843,-3.6739912033081055
1403715527977143000,-0.0013614892959594727,0.05864745378494263,0.08123797923326492,8.771044731140137,0.5054298043251038,-3.0896852016448975
1403715527982143000,-0.017644919455051422,0.040694817900657654,0.0631035566329956,8.918574333190918,0.22768129408359528,-2.863002300262451
1403715527987143000,-1.726299524307251e-05,0.04396921396255493,0.0832800567150116,8.81533432006836,-0.23615218698978424,-3.035677909851074
1403715527992143000,0.018985863775014877,0.007338501513004303,0.0896962583065033,9.211008071899414,0.7328843474388123,-3.2254698276519775
1403715527997143000,-0.011607175692915916,0.049273885786533356,0.0560440793633461,8.791271209716797,-0.24881139397621155,-2.8188891410827637
1403715528002143000,0.02664390206336975,-0.010802295058965683,0.09838582575321198,9.008984565734863,0.7820211052894592,-3.0676746368408203
1403715528007143000,-0.004295092076063156,0.024083886295557022,0.04583744704723358,9.970662117004395,0.5317897796630859,-3.8484647274017334
1403715528012143000,0.012533951550722122,0.018866654485464096,0.06978803873062134,8.385942459106445,0.7129150629043579,-3.074418306350708
1403715528017143000,-0.005882613360881805,-0.003972483798861504,0.04586232081055641,10.199697494506836,0.28381264209747314,-3.1454641819000244
1403715528022143000,-0.01937970146536827,0.02291390299797058,0.05262726545333862,8.698683738708496,-0.2793305218219757,-2.9311792850494385
1403715528027143000,-0.007890105247497559,-0.0484539270401001,0.07848852872848511,8.932394027709961,0.7428520917892456,-2.991481304168701
1403715528032143000,-0.0435425229370594,0.029885996133089066,0.054631493985652924,10.413423538208008,0.3701231777667999,-3.3511247634887695
1403715528037143000,0.00018669292330741882,0.021819137036800385,0.113470658659935,8.652652740478516,0.4482419490814209,-3.039731979370117
1403715528042143000,-0.018847288563847542,0.018763698637485504,0.06727428734302521,9.913965225219727,-0.21611325442790985,-3.889685869216919
1403715528047143000,0.01196228712797165,0.06295056641101837,0.07800208777189255,8.959993362426758,-0.38343557715415955,-2.7283217906951904
1403715528052143000,0.02231542021036148,0.028282035142183304,0.05461107939481735,9.250075340270996,0.12438733875751495,-2.8923182487487793
1403715528057143000,-0.004616577178239822,0.04922637343406677,0.04638240858912468,8.937444686889648,-0.5927201509475708,-2.9738810062408447
1403715528062143000,0.02449633926153183,-0.009551610797643661,0.07432635873556137,8.967910766601562,0.5451282262802124,-3.2150144577026367
1403715528067143000,-0.019894905388355255,0.04392541944980621,0.06951377540826797,9.441926956176758,0.3716021776199341,-3.4986727237701416
1403715528072143000,0.00963391363620758,0.007710717618465424,0.13045115768909454,8.052987098693848,0.6158822178840637,-2.2761030197143555
1403715528077143000,-0.02201937511563301,-0.0062549058347940445,0.08377166837453842,10.168608665466309,0.14524945616722107,-3.685112476348877
1403715528082143000,-0.0035069361329078674,0.029716070741415024,0.10640490055084229,9.284005165100098,0.16120368242263794,-3.2187936305999756
1403715528087143000,-0.002076849341392517,0.016579069197177887,0.08873540163040161,9.476085662841797,0.8899217247962952,-3.2316339015960693
1403715528092143000,-0.014273256063461304,0.06764187663793564,0.08555656671524048,9.222381591796875,-0.260226845741272,-2.887017011642456
1403715528097143000,0.018855903297662735,0.0026025213301181793,0.09690883755683899,8.534258842468262,0.11589032411575317,-2.827592134475708
1403715528102143000,-0.009217614307999611,0.019194290041923523,0.052519891411066055,10.232906341552734,-0.15803764760494232,-3.5372250080108643
1403715528107143000,0.022409312427043915,0.03623031824827194,0.07756061851978302,8.378283500671387,0.3043349087238312,-2.5172622203826904
1403715528112143000,0.0011735931038856506,-0.011642269790172577,0.026248618960380554,9.858122825622559,0.1954086273908615,-3.6471638679504395
1403715528117143000,-0.003661505877971649,0.00974985957145691,0.05431099981069565,8.756973266601562,0.4640185236930847,-3.126840591430664
1403715528122143000,-0.012807212769985199,-0.00416337326169014,0.04523696005344391,9.396961212158203,0.6302870512008667,-3.4596545696258545
1403715528127143000,-0.02071569487452507,0.0368415042757988,0.05992668867111206,9.613448143005371,-0.6601036787033081,-3.1036784648895264
1403715528132143000,-0.0020940080285072327,-0.013010021299123764,0.0743812620639801,9.104061126708984,0.3633515238761902,-3.0105395317077637
1403715528137143000,-0.037901174277067184,0.015787720680236816,0.056500501930713654,9.685227394104004,0.42807039618492126,-3.773771286010742
1403715528142143000,-0.0020603276789188385,0.009277470409870148,0.09507959336042404,8.289995193481445,0.7213606238365173,-2.8039169311523438
1403715528147143000,-0.009107118472456932,-0.002429768443107605,0.08272621035575867,9.83270263671875,-0.0450977087020874,-3.3550093173980713
1403715528152143000,0.007029179483652115,0.03889543563127518,0.08388663083314896,9.2942533493042,-0.6245583295822144,-3.281464099884033
1403715528157143000,0.03225211799144745,-0.012630578130483627,0.09590871632099152,9.192795753479004,0.5633390545845032,-3.0457804203033447
1403715528162143000,0.022853299975395203,0.023500490933656693,0.1176401749253273,9.450841903686523,-0.47652485966682434,-3.0656344890594482
1403715528167143000,0.05182602256536484,-0.03352659195661545,0.1109173595905304,9.119240760803223,0.779189944267273,-3.0535809993743896
1403715528172143000,0.005858749151229858,0.005854420363903046,0.09394139051437378,9.559962272644043,0.7428720593452454,-3.68270206451416
1403715528177143000,0.010770946741104126,0.01062028855085373,0.10769487172365189,8.42037296295166,0.7632846236228943,-2.680283546447754
1403715528182143000,-0.03130277991294861,-0.007156485691666603,0.06706401705741882,10.184242248535156,0.20990972220897675,-3.61421275138855
1403715528187143000,-0.021720895543694496,0.047372713685035706,0.059140585362911224,9.919918060302734,0.22429433465003967,-3.330963373184204
1403715528192143000,-0.019545264542102814,0.02070494368672371,0.05604692921042442,9.247358322143555,1.070417881011963,-3.321086883544922
1403715528197143000,-0.027466118335723877,0.026259765028953552,0.057936497032642365,9.0028076171875,-0.3331087529659271,-3.2869324684143066
1403715528202143000,-0.0005754381418228149,-0.01789218932390213,0.06445673853158951,9.293704986572266,0.11520114541053772,-3.103710412979126
1403715528207143000,-0.013260679319500923,0.00542435422539711,0.041116178035736084,9.47161865234375,0.08091679215431213,-3.4705867767333984
1403715528212143000,0.029694780707359314,0.02316433936357498,0.1003311276435852,8.796876907348633,-0.003249816130846739,-3.00160813331604
1403715528217143000,0.006247475743293762,-0.00013379007577896118,0.06524679809808731,9.263994216918945,0.4229995906352997,-3.445450782775879
1403715528222143000,0.032255277037620544,0.043842196464538574,0.11462274938821793,8.404961585998535,0.5476368069648743,-2.646656036376953
