#timestamp [ns],w_RS_S_x [rad s^-1],w_RS_S_y [rad s^-1],w_RS_S_z [rad s^-1],a_RS_S_x [m s^-2],a_RS_S_y [m s^-2],a_RS_S_z [m s^-2]
1403715523912143000,-0.0006981317007977319,0.019547687622336492,0.0767944870877505,9.218250999999999,0.3023717083333333,-3.1544724166666662
1403715523917143000,-0.0006981317007977319,0.020943951023931952,0.07260569688296412,9.316317499999998,0.29419949999999995,-3.2525389166666665
1403715523922143000,-0.003490658503988659,0.023038346126325153,0.0747000919853573,9.210078791666666,0.29419949999999995,-3.178989041666666
1403715523927143000,-0.0027925268031909274,0.017453292519943295,0.07819075048934597,9.324489708333333,0.3023717083333333,-3.260711125
1403715523932143000,-0.003490658503988659,0.02234021442552742,0.08028514559173915,9.226423208333333,0.269682875,-3.195333458333333
1403715523937143000,-0.0027925268031909274,0.021642082724729686,0.08098327729253688,9.324489708333333,0.34323275000000003,-3.219850083333333
1403715523942143000,-0.0006981317007977319,0.024434609527920613,0.07749261878854824,9.226423208333333,0.34323275000000003,-3.178989041666666
1403715523947143000,0.0,0.01884955592153876,0.07819075048934597,9.299973083333333,0.35957716666666667,-3.178989041666666
1403715523952143000,0.0,0.020943951023931952,0.07888888219014369,9.234595416666666,0.3350605416666666,-3.211677875
1403715523957143000,-0.0020943951023931952,0.02024581932313422,0.07749261878854824,9.308145291666667,0.367749375,-3.2035056666666666
1403715523962143000,-0.0027925268031909274,0.024434609527920613,0.07958701389094143,9.201906583333333,0.3023717083333333,-3.138128
1403715523967143000,-0.0013962634015954637,0.02024581932313422,0.0767944870877505,9.291800875,0.34323275000000003,-3.170816833333333
1403715523972143000,-0.0013962634015954637,0.021642082724729686,0.07609635538695278,9.234595416666666,0.3105439166666667,-3.2035056666666666
1403715523977143000,-0.003490658503988659,0.02024581932313422,0.07539822368615504,9.291800875,0.35140495833333335,-3.219850083333333
1403715523982143000,-0.004886921905584123,0.023736477827122883,0.0767944870877505,9.259112041666667,0.3105439166666667,-3.18716125
1403715523987143000,-0.0027925268031909274,0.019547687622336492,0.07539822368615504,9.275456458333332,0.34323275000000003,-3.195333458333333
1403715523992143000,-0.003490658503988659,0.020943951023931952,0.07609635538695278,9.226423208333333,0.318716125,-3.211677875
1403715523997143000,-0.003490658503988659,0.017453292519943295,0.0747000919853573,9.242767624999999,0.35140495833333335,-3.219850083333333
1403715524002143000,-0.003490658503988659,0.01884955592153876,0.08028514559173915,9.226423208333333,0.29419949999999995,-3.170816833333333
1403715524007143000,-0.004886921905584123,0.01884955592153876,0.07819075048934597,9.283628666666665,0.35957716666666667,-3.211677875
1403715524012143000,-0.003490658503988659,0.023736477827122883,0.07539822368615504,9.226423208333333,0.3350605416666666,-3.2035056666666666
1403715524017143000,0.0006981317007977319,0.016755160819145562,0.07888888219014369,9.26728425,0.3350605416666666,-3.2035056666666666
1403715524022143000,-0.0027925268031909274,0.016755160819145562,0.07888888219014369,9.242767624999999,0.3023717083333333,-3.2035056666666666
1403715524027143000,-0.0013962634015954637,0.016755160819145562,0.07819075048934597,9.275456458333332,0.35140495833333335,-3.18716125
1403715524032143000,-0.0006981317007977319,0.02234021442552742,0.07819075048934597,9.259112041666667,0.318716125,-3.18716125
1403715524037143000,-0.0013962634015954637,0.023038346126325153,0.07609635538695278,9.283628666666665,0.318716125,-3.2035056666666666
1403715524042143000,0.0020943951023931952,0.023736477827122883,0.08377580409572781,9.242767624999999,0.3023717083333333,-3.170816833333333
1403715524047143000,-0.0013962634015954637,0.01815142422074103,0.0767944870877505,9.324489708333333,0.3350605416666666,-3.211677875
1403715524052143000,-0.0027925268031909274,0.021642082724729686,0.0767944870877505,9.26728425,0.3023717083333333,-3.195333458333333
1403715524057143000,-0.002427235245704651,0.020890263840556145,0.07890565693378448,9.280035972595215,0.3451369106769562,-3.2023732662200928
1403715524062143000,0.0024801716208457947,0.020236222073435783,0.0788717195391655,9.247401237487793,0.3125404417514801,-3.1696345806121826
1403715524067143000,0.002471640706062317,0.016034012660384178,0.07399213314056396,9.280116081237793,0.3451223075389862,-3.1941614151000977
1403715524072143000,-0.0017330348491668701,0.019497578963637352,0.07963928580284119,9.23106575012207,0.27199068665504456,-3.2023580074310303
1403715524077143000,-0.002448439598083496,0.014591215178370476,0.07466678321361542,9.304603576660156,0.3286950886249542,-3.1941680908203125
1403715524082143000,-0.0010784566402435303,0.018816469237208366,0.07538923621177673,9.182136535644531,0.328985333442688,-3.1942152976989746
1403715524087143000,-0.0002903789281845093,0.017428183928132057,0.07617378979921341,9.280055046081543,0.3531961143016815,-3.1860644817352295
1403715524092143000,-0.0010191798210144043,0.01880907081067562,0.07885070890188217,9.206473350524902,0.2798628509044647,-3.161517858505249
1403715524097143000,-0.0010604411363601685,0.018818778917193413,0.0781807005405426,9.263692855834961,0.32062065601348877,-3.1779062747955322
1403715524102143000,-0.0017796307802200317,0.023018667474389076,0.07825058698654175,9.19822883605957,0.280184805393219,-3.1696648597717285
1403715524107143000,-0.0031205415725708008,0.01880602352321148,0.07606275379657745,9.239262580871582,0.36147594451904297,-3.210655927658081
1403715524112143000,-0.003115743398666382,0.02159723825752735,0.07889150083065033,9.2229642868042,0.3450761139392853,-3.218738555908203
1403715524117143000,-0.003841593861579895,0.01881534792482853,0.08031902462244034,9.190226554870605,0.33682096004486084,-3.1780056953430176
1403715524122143000,-0.003142938017845154,0.025090506300330162,0.07955421507358551,9.198331832885742,0.30485999584198,-3.202380657196045
1403715524127143000,-0.0010320097208023071,0.022315872833132744,0.07611232995986938,9.263653755187988,0.3370881974697113,-3.1941771507263184
1403715524132143000,-0.0031398534774780273,0.01882261596620083,0.08101172745227814,9.222900390625,0.3286953866481781,-3.1860928535461426
1403715524137143000,-0.0024240389466285706,0.01947776786983013,0.08164871484041214,9.271843910217285,0.30426961183547974,-3.2268896102905273
1403715524142143000,-0.0017200261354446411,0.02368713729083538,0.07958140224218369,9.22282600402832,0.32926616072654724,-3.2105321884155273
1403715524147143000,-0.0017336085438728333,0.020214302465319633,0.07542537152767181,9.288268089294434,0.3450888693332672,-3.251358985900879
1403715524152143000,-0.0010345280170440674,0.02301873080432415,0.07747747004032135,9.271889686584473,0.2963009476661682,-3.2103888988494873
1403715524157143000,-0.0010221600532531738,0.020197784528136253,0.07888714969158173,9.255680084228516,0.37790438532829285,-3.177885055541992
1403715524162143000,-0.0024411380290985107,0.020864276215434074,0.07891994714736938,9.231074333190918,0.2962481677532196,-3.218640089035034
1403715524167143000,-0.002425640821456909,0.018798770383000374,0.07609619200229645,9.22277545928955,0.32047274708747864,-3.145265579223633
1403715524172143000,-0.0031321346759796143,0.021637720987200737,0.07816670835018158,9.247345924377441,0.2639073431491852,-3.1941864490509033
1403715524177143000,-0.0031578242778778076,0.020895274356007576,0.0768025666475296,9.263739585876465,0.35341551899909973,-3.218712091445923
1403715524182143000,-0.002432584762573242,0.020204370841383934,0.07821936905384064,9.280085563659668,0.29625174403190613,-3.1777641773223877
1403715524187143000,-0.0031111687421798706,0.021609609946608543,0.07680421322584152,9.25546646118164,0.32867348194122314,-3.169703245162964
1403715524192143000,-0.000338822603225708,0.02159423567354679,0.07816939800977707,9.222970962524414,0.3209024965763092,-3.202207326889038
1403715524197143000,0.001766495406627655,0.02019329182803631,0.07679533958435059,9.280061721801758,0.32070931792259216,-3.177849292755127
1403715524202143000,0.0017560496926307678,0.020905306562781334,0.07751686871051788,9.21466064453125,0.29643887281417847,-3.1942105293273926
1403715524207143000,0.0003659278154373169,0.017412008717656136,0.08028902113437653,9.280139923095703,0.33681291341781616,-3.194169044494629
1403715524212143000,-0.0010430440306663513,0.01951470784842968,0.0823657289147377,9.222990036010742,0.35316988825798035,-3.1698334217071533
1403715524217143000,-0.0010380446910858154,0.020886795595288277,0.07888543605804443,9.26370906829834,0.32894036173820496,-3.177950143814087
1403715524222143000,-0.0024271756410598755,0.023018894717097282,0.0761139914393425,9.271681785583496,0.2884227931499481,-3.1859207153320312
1403715524227143000,-0.0017314702272415161,0.019520418718457222,0.07959921658039093,9.280036926269531,0.31246787309646606,-3.1942083835601807
1403715524232143000,-0.005954138934612274,0.02089741639792919,0.07887110859155655,9.247331619262695,0.26348909735679626,-3.161569118499756
1403715524237143000,-0.0031457245349884033,0.017389090731739998,0.07538807392120361,9.296415328979492,0.3205992579460144,-3.1778111457824707
1403715524242143000,-0.0024245232343673706,0.024390077218413353,0.079611636698246,9.239298820495605,0.30453288555145264,-3.1860361099243164
1403715524247143000,-0.0024210363626480103,0.017450055107474327,0.07259051501750946,9.296455383300781,0.34500652551651,-3.194190263748169
1403715524252143000,0.0010761022567749023,0.021609319373965263,0.07750530540943146,9.280104637145996,0.31287604570388794,-3.24302339553833
1403715524257143000,-0.0017297565937042236,0.018108205869793892,0.07544435560703278,9.337325096130371,0.36140555143356323,-3.234820604324341
1403715524262143000,-0.0010467097163200378,0.022279435768723488,0.07604853808879852,9.263686180114746,0.28806763887405396,-3.1940693855285645
1403715524267143000,-0.0024056360125541687,0.021609192714095116,0.07611290365457535,9.271910667419434,0.35337236523628235,-3.1942431926727295
1403715524272143000,-0.0024325549602508545,0.023017873987555504,0.0782305970788002,9.222882270812988,0.3127993047237396,-3.202349901199341
1403715524277143000,-0.0031424015760421753,0.018119772896170616,0.07607071101665497,9.25551700592041,0.32858923077583313,-3.177994728088379
1403715524282143000,-0.0031411051750183105,0.019480181857943535,0.0740317702293396,9.206514358520508,0.2718602120876312,-3.2186503410339355
1403715524287143000,-0.0017405971884727478,0.019511057063937187,0.07191428542137146,9.222867012023926,0.32075807452201843,-3.161538600921631
1403715524292143000,-0.0010548830032348633,0.02231510542333126,0.0802524983882904,9.198282241821289,0.31258413195610046,-3.161552667617798
1403715524297143000,-0.0024022161960601807,0.021616173908114433,0.07473550736904144,9.296335220336914,0.34500497579574585,-3.2186193466186523
1403715524302143000,-0.003847673535346985,0.01951972208917141,0.07682327181100845,9.239160537719727,0.27995872497558594,-3.1940667629241943
1403715524307143000,-0.0024321377277374268,0.01667904667556286,0.07190185785293579,9.280056953430176,0.32894518971443176,-3.234935998916626
1403715524312143000,-0.002427712082862854,0.020895926281809807,0.07885176688432693,9.247448921203613,0.32086417078971863,-3.2022488117218018
1403715524317143000,-0.00311935693025589,0.01741870306432247,0.07680955529212952,9.222960472106934,0.3368661403656006,-3.186091661453247
1403715524322143000,-0.0038288235664367676,0.018134603276848793,0.08099941909313202,9.231083869934082,0.2882755994796753,-3.218755006790161
1403715524327143000,-0.003146059811115265,0.019521182402968407,0.08028456568717957,9.280110359191895,0.3534085154533386,-3.1697638034820557
1403715524332143000,-0.0003447607159614563,0.020190803334116936,0.07749150693416595,9.222718238830566,0.27179259061813354,-3.1778531074523926
1403715524337143000,-0.001013137400150299,0.018087776377797127,0.07541361451148987,9.296292304992676,0.3613233268260956,-3.169703245162964
1403715524342143000,-0.001748204231262207,0.021617436781525612,0.07678083330392838,9.23912525177002,0.24743571877479553,-3.202255964279175
1403715524347143000,-0.005937710404396057,0.016009612008929253,0.0781586691737175,9.296370506286621,0.3042696714401245,-3.2024483680725098
1403715524352143000,-0.005248218774795532,0.02089734561741352,0.08240573108196259,9.23121452331543,0.30465564131736755,-3.218628168106079
1403715524357143000,-0.004507474601268768,0.02163117192685604,0.07542143762111664,9.280263900756836,0.3530440926551819,-3.2186360359191895
1403715524362143000,-0.00662665069103241,0.025109319016337395,0.07819309830665588,9.20658016204834,0.2882339060306549,-3.1614880561828613
1403715524367143000,-0.0038293451070785522,0.018108749762177467,0.0747060477733612,9.239330291748047,0.3370932340621948,-3.1942267417907715
1403715524372143000,-0.001751527190208435,0.02159004472196102,0.07884682714939117,9.222908020019531,0.31272226572036743,-3.1697850227355957
1403715524377143000,0.0003641843795776367,0.01878892444074154,0.07680895179510117,9.230907440185547,0.32055962085723877,-3.1942834854125977
1403715524382143000,-0.0003192499279975891,0.02369178645312786,0.07823171466588974,9.190030097961426,0.2802339196205139,-3.1778757572174072
1403715524387143000,0.0010672807693481445,0.01745620183646679,0.07541139423847198,9.296392440795898,0.32076215744018555,-3.234861135482788
1403715524392143000,-0.0010588988661766052,0.021603768691420555,0.07749737054109573,9.206551551818848,0.2961154878139496,-3.13708758354187
1403715524397143000,-0.0017248988151550293,0.01949097402393818,0.0781724601984024,9.296353340148926,0.3123187720775604,-3.210456132888794
1403715524402143000,-0.0010286718606948853,0.0222922395914793,0.08235282450914383,9.222867012023926,0.27204301953315735,-3.177781105041504
1403715524407143000,-0.002451866865158081,0.01812274567782879,0.0775064155459404,9.263761520385742,0.3288772702217102,-3.21870756149292
1403715524412143000,-0.003132261335849762,0.020202821120619774,0.07613186538219452,9.231112480163574,0.3206842541694641,-3.1370909214019775
1403715524417143000,-0.003828108310699463,0.020892037078738213,0.07821007072925568,9.320876121520996,0.30401965975761414,-3.1940553188323975
1403715524422143000,-0.0003546178340911865,0.01951427571475506,0.07606662064790726,9.2718505859375,0.32918182015419006,-3.2023561000823975
1403715524427143000,-0.0031261444091796875,0.019525552168488503,0.07396870851516724,9.280088424682617,0.3371098041534424,-3.177900791168213
1403715524432143000,-0.0024205073714256287,0.02160017378628254,0.07820981740951538,9.263696670532227,0.3045303523540497,-3.169562578201294
1403715524437143000,-0.00242479145526886,0.021570323035120964,0.07191257178783417,9.312644004821777,0.3041161894798279,-3.2022178173065186
1403715524442143000,-0.003153383731842041,0.02022879756987095,0.08102201670408249,9.239335060119629,0.3371891677379608,-3.153486728668213
1403715524447143000,-0.005211338400840759,0.022305166348814964,0.07124581933021545,9.288216590881348,0.27172958850860596,-3.2022953033447266
1403715524452143000,-0.0038369745016098022,0.02090575359761715,0.0781182050704956,9.255534172058105,0.2963698208332062,-3.1532745361328125
1403715524457143000,-0.004540607333183289,0.022979458793997765,0.07821470499038696,9.296445846557617,0.30414891242980957,-3.210484743118286
1403715524462143000,-0.0010378435254096985,0.02094102092087269,0.07959163188934326,9.255617141723633,0.3126395344734192,-3.1941261291503906
1403715524467143000,-0.0010150671005249023,0.022994427010416985,0.07401162385940552,9.271838188171387,0.3046436607837677,-3.2021968364715576
1403715524472143000,0.0010394752025604248,0.02299567125737667,0.08032630383968353,9.247330665588379,0.33706972002983093,-3.1616008281707764
1403715524477143000,-0.0017265528440475464,0.01949384994804859,0.08232861757278442,9.28834342956543,0.33679407835006714,-3.1860249042510986
1403715524482143000,-0.0017348229885101318,0.020912883803248405,0.08165286481380463,9.2147798538208,0.32916057109832764,-3.2023704051971436
1403715524487143000,-0.0017306208610534668,0.022997139021754265,0.0824388861656189,9.288143157958984,0.3210134208202362,-3.226837396621704
1403715524492143000,-0.0010423660278320312,0.019522840157151222,0.08375273644924164,9.255545616149902,0.30429691076278687,-3.2105040550231934
1403715524497143000,-0.0045128390192985535,0.020205726847052574,0.07746469229459763,9.271865844726562,0.30437567830085754,-3.2105135917663574
1403715524502143000,-0.0038516223430633545,0.018116647377610207,0.07613545656204224,9.27184772491455,0.2881874442100525,-3.1858971118927
1403715524507143000,-0.005231380462646484,0.022975070402026176,0.07467605173587799,9.255550384521484,0.3288666903972626,-3.210536479949951
1403715524512143000,-0.0010364353656768799,0.016715964302420616,0.07676050812005997,9.255593299865723,0.35317909717559814,-3.210510730743408
1403715524517143000,-0.001010701060295105,0.02022665925323963,0.07545524090528488,9.239259719848633,0.33712753653526306,-3.2186641693115234
1403715524522143000,-0.0038418173789978027,0.01950456015765667,0.07471597194671631,9.263775825500488,0.3452706038951874,-3.194161891937256
1403715524527143000,-0.005242243409156799,0.021583715453743935,0.07608872652053833,9.231019020080566,0.29633060097694397,-3.226820468902588
1403715524532143000,-0.002425447106361389,0.018836429342627525,0.07330891489982605,9.304522514343262,0.33706656098365784,-3.2022616863250732
1403715524537143000,-0.0038167014718055725,0.022307800129055977,0.07609544694423676,9.280013084411621,0.2963998317718506,-3.2104337215423584
1403715524542143000,-0.004516676068305969,0.019499560818076134,0.07820571959018707,9.23917293548584,0.3206230103969574,-3.186025857925415
1403715524547143000,-0.005231976509094238,0.02157505415380001,0.08029623329639435,9.247389793395996,0.3208981156349182,-3.2105185985565186
1403715524552143000,-0.003167547285556793,0.021632270887494087,0.07959803938865662,9.26380729675293,0.3453512191772461,-3.226872444152832
1403715524557143000,-0.001717984676361084,0.02510453574359417,0.08167144656181335,9.24732780456543,0.3045237064361572,-3.1942503452301025
1403715524562143000,-0.0010049492120742798,0.020193153992295265,0.07886162400245667,9.231054306030273,0.3124658465385437,-3.1941962242126465
1403715524567143000,-0.002448342740535736,0.020202940329909325,0.07540354132652283,9.190292358398438,0.32892394065856934,-3.243161916732788
1403715524572143000,-0.005948647856712341,0.01670639030635357,0.07820923626422882,9.296477317810059,0.34520423412323,-3.2349984645843506
1403715524577143000,-0.001027911901473999,0.02159062586724758,0.07748720049858093,9.247307777404785,0.29618677496910095,-3.1941566467285156
1403715524582143000,-0.00030647963285446167,0.020913181826472282,0.07331518828868866,9.296366691589355,0.3126623034477234,-3.2104289531707764
1403715524587143000,-0.0010248944163322449,0.02303052507340908,0.07960618287324905,9.312586784362793,0.28015610575675964,-3.2185518741607666
1403715524592143000,-0.00311887264251709,0.014619287103414536,0.07604199647903442,9.329180717468262,0.3452110290527344,-3.2267770767211914
1403715524597143000,0.001036524772644043,0.02225060947239399,0.07957528531551361,9.296433448791504,0.3043648898601532,-3.218545436859131
1403715524602143000,-0.001730114221572876,0.020889950916171074,0.08105770498514175,9.32082748413086,0.28808706998825073,-3.2348814010620117
1403715524607143000,-0.0031144991517066956,0.02232891134917736,0.0774635449051857,9.239285469055176,0.32100507616996765,-3.1860668659210205
1403715524612143000,-0.0045146942138671875,0.02164088748395443,0.07470051944255829,9.3291654586792,0.3369660973548889,-3.243074893951416
1403715524617143000,-0.0024803131818771362,0.023686068132519722,0.08103811740875244,9.247401237487793,0.31253695487976074,-3.218696117401123
1403715524622143000,-0.0024048686027526855,0.02576552890241146,0.07742853462696075,9.280069351196289,0.3453461825847626,-3.2432563304901123
1403715524627143000,-0.0017264187335968018,0.019523384049534798,0.08027411997318268,9.255500793457031,0.2963424324989319,-3.2022886276245117
1403715524632143000,-0.00033715367317199707,0.019506825134158134,0.07546278089284897,9.329055786132812,0.32874634861946106,-3.226673126220703
1403715524637143000,-0.0024485215544700623,0.02227727882564068,0.07884614914655685,9.214653015136719,0.27998194098472595,-3.1779305934906006
1403715524642143000,-0.00380803644657135,0.018101448193192482,0.07751507312059402,9.288260459899902,0.3288510739803314,-3.1942241191864014
1403715524647143000,-0.0010532662272453308,0.02164575643837452,0.08171435445547104,9.230923652648926,0.25558310747146606,-3.1777851581573486
1403715524652143000,-0.0003340393304824829,0.018810203298926353,0.07884250581264496,9.296374320983887,0.33695170283317566,-3.2186667919158936
1403715524657143000,-0.0010249614715576172,0.0201831366866827,0.08168751001358032,9.231131553649902,0.3369836211204529,-3.161613941192627
1403715524662143000,-0.0031239762902259827,0.019485188648104668,0.07682548463344574,9.255477905273438,0.30433034896850586,-3.218658208847046
1403715524667143000,-0.0024616271257400513,0.021640213206410408,0.08026951551437378,9.255460739135742,0.34544870257377625,-3.169738531112671
1403715524672143000,-0.0024378597736358643,0.020918307825922966,0.08099355548620224,9.247371673583984,0.32863202691078186,-3.186099052429199
1403715524677143000,-0.0003040581941604614,0.02018439583480358,0.07747366279363632,9.288200378417969,0.3205548822879791,-3.1532998085021973
1403715524682143000,-0.0017292499542236328,0.023709086701273918,0.07750630378723145,9.279874801635742,0.2802295386791229,-3.2104387283325195
1403715524687143000,-0.002459123730659485,0.020212968811392784,0.07752790302038193,9.222794532775879,0.2963533103466034,-3.1616954803466797
1403715524692143000,-0.003134399652481079,0.021595297381281853,0.07746855914592743,9.296496391296387,0.32047039270401,-3.218672752380371
1403715524697143000,-0.004534907639026642,0.018106913194060326,0.07680453360080719,9.25567626953125,0.3287194073200226,-3.1696643829345703
1403715524702143000,-0.004515953361988068,0.018779931589961052,0.0740051195025444,9.239238739013672,0.2961890995502472,-3.2186830043792725
1403715524707143000,-0.0003234446048736572,0.013244165107607841,0.07607865333557129,9.28835391998291,0.3371058404445648,-3.1614882946014404
1403715524712143000,-0.0038477182388305664,0.019503409042954445,0.0726538822054863,9.263678550720215,0.2715211808681488,-3.19402813911438
1403715524717143000,-0.0031442418694496155,0.016734251752495766,0.07681287825107574,9.271913528442383,0.32075318694114685,-3.202364921569824
1403715524722143000,-0.003818124532699585,0.020903339609503746,0.08027421683073044,9.214750289916992,0.3044095039367676,-3.194247245788574
1403715524727143000,-0.00523754209280014,0.018834909424185753,0.07678313553333282,9.22293472290039,0.33722084760665894,-3.2105400562286377
1403715524732143000,-0.0017276108264923096,0.022981425747275352,0.07611314207315445,9.247296333312988,0.2963087856769562,-3.194110631942749
1403715524737143000,0.0003817826509475708,0.016022643074393272,0.07890862226486206,9.304727554321289,0.3777655065059662,-3.1778416633605957
1403715524742143000,-0.004553109407424927,0.02439062111079693,0.07956762611865997,9.263704299926758,0.29624348878860474,-3.226759195327759
1403715524747143000,-0.0017295926809310913,0.02023058943450451,0.07680126279592514,9.279928207397461,0.33724531531333923,-3.1941263675689697
1403715524752143000,-0.0010147541761398315,0.021600892767310143,0.07960065454244614,9.214625358581543,0.28809306025505066,-3.1779091358184814
1403715524757143000,-0.0038392096757888794,0.01881820522248745,0.07535989582538605,9.304556846618652,0.320384681224823,-3.1614737510681152
1403715524762143000,-0.0024229884147644043,0.018780766054987907,0.07681069523096085,9.247336387634277,0.2881012260913849,-3.145131826400757
1403715524767143000,-0.007339566946029663,0.024378208443522453,0.07614220678806305,9.239245414733887,0.3291015923023224,-3.226947069168091
1403715524772143000,-0.007369525730609894,0.025823263451457024,0.07744210213422775,9.222895622253418,0.34530332684516907,-3.1289610862731934
1403715524777143000,-0.003085702657699585,0.020238878205418587,0.06912132352590561,9.353547096252441,0.2714588940143585,-3.2755208015441895
1403715524782143000,-0.010103531181812286,0.013890549540519714,0.08033482730388641,9.027460098266602,0.6229875683784485,-3.121471881866455
1403715524787143000,-0.022027328610420227,0.017359433695673943,0.08374971151351929,9.452420234680176,0.5650457739830017,-3.308516025543213
1403715524792143000,-0.028319373726844788,0.025098295882344246,0.08653649687767029,9.222508430480957,0.22261446714401245,-3.161625862121582
1403715524797143000,-0.014341212809085846,0.01114114373922348,0.08799173682928085,9.27961254119873,-0.0951569676399231,-3.1286237239837646
1403715524802143000,0.018565058708190918,0.036995284259319305,0.06900357455015182,9.38460922241211,-0.617653489112854,-3.086641788482666
1403715524807143000,0.05568930506706238,0.01249803975224495,0.0719284638762474,9.001310348510742,-0.0785607248544693,-3.0629563331604004
1403715524812143000,0.06122010946273804,0.024331768974661827,0.044074468314647675,9.598320007324219,0.18961189687252045,-3.3238775730133057
1403715524817143000,0.03742021322250366,0.029882224276661873,0.05224069952964783,8.767136573791504,1.3979071378707886,-3.0565097332000732
1403715524822143000,-0.019847199320793152,0.0016793962568044662,0.08180509507656097,9.391718864440918,1.7894785404205322,-3.5050439834594727
1403715524827143000,-0.0878048986196518,0.028490131720900536,0.09557858109474182,9.044909477233887,1.1198763847351074,-3.195574998855591
1403715524832143000,-0.11017262190580368,0.012581828981637955,0.11095389723777771,9.223395347595215,0.09389927238225937,-3.219576597213745
1403715524837143000,-0.07173335552215576,0.01887563429772854,0.10601939260959625,9.384298324584961,-1.198767066001892,-2.980695962905884
1403715524842143000,0.0017201676964759827,0.028649011626839638,0.08630678802728653,9.293940544128418,-1.1408618688583374,-3.078122854232788
1403715524847143000,0.06402391195297241,0.010368876159191132,0.08168758451938629,9.2293701171875,-0.5704163908958435,-2.965050220489502
1403715524852143000,0.08291888236999512,0.01733059622347355,0.05732183903455734,9.532564163208008,0.12328100949525833,-3.2988078594207764
1403715524857143000,0.07656191289424896,0.04381456971168518,0.07390742003917694,9.093965530395508,0.9341484308242798,-3.217726707458496
1403715524862143000,0.03754565864801407,0.016815675422549248,0.07544612884521484,9.111828804016113,1.048157811164856,-3.259303092956543
1403715524867143000,0.004055023193359375,0.03685790300369263,0.08722776174545288,9.61858081817627,1.1291065216064453,-3.4458868503570557
1403715524872143000,-0.03321698307991028,0.03149876743555069,0.09207893908023834,8.627718925476074,0.8181008100509644,-3.0569522380828857
1403715524877143000,-0.04728062450885773,0.011110866442322731,0.09424319118261337,9.974774360656738,0.5476107001304626,-3.4717745780944824
1403715524882143000,-0.06066729128360748,0.0557899996638298,0.08732058107852936,8.543498039245605,0.2318633794784546,-2.8371341228485107
1403715524887143000,-0.045228131115436554,-0.005501704290509224,0.08452460169792175,9.56552505493164,-0.08751285076141357,-3.415151834487915
1403715524892143000,-0.01718871295452118,0.05634719878435135,0.06983931362628937,9.424431800842285,-0.509955108165741,-2.989325523376465
1403715524897143000,0.019871070981025696,0.004856754094362259,0.07469910383224487,8.748550415039062,-0.3717847168445587,-3.0549135208129883
1403715524902143000,0.04943758249282837,0.027120107784867287,0.059922002255916595,9.719932556152344,-0.21145837008953094,-3.257725238800049
1403715524907143000,0.05777180194854736,0.02584345079958439,0.06691334396600723,8.92939281463623,0.423714280128479,-3.0703330039978027
1403715524912143000,0.043911248445510864,0.01242985762655735,0.06359738856554031,9.323317527770996,0.8896037340164185,-3.406158685684204
1403715524917143000,0.010978102684020996,0.03633948415517807,0.06991419196128845,9.322648048400879,0.8514501452445984,-3.1613638401031494
1403715524922143000,-0.01635027676820755,0.030584273859858513,0.07898832857608795,9.175820350646973,1.065956950187683,-3.3333253860473633
1403715524927143000,-0.04449103772640228,0.026657944545149803,0.08730000257492065,9.157669067382812,0.4931219220161438,-3.1143150329589844
1403715524932143000,-0.05156927555799484,0.03265419602394104,0.09484520554542542,9.214325904846191,0.2902698516845703,-3.1864826679229736
1403715524937143000,-0.042480528354644775,0.016647299751639366,0.09695830196142197,8.952628135681152,-0.11010360717773438,-3.0238077640533447
1403715524942143000,-0.013762637972831726,0.011833501979708672,0.09621746093034744,9.385014533996582,-0.36576348543167114,-3.169224500656128
1403715524947143000,0.013638049364089966,0.022106343880295753,0.07330506294965744,9.238080978393555,-0.23549053072929382,-3.1280856132507324
1403715524952143000,0.03604274243116379,0.0029484331607818604,0.07199842482805252,9.206537246704102,-0.0726001188158989,-3.1446523666381836
1403715524957143000,0.0445333868265152,0.025671454146504402,0.06425510346889496,9.598711967468262,0.328008234500885,-3.2419421672821045
1403715524962143000,0.036878786981105804,0.02453155256807804,0.07114522904157639,9.077006340026855,0.646169900894165,-3.202277421951294
1403715524967143000,0.019532673060894012,0.02368963323533535,0.07685451954603195,9.436946868896484,0.8648308515548706,-3.324396848678589
1403715524972143000,-0.008629582822322845,0.03058614395558834,0.08860687166452408,9.167074203491211,0.8264839053153992,-3.145503044128418
1403715524977143000,-0.03259531408548355,0.016034932807087898,0.08649168908596039,9.125490188598633,0.689441442489624,-3.2357139587402344
1403715524982143000,-0.04319456219673157,0.018750162795186043,0.08243271708488464,9.345746040344238,0.28296369314193726,-3.1866068840026855
1403715524987143000,-0.03902217000722885,0.01877341978251934,0.07330445945262909,9.311713218688965,-0.19087401032447815,-3.243072748184204
1403715524992143000,-0.008153103291988373,0.021714026108384132,0.0669936016201973,9.3197021484375,-0.33912569284439087,-3.2347521781921387
1403715524997143000,0.0339602455496788,0.02991045080125332,0.07336258888244629,9.369000434875488,-0.09520713239908218,-3.176940679550171
1403715525002143000,0.041726142168045044,0.03630942106246948,0.08379604667425156,9.141057968139648,0.5388811826705933,-3.1938962936401367
1403715525007143000,0.014507830142974854,0.027101589366793633,0.08790173381567001,9.184891700744629,1.2155189514160156,-3.1867566108703613
1403715525012143000,-0.03103329986333847,0.01721191592514515,0.10538601875305176,9.037317276000977,1.1911461353302002,-3.1381514072418213
1403715525017143000,-0.07724209874868393,0.015311995521187782,0.08021768182516098,9.158934593200684,0.7857932448387146,-3.3503739833831787
1403715525022143000,-0.07019093632698059,0.009701233357191086,0.08784835040569305,9.459601402282715,-0.19241975247859955,-3.177368640899658
1403715525027143000,-0.03730231523513794,0.031454361975193024,0.07543189823627472,9.237483978271484,-0.8124493360519409,-3.0789990425109863
1403715525032143000,0.03589579463005066,0.018227698281407356,0.056403640657663345,9.359902381896973,-1.2133336067199707,-3.183492422103882
1403715525037143000,0.10096724331378937,0.03965930640697479,0.07126514613628387,9.376232147216797,-0.13453462719917297,-2.9396448135375977
1403715525042143000,0.10597197711467743,0.02707081474363804,0.06353055685758591,8.938494682312012,1.0640637874603271,-3.1369786262512207
1403715525047143000,0.06276653707027435,0.00020914338529109955,0.06264164298772812,9.080148696899414,1.7409943342208862,-3.2519683837890625
1403715525052143000,-0.020551130175590515,0.008742015808820724,0.07136208564043045,9.300883293151855,1.5857796669006348,-3.382436513900757
1403715525057143000,-0.06749215722084045,0.009091673418879509,0.0795632153749466,9.339447975158691,0.8174346089363098,-3.350053071975708
1403715525062143000,-0.07508163154125214,0.016164792701601982,0.09345391392707825,9.25642204284668,0.4343182146549225,-3.325669050216675
1403715525067143000,-0.06383655965328217,0.028061186894774437,0.09231086075305939,9.360569953918457,-0.13849250972270966,-3.129349946975708
1403715525072143000,-0.03468414396047592,0.018127067014575005,0.09765909612178802,9.049469947814941,-0.44804099202156067,-3.0069122314453125
1403715525077143000,-0.006123870611190796,0.013610228896141052,0.07806232571601868,9.156573295593262,-0.30640214681625366,-3.194082498550415
1403715525082143000,0.03170137107372284,0.009536990895867348,0.08728078007698059,9.360695838928223,-0.28095513582229614,-2.9891598224639893
1403715525087143000,0.04795710742473602,0.01466776616871357,0.07391801476478577,9.377630233764648,-0.20798687636852264,-3.2415969371795654
1403715525092143000,0.06139972805976868,0.014670463278889656,0.06555637717247009,9.517878532409668,0.4604136645793915,-3.3477988243103027
1403715525097143000,0.05498957633972168,0.035062551498413086,0.09303106367588043,9.217007637023926,0.8002442121505737,-3.136216163635254
1403715525102143000,0.008867889642715454,0.02010674960911274,0.08932407945394516,9.201255798339844,1.3479387760162354,-3.349679708480835
1403715525107143000,-0.032431021332740784,0.024941911920905113,0.08927509188652039,9.445064544677734,0.9967547059059143,-3.1538944244384766
1403715525112143000,-0.061990149319171906,0.034860312938690186,0.09717239439487457,8.757258415222168,0.7064478397369385,-2.9844682216644287
1403715525117143000,-0.0690041109919548,0.0019322186708450317,0.08286574482917786,9.28011703491211,0.13543015718460083,-3.2283031940460205
1403715525122143000,-0.04309650510549545,0.018850063905119896,0.0815543532371521,9.482678413391113,-0.3646385967731476,-3.185622215270996
1403715525127143000,-0.009486965835094452,0.02728363685309887,0.07007509469985962,9.262574195861816,-0.31769299507141113,-3.226766586303711
1403715525132143000,0.02614268660545349,0.025716377422213554,0.06343453377485275,9.25426197052002,-0.3583948314189911,-3.152026891708374
1403715525137143000,0.0445212796330452,0.0391312912106514,0.07188335061073303,9.336447715759277,0.09240712225437164,-3.127157211303711
1403715525142143000,0.04601864516735077,0.025810515508055687,0.06223522499203682,9.019940376281738,0.531545102596283,-3.1858835220336914
1403715525147143000,0.035464733839035034,0.004676796495914459,0.066896453499794,9.371835708618164,0.6934295892715454,-3.1777777671813965
1403715525152143000,0.010262072086334229,0.01935339905321598,0.07058428227901459,9.028780937194824,0.8272982835769653,-3.203165054321289
1403715525157143000,-0.0226471945643425,0.00567062571644783,0.07405004650354385,9.330536842346191,0.8365965485572815,-3.2929863929748535
1403715525162143000,-0.04165554791688919,0.023078372702002525,0.08444500714540482,9.467767715454102,0.49994340538978577,-3.332852840423584
1403715525167143000,-0.05426117777824402,0.027308767661452293,0.08665789663791656,9.173752784729004,0.29770907759666443,-3.186706781387329
1403715525172143000,-0.03760373592376709,0.028566962108016014,0.09485987573862076,9.132063865661621,-0.04414850100874901,-3.0801100730895996
1403715525177143000,-0.014504693448543549,0.019328339025378227,0.08995974063873291,9.245609283447266,-0.4279167056083679,-3.054875135421753
1403715525182143000,0.014225982129573822,0.0166372861713171,0.08311676979064941,9.07507610321045,-0.25892964005470276,-3.1124465465545654
1403715525187143000,0.032617583870887756,0.011787451803684235,0.08863639086484909,9.394824028015137,0.1551060676574707,-3.2510581016540527
1403715525192143000,0.03342574089765549,0.01463988609611988,0.08308345079421997,9.32974910736084,0.44753485918045044,-3.2183539867401123
1403715525197143000,0.014578282833099365,0.023173751309514046,0.07957971841096878,9.346829414367676,0.8240500092506409,-3.243048906326294
1403715525202143000,-0.010700099170207977,0.01814058981835842,0.09074568748474121,9.452533721923828,0.6455362439155579,-3.193559408187866
1403715525207143000,-0.024133756756782532,0.01942545361816883,0.08861211687326431,9.108458518981934,0.10159841179847717,-3.096090316772461
1403715525212143000,-0.0025697797536849976,0.013844000175595284,0.08787814527750015,9.205880165100098,-0.27167338132858276,-3.079718828201294
1403715525217143000,0.03314147889614105,0.011720944195985794,0.07192179560661316,9.401077270507812,-0.3870699405670166,-3.2748522758483887
1403715525222143000,0.04713539779186249,0.025179514661431313,0.063545823097229,9.304455757141113,0.2479800581932068,-3.104236125946045
1403715525227143000,0.035948753356933594,0.018818924203515053,0.05730423703789711,9.347246170043945,0.9404430985450745,-3.439152717590332
1403715525232143000,-0.0031592249870300293,0.03121810592710972,0.06362902373075485,9.315692901611328,1.4958730936050415,-3.34964919090271
1403715525237143000,-0.0625852569937706,0.03262684494256973,0.08373834937810898,9.078442573547363,1.3806467056274414,-3.268937349319458
1403715525242143000,-0.10233338922262192,0.01804652251303196,0.08649782836437225,9.060928344726562,0.7519030570983887,-3.106137990951538
1403715525247143000,-0.09256211668252945,0.020846867933869362,0.11096730828285217,9.058661460876465,-0.3257044851779938,-2.974271774291992
1403715525252143000,-0.05071303993463516,0.005543168634176254,0.08994251489639282,9.295446395874023,-1.0857748985290527,-3.250544309616089
1403715525257143000,0.022096067667007446,0.01806497387588024,0.08990657329559326,9.473335266113281,-0.8797048926353455,-2.882707118988037
1403715525262143000,0.06267203390598297,0.020975111052393913,0.06641052663326263,9.360837936401367,-0.08607980608940125,-3.315221071243286
1403715525267143000,0.07723566889762878,0.018829813227057457,0.048805586993694305,9.116808891296387,0.48458003997802734,-3.0950233936309814
1403715525272143000,0.06200161576271057,0.03128329664468765,0.0747140571475029,9.338767051696777,1.0820484161376953,-3.217308521270752
1403715525277143000,0.017201751470565796,0.022177306935191154,0.07051452994346619,9.250428199768066,0.96685391664505,-3.2016496658325195
1403715525282143000,-0.016374126076698303,0.02847929857671261,0.09411197900772095,9.029794692993164,1.1948411464691162,-3.195089340209961
1403715525287143000,-0.053504250943660736,0.006231701001524925,0.09082351624965668,9.07695484161377,0.6613670587539673,-3.081719160079956
1403715525292143000,-0.057058610022068024,0.01258774846792221,0.1067231222987175,9.198419570922852,0.4652414619922638,-3.1059908866882324
1403715525297143000,-0.06198365241289139,-0.004275922663509846,0.07186532765626907,9.507902145385742,-0.20233115553855896,-3.235145330429077
1403715525302143000,-0.029758140444755554,0.009695766493678093,0.08042359352111816,9.188934326171875,-0.062045156955718994,-3.080772638320923
1403715525307143000,-0.0003514215350151062,0.009039821103215218,0.06553465127944946,9.360445976257324,-0.6343895196914673,-3.086559534072876
1403715525312143000,0.03464731574058533,0.008943211287260056,0.06405119597911835,9.4990816116333,-0.15269815921783447,-3.2901506423950195
1403715525317143000,0.0620419979095459,0.02230590395629406,0.06994497030973434,9.248114585876465,0.09974782913923264,-3.086793899536133
1403715525322143000,0.05503065884113312,0.012517711147665977,0.07392481714487076,9.19217300415039,0.7021308541297913,-3.1856517791748047
1403715525327143000,0.028436437249183655,0.0033813323825597763,0.07598207890987396,8.956047058105469,1.0711450576782227,-3.2189807891845703
1403715525332143000,-0.018488049507141113,0.0006838422268629074,0.07491141557693481,9.535325050354004,0.9742270708084106,-3.316908836364746
1403715525337143000,-0.04303862154483795,0.02158690057694912,0.08100033551454544,9.305891036987305,0.7971959710121155,-3.4072818756103516
1403715525342143000,-0.05636518448591232,0.006996696814894676,0.0816541239619255,9.084113121032715,0.39528658986091614,-3.1952126026153564
1403715525347143000,-0.044468849897384644,0.025853140279650688,0.09216421097517014,9.540032386779785,0.03582208231091499,-3.3736343383789062
1403715525352143000,-0.0235484316945076,0.030006365850567818,0.0864756777882576,9.033568382263184,-0.23394140601158142,-3.121090888977051
1403715525357143000,0.003020085394382477,0.020009217783808708,0.08366662263870239,9.181410789489746,-0.2088552862405777,-3.169318437576294
1403715525362143000,0.023455306887626648,0.03001951240003109,0.07128804177045822,9.08366584777832,-0.007572019472718239,-3.0874571800231934
1403715525367143000,0.03958851099014282,0.00492006354033947,0.07891923189163208,9.149372100830078,0.20468898117542267,-3.1693177223205566
1403715525372143000,0.02923351526260376,0.018093174323439598,0.0628509670495987,9.52531909942627,0.4249224066734314,-3.299886703491211
1403715525377143000,0.022893913090229034,0.024391723796725273,0.07336843758821487,9.1261625289917,0.688584566116333,-3.201982021331787
1403715525382143000,0.004046425223350525,0.02024838514626026,0.07401388883590698,9.444334030151367,0.7753127217292786,-3.3164126873016357
1403715525387143000,-0.018509335815906525,0.03066718392074108,0.07177149504423141,9.329115867614746,0.7210197448730469,-3.284022331237793
1403715525392143000,-0.029789626598358154,0.02990453504025936,0.08380164206027985,9.133269309997559,0.42038244009017944,-3.1538074016571045
1403715525397143000,-0.019413180649280548,0.018020426854491234,0.0907793641090393,9.116216659545898,-0.010047981515526772,-3.00681209564209
1403715525402143000,-0.008246839046478271,0.010379988700151443,0.08232159912586212,9.01003360748291,0.06965222209692001,-2.9907798767089844
1403715525407143000,-0.011617429554462433,-0.006957213394343853,0.07553702592849731,9.256017684936523,0.4833875298500061,-3.3091535568237305
1403715525412143000,-0.021970540285110474,0.011753780767321587,0.07547824084758759,9.411574363708496,0.6529537439346313,-3.4476265907287598
1403715525417143000,-0.03670068085193634,0.012530766427516937,0.07109157741069794,9.231229782104492,0.2450932264328003,-3.267580032348633
1403715525422143000,-0.026742778718471527,0.03293544054031372,0.0886395052075386,9.352914810180664,-0.1700693964958191,-3.2832350730895996
1403715525427143000,0.011061325669288635,0.022967973724007607,0.07741367071866989,9.196930885314941,-0.6601758003234863,-2.8987560272216797
1403715525432143000,0.060567885637283325,0.0221662949770689,0.08089260756969452,9.115226745605469,-0.5849713683128357,-2.93192720413208
1403715525437143000,0.09683306515216827,0.012414487078785896,0.06789839267730713,9.205846786499023,-0.05416128784418106,-3.0627992153167725
1403715525442143000,0.08430695533752441,-0.0057600270956754684,0.060020238161087036,9.07797908782959,1.178306221961975,-3.2354111671447754
1403715525447143000,0.023474767804145813,0.008713306859135628,0.06425528228282928,9.38276195526123,1.8889930248260498,-3.447819709777832
1403715525452143000,-0.047982990741729736,0.010937312617897987,0.07195689529180527,9.291841506958008,1.4974172115325928,-3.406742811203003
1403715525457143000,-0.08642733842134476,0.020253976806998253,0.08160132169723511,9.43649673461914,0.7469512224197388,-3.308934450149536
1403715525462143000,-0.08500330150127411,0.02170799858868122,0.09568023681640625,9.001708984375,0.0026802599895745516,-3.113689422607422
1403715525467143000,-0.0660325214266777,0.020818138495087624,0.07884625345468521,9.319761276245117,-0.5069792866706848,-3.047142267227173
1403715525472143000,-0.01362679898738861,0.012433059513568878,0.09064903110265732,9.302663803100586,-0.45816871523857117,-2.9818997383117676
1403715525477143000,0.020625457167625427,0.015217078849673271,0.06004967913031578,9.393561363220215,-0.4647812247276306,-3.2263505458831787
1403715525482143000,0.05149243772029877,0.016815653070807457,0.05584321171045303,9.09961223602295,0.182904452085495,-3.0794761180877686
1403715525487143000,0.05792303383350372,0.017440130934119225,0.06504920870065689,9.427628517150879,0.28120875358581543,-3.3802618980407715
1403715525492143000,0.04169057309627533,0.03002328611910343,0.05512440949678421,9.305431365966797,0.5574883818626404,-3.2004034519195557
1403715525497143000,0.019974499940872192,0.02081369422376156,0.06831236183643341,9.037766456604004,1.105421781539917,-3.2428855895996094
1403715525502143000,-0.012845158576965332,0.01860986463725567,0.0782536119222641,9.242374420166016,1.267578363418579,-3.333479166030884
1403715525507143000,-0.05001923441886902,0.03272886574268341,0.09201432019472122,9.207188606262207,0.7942714095115662,-3.1954469680786133
1403715525512143000,-0.06833703815937042,0.019542375579476357,0.09221100807189941,9.280284881591797,0.4521401822566986,-3.187924385070801
1403715525517143000,-0.06132293492555618,0.018868857994675636,0.08674541860818863,9.116305351257324,-0.13409028947353363,-3.080674648284912
1403715525522143000,-0.02986394613981247,0.012555839493870735,0.0892612487077713,9.074197769165039,-0.5027189254760742,-3.1124234199523926
1403715525527143000,0.012989863753318787,0.006092570722103119,0.0843764990568161,9.408586502075195,-0.4407973289489746,-3.1360561847686768
1403715525532143000,0.04385755956172943,0.014506278559565544,0.05721693113446236,9.320343971252441,-0.050759922713041306,-3.2416746616363525
1403715525537143000,0.056430816650390625,0.018121348693966866,0.07043232768774033,9.30539321899414,0.4661051630973816,-3.299510955810547
1403715525542143000,0.04044400155544281,0.025825167074799538,0.06703782081604004,9.469596862792969,0.7775302529335022,-3.3077352046966553
1403715525547143000,0.016599856317043304,0.030650144442915916,0.07889673858880997,9.151611328125,1.0225789546966553,-3.259652614593506
1403715525552143000,-0.020574375987052917,0.01744825206696987,0.08182071149349213,9.01232624053955,0.9086483120918274,-3.1383557319641113
1403715525557143000,-0.038837917149066925,0.015986500307917595,0.09143112599849701,9.231709480285645,0.6583909392356873,-3.203159809112549
1403715525562143000,-0.04450453817844391,0.012493753805756569,0.09623068571090698,9.173336029052734,0.16735386848449707,-3.186782121658325
1403715525567143000,-0.03548257052898407,0.008298790082335472,0.07610508799552917,9.38530158996582,-0.03818779066205025,-3.259549140930176
1403715525572143000,-0.022169187664985657,0.012481031939387321,0.06488412618637085,9.287665367126465,-0.10269729793071747,-3.17775821685791
1403715525577143000,0.0002629607915878296,0.017434386536478996,0.05164642632007599,9.26284122467041,-0.1187506765127182,-3.1529767513275146
1403715525582143000,0.020009085536003113,0.018085913732647896,0.06429095566272736,9.385638236999512,0.1723703294992447,-3.2098681926727295
1403715525587143000,0.025005877017974854,0.025093136355280876,0.0747496485710144,9.25633430480957,0.43240541219711304,-3.1937856674194336
1403715525592143000,0.020856693387031555,0.01608806662261486,0.09007102251052856,8.938008308410645,0.5383551120758057,-3.0230767726898193
1403715525597143000,0.0032912641763687134,0.008295537903904915,0.08447320014238358,9.224257469177246,0.7598094344139099,-3.218944549560547
1403715525602143000,-0.018453888595104218,0.009026676416397095,0.08791438490152359,9.526500701904297,0.7929093837738037,-3.4144959449768066
1403715525607143000,-0.04788290709257126,0.019518224522471428,0.07050357758998871,9.231656074523926,0.6400860548019409,-3.244194984436035
1403715525612143000,-0.05219035595655441,0.020910104736685753,0.059328917413949966,9.393714904785156,-0.026975063607096672,-3.234825372695923
1403715525617143000,-0.021490979939699173,0.02304198406636715,0.06426726281642914,9.115262031555176,-0.6565337181091309,-3.1685988903045654
1403715525622143000,0.028959333896636963,0.027133090421557426,0.06909465044736862,9.139636039733887,-0.5433111190795898,-3.0219693183898926
1403715525627143000,0.07381141185760498,0.015915272757411003,0.08099541068077087,9.222290992736816,-0.14506834745407104,-3.136192560195923
1403715525632143000,0.07523567974567413,0.020864902064204216,0.08107978105545044,9.0694580078125,0.8333984613418579,-3.308384418487549
1403715525637143000,0.03750903904438019,0.014469442889094353,0.07808860391378403,9.152809143066406,1.5097233057022095,-3.325833559036255
1403715525642143000,-0.03936369717121124,0.008057227358222008,0.0907784178853035,9.514108657836914,1.7885407209396362,-3.5292298793792725
1403715525647143000,-0.1051534116268158,0.019445883110165596,0.08942750096321106,9.14374828338623,1.0712112188339233,-3.3339385986328125
1403715525652143000,-0.12265132367610931,0.022327600046992302,0.0892944410443306,9.328782081604004,0.08437415957450867,-3.203394651412964
1403715525657143000,-0.07591785490512848,0.0160312931984663,0.10184454917907715,9.237597465515137,-0.9533041715621948,-3.103764057159424
1403715525662143000,-0.008794337511062622,0.03277847170829773,0.08500219881534576,9.114494323730469,-1.2786140441894531,-2.842088460922241
1403715525667143000,0.0611109584569931,0.009652145206928253,0.08012673258781433,9.392608642578125,-0.616510808467865,-3.143904447555542
1403715525672143000,0.0849139541387558,0.019422059878706932,0.05525243282318115,9.312803268432617,0.14139898121356964,-3.266594648361206
1403715525677143000,0.07380861043930054,0.036990828812122345,0.05023873597383499,9.39555835723877,0.7862411141395569,-3.323521137237549
1403715525682143000,0.04466606676578522,0.025040747597813606,0.05450380966067314,9.062935829162598,1.292387843132019,-3.201803684234619
1403715525687143000,-0.005722075700759888,0.028495656326413155,0.0580359622836113,9.153299331665039,1.19243323802948,-3.299837350845337
1403715525692143000,-0.03873763233423233,0.025089645758271217,0.08230463415384293,9.224787712097168,0.9226579666137695,-3.252234935760498
1403715525697143000,-0.06192062795162201,0.012457873672246933,0.08093013614416122,9.345721244812012,0.3610568344593048,-3.3014564514160156
1403715525702143000,-0.05921490490436554,0.026417629793286324,0.07882846891880035,9.132790565490723,0.21491803228855133,-3.1467161178588867
1403715525707143000,-0.04731350392103195,0.014727093279361725,0.0725962221622467,9.467296600341797,-0.1602097451686859,-3.3171045780181885
1403715525712143000,-0.020716592669487,0.02297326736152172,0.062222473323345184,9.123062133789062,-0.4129706025123596,-2.9898204803466797
1403715525717143000,0.02127230167388916,0.02709292434155941,0.06148628517985344,9.262349128723145,-0.49347516894340515,-3.1194121837615967
1403715525722143000,0.04863370954990387,0.015338210389018059,0.06709205359220505,9.238452911376953,-0.1616349071264267,-3.1518733501434326
1403715525727143000,0.05999094247817993,0.022215833887457848,0.07114749401807785,9.182707786560059,0.35070326924324036,-3.111628532409668
1403715525732143000,0.05368433892726898,0.01391875185072422,0.0815962553024292,9.26567268371582,0.7499355673789978,-3.136733293533325
1403715525737143000,0.020064152777194977,0.011797856539487839,0.07747829705476761,9.29907512664795,1.0060477256774902,-3.3902201652526855
1403715525742143000,-0.00728355348110199,0.024377265945076942,0.07884413003921509,9.265140533447266,0.9509406089782715,-3.2115817070007324
1403715525747143000,-0.04301309585571289,0.024527406319975853,0.09013807028532028,9.20703125,0.6983227729797363,-3.2116165161132812
1403715525752143000,-0.0592719167470932,0.025086311623454094,0.08245249092578888,9.1490478515625,0.3381873667240143,-3.1211602687835693
1403715525757143000,-0.043189890682697296,0.022921783849596977,0.09905020892620087,9.368913650512695,-0.20042909681797028,-3.10440731048584
1403715525762143000,-0.011655271053314209,0.02786540426313877,0.09770587086677551,9.189104080200195,-0.3884923756122589,-3.120861530303955
1403715525767143000,0.009369999170303345,0.014496607705950737,0.07807784527540207,8.919998168945312,-0.15330472588539124,-3.080070734024048
1403715525772143000,0.03254290670156479,0.015362216159701347,0.06978227943181992,9.483968734741211,0.024176007136702538,-3.258760452270508
1403715525777143000,0.041011810302734375,0.013974275439977646,0.062207192182540894,9.312339782714844,0.08224911242723465,-3.2015678882598877
1403715525782143000,0.03551328182220459,0.013184508308768272,0.050933144986629486,9.265181541442871,0.621554970741272,-3.2998502254486084
1403715525787143000,0.014721490442752838,0.024441620334982872,0.06649032980203629,9.380375862121582,1.012113332748413,-3.169442892074585
1403715525792143000,-0.013530038297176361,0.0320931151509285,0.07474203407764435,9.125653266906738,0.7599231004714966,-3.284135580062866
1403715525797143000,-0.020787768065929413,0.018059907481074333,0.07518748193979263,9.467399597167969,0.06994727998971939,-3.1123831272125244
1403715525802143000,-0.015187233686447144,0.03417297452688217,0.08318009972572327,9.15747356414795,0.1946977972984314,-3.1941893100738525
1403715525807143000,-0.019352905452251434,0.016685975715517998,0.06212983652949333,9.067838668823242,0.3309526741504669,-3.1786904335021973
1403715525812143000,-0.020058900117874146,0.011126549914479256,0.06763764470815659,9.443201065063477,0.48398253321647644,-3.2925126552581787
1403715525817143000,-0.03329285979270935,0.032082319259643555,0.0721658393740654,9.109277725219727,0.7040276527404785,-3.3009588718414307
1403715525822143000,-0.04649432748556137,0.006948819383978844,0.0844346433877945,9.190719604492188,0.25315847992897034,-3.096463680267334
1403715525827143000,-0.037940844893455505,0.02436024509370327,0.09064969420433044,9.377586364746094,-0.06440071761608124,-3.2998249530792236
1403715525832143000,0.0019199103116989136,0.016727959737181664,0.09148553758859634,8.968057632446289,-0.8161482810974121,-2.8912272453308105
1403715525837143000,0.05357937514781952,0.0012753531336784363,0.06741398572921753,9.60493278503418,-1.0281928777694702,-3.2485058307647705
1403715525842143000,0.09975828230381012,0.03343988209962845,0.0635286495089531,9.336585998535156,-0.011975303292274475,-3.176522731781006
1403715525847143000,0.09288504719734192,0.01596190594136715,0.05038753151893616,9.258580207824707,1.398531198501587,-3.3816590309143066
1403715525852143000,0.04168051481246948,0.03736373037099838,0.05513782799243927,9.33236026763916,1.814648985862732,-3.210352659225464
1403715525857143000,-0.04727752506732941,0.01634337566792965,0.08947168290615082,8.743816375732422,1.7613098621368408,-3.2370054721832275
1403715525862143000,-0.09980244189500809,0.01808161847293377,0.06763716042041779,9.625107765197754,0.6421658396720886,-3.3497536182403564
1403715525867143000,-0.08858229964971542,0.019468022510409355,0.1066763773560524,8.862809181213379,-0.08649730682373047,-3.122218132019043
1403715525872143000,-0.06395764648914337,0.014620469883084297,0.0704595297574997,9.613903045654297,-0.6552602648735046,-3.2427773475646973
1403715525877143000,-0.0038229525089263916,0.030850527808070183,0.08982802927494049,9.441182136535645,-0.5549272894859314,-3.2506766319274902
1403715525882143000,0.019256137311458588,0.027785910293459892,0.05539270490407944,9.181327819824219,-0.16127201914787292,-3.1776654720306396
1403715525887143000,0.04933546483516693,0.031382687389850616,0.070591039955616,9.605801582336426,0.026191165670752525,-3.3560917377471924
1403715525892143000,0.050200626254081726,0.039699189364910126,0.06348538398742676,8.945576667785645,0.24736124277114868,-3.110886335372925
1403715525897143000,0.041844435036182404,0.029208747670054436,0.07394181936979294,9.08616828918457,0.9020134806632996,-3.1530704498291016
1403715525902143000,0.01581825315952301,0.0209637563675642,0.08157029747962952,9.397109985351562,0.8111041784286499,-3.2344815731048584
1403715525907143000,-0.010922938585281372,0.029850786551833153,0.08856445550918579,9.069025993347168,0.8582316637039185,-3.398728847503662
1403715525912143000,-0.04163723438978195,0.03004164807498455,0.08039098232984543,9.35409927368164,0.7612414360046387,-3.2528011798858643
1403715525917143000,-0.059246741235256195,0.03558311611413956,0.08111751079559326,9.247760772705078,0.6420354247093201,-3.203317165374756
1403715525922143000,-0.057035960257053375,0.031407639384269714,0.08106924593448639,8.960298538208008,-0.06710817664861679,-3.088914394378662
1403715525927143000,-0.02355363965034485,0.02922128699719906,0.09061749279499054,9.523202896118164,-0.37410348653793335,-3.226339101791382
1403715525932143000,0.006597205996513367,0.04381829500198364,0.0864928737282753,9.058541297912598,-0.5306686162948608,-2.9976980686187744
1403715525937143000,0.03191332519054413,0.020927967503666878,0.07881797105073929,9.042701721191406,0.09800925105810165,-3.0227248668670654
1403715525942143000,0.041050225496292114,0.016717178747057915,0.07468730211257935,9.304862976074219,0.20448175072669983,-3.0708346366882324
1403715525947143000,0.027769088745117188,0.01666966639459133,0.05940821394324303,9.14233112335205,0.6116578578948975,-3.3001067638397217
1403715525952143000,0.013109415769577026,0.006197342649102211,0.0580313578248024,9.404385566711426,0.7689526081085205,-3.2676899433135986
1403715525957143000,-0.00722087174654007,0.0258206594735384,0.06914759427309036,9.20816707611084,0.8697894811630249,-3.219073534011841
1403715525962143000,-0.03047812730073929,0.020999563857913017,0.07886579632759094,9.067614555358887,0.41290074586868286,-3.0804197788238525
1403715525967143000,-0.03261756896972656,0.020204564556479454,0.09212939441204071,9.263655662536621,0.28874048590660095,-3.2192206382751465
1403715525972143000,-0.03049599379301071,0.033378176391124725,0.09912609308958054,9.369726181030273,0.18362818658351898,-3.145312786102295
1403715525977143000,-0.02499675750732422,0.016770703718066216,0.09140102565288544,8.993988990783691,0.13358096778392792,-3.130070447921753
1403715525982143000,-0.018623463809490204,0.007603127509355545,0.07747380435466766,9.443018913269043,-0.013789743185043335,-3.202098846435547
1403715525987143000,0.0010056495666503906,0.018778817728161812,0.060822743922472,9.164478302001953,-0.26735353469848633,-3.1525509357452393
1403715525992143000,0.02774043381214142,0.016061415895819664,0.06142712011933327,9.410799980163574,-0.02242954447865486,-3.2668240070343018
1403715525997143000,0.03769959509372711,0.019517695531249046,0.07126042246818542,9.108773231506348,0.3821321427822113,-3.0307533740997314
1403715526002143000,0.023665353655815125,0.018227247521281242,0.0635092481970787,9.419525146484375,0.5044807195663452,-3.397545099258423
1403715526007143000,0.018539026379585266,0.025022847577929497,0.07811488956212997,9.362606048583984,0.6713814735412598,-3.2673192024230957
1403715526012143000,0.0010544508695602417,0.03195886313915253,0.08798524737358093,9.436777114868164,0.8797367215156555,-3.3083462715148926
1403715526017143000,-0.03745342046022415,0.03638449311256409,0.08374185115098953,8.872614860534668,0.8443719744682312,-3.0811429023742676
1403715526022143000,-0.05778969079256058,0.011885950341820717,0.07828755676746368,9.231054306030273,0.3296600878238678,-3.154057264328003
1403715526027143000,-0.03620774298906326,0.023601723834872246,0.0803210437297821,9.433588027954102,-0.159214586019516,-3.1777398586273193
1403715526032143000,-0.005335018038749695,0.020154250785708427,0.0864969789981842,8.944745063781738,-0.2161601483821869,-3.1289169788360596
1403715526037143000,0.015902504324913025,0.011762859299778938,0.07817443460226059,9.361056327819824,0.024111460894346237,-3.08756947517395
1403715526042143000,0.0228128582239151,0.02241101674735546,0.0690842717885971,9.393471717834473,0.15492667257785797,-3.2669153213500977
1403715526047143000,0.031060516834259033,0.03278166055679321,0.06902811676263809,9.410921096801758,0.36107105016708374,-3.307981491088867
1403715526052143000,0.024990946054458618,0.034797199070453644,0.07753651589155197,9.297093391418457,0.5418080687522888,-3.259012222290039
1403715526057143000,-6.239861249923706e-05,0.0328463613986969,0.06428651511669159,9.012072563171387,0.8665884733200073,-3.0310933589935303
1403715526062143000,-0.012935243546962738,0.01394881121814251,0.08661817014217377,9.035537719726562,0.6051302552223206,-3.137479305267334
1403715526067143000,-0.01659977436065674,0.016567857936024666,0.08375781774520874,9.45127010345459,0.21622596681118011,-3.2187113761901855
1403715526072143000,-0.017259635031223297,0.008973401039838791,0.09064574539661407,8.99467945098877,0.3728276193141937,-3.244058132171631
1403715526077143000,-0.022726520895957947,0.007015662267804146,0.07123784720897675,9.378049850463867,0.26348018646240234,-3.2517762184143066
1403715526082143000,-0.012296773493289948,0.023026635870337486,0.08373589813709259,9.24604320526123,0.3040822446346283,-3.1859190464019775
1403715526087143000,-0.007419690489768982,0.015280015766620636,0.06420658528804779,9.173574447631836,-0.086853988468647,-3.0795605182647705
1403715526092143000,0.012317515909671783,0.014548106119036674,0.06988988071680069,9.475408554077148,0.092324398458004,-3.201429605484009
1403715526097143000,0.018699035048484802,0.02233964018523693,0.06713678687810898,9.125027656555176,0.12254873663187027,-3.1202971935272217
1403715526102143000,0.029070734977722168,0.015342751517891884,0.08719144761562347,9.108818054199219,0.4977094829082489,-3.210771083831787
1403715526107143000,0.019301511347293854,0.021593941375613213,0.0886593610048294,9.411503791809082,0.49227508902549744,-3.2998509407043457
1403715526112143000,-0.002392485737800598,0.0265547763556242,0.0844300240278244,9.183448791503906,0.8366450667381287,-3.227231025695801
1403715526117143000,-0.02201978862285614,0.01813698373734951,0.08024648576974869,9.304977416992188,0.4511696398258209,-3.259882688522339
1403715526122143000,-0.029116779565811157,0.02219347096979618,0.06218576431274414,9.091354370117188,0.29673531651496887,-3.1781516075134277
1403715526127143000,-0.02561095356941223,0.005514355376362801,0.06638786941766739,9.010190963745117,-0.10991701483726501,-3.1369473934173584
1403715526132143000,-0.009459242224693298,0.017375363036990166,0.07400179654359818,9.50837230682373,0.028743283823132515,-3.348957061767578
1403715526137143000,0.005952462553977966,0.030028438195586205,0.08512444794178009,9.336679458618164,-0.047898877412080765,-3.1854684352874756
1403715526142143000,0.0163915753364563,0.023822380229830742,0.08170850574970245,9.059694290161133,0.36746877431869507,-3.1866352558135986
1403715526147143000,0.017890848219394684,0.02721559815108776,0.08376952260732651,9.394721031188965,0.4600490927696228,-3.2100369930267334
1403715526152143000,0.009574443101882935,0.03626485913991928,0.078136146068573,9.418960571289062,0.42751672863960266,-3.193545341491699
1403715526157143000,0.0032468587160110474,0.027100102975964546,0.07195303589105606,9.059830665588379,0.44227394461631775,-3.080204963684082
1403715526162143000,-0.007311582565307617,0.012447776272892952,0.0719679594039917,9.0023775100708,0.36726418137550354,-3.1129658222198486
1403715526167143000,-0.013661421835422516,0.011889733374118805,0.07743799686431885,9.370169639587402,0.49338462948799133,-3.3413257598876953
1403715526172143000,-0.015079528093338013,0.01665974222123623,0.09007041156291962,9.345690727233887,0.3222387731075287,-3.300717830657959
1403715526177143000,-0.012949325144290924,0.025073645636439323,0.07751404494047165,9.47596263885498,0.256203293800354,-3.250852584838867
1403715526182143000,-0.01020032912492752,0.025983931496739388,0.07742220163345337,8.96141529083252,0.2630358040332794,-3.1208317279815674
1403715526187143000,-0.003838568925857544,0.020907750353217125,0.07186613976955414,9.451090812683105,0.3305929899215698,-3.2755308151245117
1403715526192143000,0.0024722814559936523,0.035450004041194916,0.06776195764541626,9.164896011352539,0.14906109869480133,-3.087965488433838
1403715526197143000,0.0052869319915771484,0.010366544127464294,0.06996563076972961,8.978562355041504,0.22968582808971405,-3.09660267829895
1403715526202143000,0.013705477118492126,0.008334154263138771,0.0789439007639885,9.296215057373047,0.2122109830379486,-3.1205906867980957
1403715526207143000,0.008789382874965668,0.014682633802294731,0.08158577978610992,9.255518913269043,0.4275181293487549,-3.2758829593658447
1403715526212143000,-0.0024115443229675293,0.008277518674731255,0.08024387806653976,9.329970359802246,0.5246581435203552,-3.1943156719207764
1403715526217143000,-0.010816149413585663,0.014656422659754753,0.07325396686792374,9.459863662719727,0.37005338072776794,-3.3323569297790527
1403715526222143000,-0.00875186175107956,0.030785201117396355,0.08235149830579758,9.2716703414917,0.42761099338531494,-3.1615166664123535
1403715526227143000,-0.015737496316432953,0.0229551550000906,0.07551516592502594,9.173569679260254,0.2073090672492981,-3.210573196411133
1403715526232143000,-0.010127052664756775,0.02429395355284214,0.07267652451992035,9.255510330200195,0.23915764689445496,-3.071636438369751
1403715526237143000,0.0016773194074630737,0.016782546415925026,0.07681935280561447,9.149460792541504,-0.07939492911100388,-3.194110870361328
1403715526242143000,0.013585083186626434,0.01603948511183262,0.08857666701078415,9.435138702392578,0.3291218876838684,-3.251561403274536
1403715526247143000,0.006013557314872742,0.020173078402876854,0.0899696871638298,9.124931335449219,0.36881518363952637,-3.1534156799316406
1403715526252143000,-0.0016502588987350464,0.016793133690953255,0.08167991042137146,9.370594024658203,0.5728532075881958,-3.2920479774475098
1403715526257143000,-0.004554390907287598,0.02087712101638317,0.07751667499542236,9.369607925415039,0.2880103886127472,-3.2591302394866943
1403715526262143000,-0.006583645939826965,0.02997749112546444,0.0670539140701294,9.435176849365234,0.3133021593093872,-3.316389322280884
1403715526267143000,-0.0009513795375823975,0.029253607615828514,0.07129985094070435,8.9859037399292,0.2631526291370392,-3.0637288093566895
1403715526272143000,-0.00804930180311203,0.016027236357331276,0.06562384217977524,9.174241065979004,0.3941209614276886,-3.080118179321289
1403715526277143000,-0.0018713250756263733,0.018848316743969917,0.07879965007305145,9.288089752197266,0.23160788416862488,-3.283846139907837
1403715526282143000,0.0024171993136405945,0.025089820846915245,0.08868075907230377,9.20654296875,0.24866560101509094,-3.2189738750457764
1403715526287143000,-0.0003146231174468994,0.020881379023194313,0.08935688436031342,9.26379680633545,0.508836567401886,-3.218794822692871
1403715526292143000,-0.01220327615737915,0.021012479439377785,0.08940291404724121,9.125243186950684,0.5235720276832581,-3.1454710960388184
1403715526297143000,-0.01922125369310379,0.012454075738787651,0.07402399182319641,9.328690528869629,0.3447331488132477,-3.145085573196411
1403715526302143000,-0.009441427886486053,0.018649132922291756,0.06694324314594269,9.312081336975098,-0.02225518226623535,-3.2183804512023926
1403715526307143000,0.003217943012714386,0.015322931110858917,0.06357118487358093,9.165738105773926,0.14135955274105072,-3.1451690196990967
1403715526312143000,0.010255351662635803,0.019619708880782127,0.07612071931362152,9.206480979919434,0.30322957038879395,-3.120807647705078
1403715526317143000,0.012919828295707703,0.01747637800872326,0.0739695355296135,9.296300888061523,0.3700997531414032,-3.2265255451202393
1403715526322143000,0.010079443454742432,0.01876274310052395,0.08239343762397766,9.353989601135254,0.3700397312641144,-3.2182679176330566
1403715526327143000,-0.00032157450914382935,0.022982990369200706,0.07960240542888641,9.22347640991211,0.6237431168556213,-3.3006646633148193
1403715526332143000,-0.009370975196361542,0.022287024185061455,0.08724437654018402,9.264212608337402,0.6298877000808716,-3.202509880065918
1403715526337143000,-0.029726728796958923,0.01599735952913761,0.08104221522808075,9.239259719848633,0.3047442138195038,-3.2106199264526367
1403715526342143000,-0.026990972459316254,0.014557573944330215,0.0711987316608429,9.214396476745605,-0.013915038667619228,-3.153360605239868
1403715526347143000,-0.0017398297786712646,0.011112863197922707,0.0753834918141365,9.198063850402832,-0.19340060651302338,-3.161396026611328
1403715526352143000,0.020668715238571167,0.022357052192091942,0.07818220555782318,9.361058235168457,0.06703322380781174,-3.275562286376953
1403715526357143000,0.026272118091583252,0.016067108139395714,0.07744409888982773,9.190032005310059,0.30428341031074524,-3.193971633911133
1403715526362143000,0.021379202604293823,0.026503970846533775,0.07053214311599731,9.354228019714355,0.549870491027832,-3.413933038711548
1403715526367143000,0.008008509874343872,0.025057746097445488,0.07750727236270905,9.248148918151855,0.6145669221878052,-3.161329984664917
1403715526372143000,-0.0073104798793792725,0.03345286101102829,0.07819288223981857,9.313456535339355,0.6630886197090149,-3.3573615550994873
1403715526377143000,-0.02612699568271637,0.0327887088060379,0.0866498202085495,9.018930435180664,0.4918319582939148,-3.0400688648223877
1403715526382143000,-0.0339619517326355,0.016028864309191704,0.07471271604299545,9.223012924194336,0.1833801567554474,-3.284287452697754
1403715526387143000,-0.020025521516799927,0.018070043995976448,0.08088262379169464,9.16487979888916,-0.05443626269698143,-3.039301872253418
1403715526392143000,-0.00035528838634490967,0.01247442327439785,0.08233591914176941,9.369147300720215,-0.1371060162782669,-3.340761661529541
1403715526397143000,0.019960403442382812,0.025093911215662956,0.07258431613445282,9.312002182006836,0.09958390891551971,-3.1285293102264404
1403715526402143000,0.026958517730236053,0.012588156387209892,0.07406114041805267,9.2145357131958,0.3059748113155365,-3.3079755306243896
1403715526407143000,0.01788713037967682,0.026451552286744118,0.07267062366008759,9.452316284179688,0.6229444742202759,-3.2832846641540527
1403715526412143000,0.00107526034116745,0.0320650190114975,0.07952731847763062,9.239956855773926,0.5639445781707764,-3.202101707458496
1403715526417143000,-0.012158975005149841,0.028540106490254402,0.07336234301328659,9.183183670043945,0.719454288482666,-3.1295077800750732
1403715526422143000,-0.02829749882221222,0.01749609224498272,0.07818961143493652,9.108806610107422,0.36234256625175476,-3.0479891300201416
1403715526427143000,-0.02904389053583145,0.008979588747024536,0.08158314973115921,9.173768043518066,0.1586638242006302,-3.227428436279297
1403715526432143000,-0.010862372815608978,0.014525793492794037,0.09004975855350494,9.271084785461426,-0.05498059466481209,-3.2270586490631104
1403715526437143000,0.0065889060497283936,0.014642657712101936,0.08032889664173126,9.344809532165527,0.042714472860097885,-3.242671012878418
1403715526442143000,0.017833590507507324,0.0209913719445467,0.07473012804985046,9.116216659545898,0.2886441648006439,-3.0716378688812256
1403715526447143000,0.01718057692050934,0.009742895141243935,0.0768062174320221,9.361772537231445,0.37044283747673035,-3.3323142528533936
1403715526452143000,0.008776828646659851,0.022173261269927025,0.0690666139125824,9.54236125946045,0.6383475661277771,-3.3405356407165527
1403715526457143000,-0.006590425968170166,0.02790558896958828,0.0677274614572525,9.134239196777344,0.5643618106842041,-3.2352492809295654
1403715526462143000,-0.013528086245059967,0.025857632979750633,0.0782436728477478,9.206986427307129,0.5162307024002075,-3.170084238052368
1403715526467143000,-0.018539555370807648,0.020310664549469948,0.08720460534095764,9.018568992614746,0.23139096796512604,-3.0151002407073975
1403715526472143000,-0.011540725827217102,0.012467803433537483,0.08448277413845062,9.37779712677002,0.20682862401008606,-3.2924139499664307
1403715526477143000,-0.0031307190656661987,0.021502668038010597,0.08665695786476135,9.311943054199219,0.04304063320159912,-3.153362512588501
1403715526482143000,0.007993161678314209,0.01811704970896244,0.07672621309757233,9.254878044128418,0.18264466524124146,-3.2592952251434326
1403715526487143000,0.01640382409095764,0.026523390784859657,0.07396218925714493,9.173175811767578,0.2314298003911972,-3.103947162628174
1403715526492143000,0.010185718536376953,0.016727233305573463,0.07058343291282654,9.42767333984375,0.5502259731292725,-3.3731768131256104
1403715526497143000,0.0003921911120414734,0.029228581115603447,0.06979897618293762,9.371159553527832,0.5647024512290955,-3.251178503036499
1403715526502143000,-0.0115114226937294,0.023748302832245827,0.06982582807540894,9.190594673156738,0.38509058952331543,-3.210799217224121
1403715526507143000,-0.012195765972137451,0.028604654595255852,0.07403760403394699,9.247262001037598,0.2713373303413391,-3.1368820667266846
1403715526512143000,-0.010107651352882385,0.01747569628059864,0.08861467987298965,9.08415412902832,0.2233733981847763,-3.178156614303589
1403715526517143000,-0.005205579102039337,0.020129656419157982,0.08517208695411682,9.337119102478027,0.27975040674209595,-3.1617090702056885
1403715526522143000,-0.0031852051615715027,0.017374156042933464,0.08313687145709991,9.173113822937012,0.10808556526899338,-3.1537516117095947
1403715526527143000,0.007288292050361633,0.018787899985909462,0.07540331780910492,9.401854515075684,0.15003205835819244,-3.2917065620422363
1403715526532143000,0.010131239891052246,0.019515076652169228,0.07607194781303406,9.116382598876953,0.305510938167572,-3.0879437923431396
1403715526537143000,0.005298614501953125,0.013222167268395424,0.07261575758457184,9.411872863769531,0.5168484449386597,-3.356799840927124
1403715526542143000,-0.005902707576751709,0.03207845240831375,0.0718923807144165,9.133516311645508,0.441893070936203,-3.1534814834594727
1403715526547143000,-0.01506371796131134,0.019597092643380165,0.07326553761959076,9.165680885314941,0.2878568470478058,-3.1783268451690674
1403715526552143000,-0.008737742900848389,0.025100035592913628,0.08869421482086182,9.288284301757812,0.2882600426673889,-3.2106454372406006
1403715526557143000,-0.002385184168815613,0.017422473058104515,0.08871734142303467,9.190333366394043,0.1578882485628128,-3.226677894592285
1403715526562143000,-0.0009891390800476074,0.027798136696219444,0.08795848488807678,9.295920372009277,0.32836639881134033,-3.169999361038208
1403715526567143000,0.0009873658418655396,0.018139714375138283,0.08587973564863205,9.067168235778809,0.12508800625801086,-3.1127474308013916
1403715526572143000,0.007303066551685333,0.013219976797699928,0.07463166117668152,9.451143264770508,0.2884325087070465,-3.299887180328369
1403715526577143000,0.0017417371273040771,0.022302167490124702,0.07329510152339935,9.280189514160156,0.3537702262401581,-3.185974359512329
1403715526582143000,-0.006553083658218384,0.014544913545250893,0.06776830554008484,9.387287139892578,0.5243951082229614,-3.324556350708008
1403715526587143000,-0.010101743042469025,0.027941150590777397,0.07466062158346176,9.17406940460205,0.36154019832611084,-3.1289730072021484
1403715526592143000,-0.009470783174037933,0.014725541695952415,0.06982827931642532,9.165575981140137,0.2714405059814453,-3.0964415073394775
1403715526597143000,0.0010972321033477783,0.020857708528637886,0.08172915130853653,9.345552444458008,0.33647361397743225,-3.2921340465545654
1403715526602143000,-0.0009990930557250977,0.025067200884222984,0.08589313179254532,9.100250244140625,0.23913222551345825,-3.1780192852020264
1403715526607143000,0.0017258673906326294,0.024384846910834312,0.08517388254404068,9.263121604919434,0.2562175989151001,-3.1778252124786377
1403715526612143000,0.004498839378356934,0.01609206013381481,0.0838104858994484,9.042790412902832,0.1660490781068802,-3.0636799335479736
1403715526617143000,0.004565432667732239,0.013863041996955872,0.07116251438856125,9.443593978881836,0.4098770022392273,-3.34881854057312
1403715526622143000,0.0010566562414169312,0.027846364304423332,0.06979948282241821,9.165899276733398,0.35321566462516785,-3.161742925643921
1403715526627143000,-0.00729583203792572,0.014627691358327866,0.06636477261781693,9.296817779541016,0.5091004371643066,-3.218688726425171
1403715526632143000,-0.00945834070444107,0.022384947165846825,0.07397306710481644,9.133038520812988,0.21448570489883423,-3.161447763442993
1403715526637143000,-0.005923211574554443,0.011853856965899467,0.07050423324108124,9.361762046813965,0.2875673472881317,-3.2429447174072266
1403715526642143000,-0.005187511444091797,0.02637328766286373,0.08662871271371841,9.362164497375488,0.3528323471546173,-3.2432100772857666
1403715526647143000,-0.007342629134654999,0.022368254140019417,0.08099991083145142,9.132826805114746,0.2557755708694458,-3.169955015182495
1403715526652143000,0.002433501183986664,0.023031217977404594,0.09073123335838318,9.279423713684082,0.2724754214286804,-3.1614794731140137
1403715526657143000,0.004547417163848877,0.01741418056190014,0.07962267845869064,9.149229049682617,0.24765156209468842,-3.1778829097747803
1403715526662143000,0.0010841190814971924,0.01241149939596653,0.07182640582323074,9.40298080444336,0.41787222027778625,-3.348879098892212
1403715526667143000,-0.002428695559501648,0.020200883969664574,0.07402309775352478,9.108625411987305,0.2800378203392029,-3.169933557510376
1403715526672143000,-0.0073548853397369385,0.015387123450636864,0.07682615518569946,9.312835693359375,0.38666489720344543,-3.2839784622192383
1403715526677143000,-0.004541650414466858,0.01954841800034046,0.07745888084173203,9.165867805480957,0.3204757869243622,-3.1044468879699707
1403715526682143000,-0.005850344896316528,0.018117861822247505,0.07472821325063705,9.410922050476074,0.2873694598674774,-3.3079936504364014
1403715526687143000,-0.002456560730934143,0.023654287680983543,0.08238192647695541,9.230965614318848,0.2881339490413666,-3.2596209049224854
1403715526692143000,-0.0003674924373626709,0.02445215918123722,0.0781618058681488,9.230897903442383,0.346299409866333,-3.153571367263794
1403715526697143000,0.00456700474023819,0.026463357731699944,0.08802710473537445,9.238701820373535,0.2635628283023834,-3.1205551624298096
1403715526702143000,0.000376969575881958,0.01671813242137432,0.07680079340934753,9.22307014465332,0.31264546513557434,-3.2186264991760254
1403715526707143000,0.0003377199172973633,0.019452402368187904,0.08299639821052551,9.345708847045898,0.43439435958862305,-3.251396894454956
1403715526712143000,-0.004535555839538574,0.024418292567133904,0.07336533814668655,9.09200668334961,0.24788521230220795,-3.202582597732544
1403715526717143000,-0.003822311758995056,0.011125355958938599,0.06909190863370895,9.312629699707031,0.3537220358848572,-3.234790325164795
1403715526722143000,-0.0030964165925979614,0.013230601325631142,0.0732969343662262,9.337445259094238,0.2627938389778137,-3.1613194942474365
1403715526727143000,-0.004528418183326721,0.01811307482421398,0.07611791044473648,9.353755950927734,0.3200295865535736,-3.3653619289398193
1403715526732143000,-0.0024400800466537476,0.03135065734386444,0.08167742192745209,9.296249389648438,0.32967403531074524,-3.1371712684631348
1403715526737143000,-0.001725912094116211,0.029383262619376183,0.08174829185009003,9.29619026184082,0.36218878626823425,-3.1207919120788574
1403715526742143000,-0.0017422810196876526,0.025824738666415215,0.08029447495937347,9.132834434509277,0.23850604891777039,-3.145214319229126
1403715526747143000,0.00034961849451065063,0.01522335596382618,0.0739380344748497,9.272075653076172,0.33718106150627136,-3.1941936016082764
1403715526752143000,-0.0031472891569137573,0.021498089656233788,0.07679673284292221,9.280139923095703,0.32089608907699585,-3.2187881469726562
1403715526757143000,-0.0017463937401771545,0.013276197016239166,0.07609293609857559,9.165643692016602,0.2965379059314728,-3.218930244445801
1403715526762143000,-0.0024055615067481995,0.014666160568594933,0.07610711455345154,9.345335006713867,0.27120575308799744,-3.234654426574707
1403715526767143000,-0.00033774226903915405,0.017442887648940086,0.0768759697675705,9.174054145812988,0.28793957829475403,-3.210334062576294
1403715526772143000,0.0024673044681549072,0.021560655906796455,0.07468156516551971,9.304478645324707,0.3124379515647888,-3.2020740509033203
1403715526777143000,-0.001033976674079895,0.02232278697192669,0.08164817094802856,9.19820785522461,0.2966311275959015,-3.202540636062622
1403715526782143000,-0.0010380148887634277,0.028641505166888237,0.08448907732963562,9.247520446777344,0.3781735301017761,-3.2107040882110596
1403715526787143000,-0.0024632737040519714,0.025774111971259117,0.08444197475910187,9.124916076660156,0.3612256348133087,-3.1454226970672607
1403715526792143000,-0.005932532250881195,0.022261599078774452,0.07613511383533478,9.263872146606445,0.3535113036632538,-3.2024216651916504
1403715526797143000,-0.005955904722213745,0.01743706502020359,0.08174094557762146,9.091877937316895,0.19825001060962677,-3.129140853881836
1403715526802143000,-0.005927778780460358,0.018113547936081886,0.07883293181657791,9.287945747375488,0.22323358058929443,-3.251432180404663
1403715526807143000,-0.001757510006427765,0.01526709832251072,0.07674586772918701,9.271622657775879,0.21428702771663666,-3.1775267124176025
1403715526812143000,0.00038476288318634033,0.01323426328599453,0.06983662396669388,9.337440490722656,0.2878355085849762,-3.2591795921325684
1403715526817143000,0.0038949623703956604,0.020218608900904655,0.07539939135313034,9.320769309997559,0.29585498571395874,-3.2102901935577393
1403715526822143000,0.003170199692249298,0.02442662976682186,0.0796261727809906,9.31299877166748,0.39483359456062317,-3.2675607204437256
1403715526827143000,0.0010815858840942383,0.029287321493029594,0.07753872126340866,9.313153266906738,0.5003713369369507,-3.202317237854004
1403715526832143000,-0.004534527659416199,0.025129294022917747,0.08166481554508209,9.190279006958008,0.36134231090545654,-3.169797897338867
1403715526837143000,-0.010148078203201294,0.025078123435378075,0.07744379341602325,9.165818214416504,0.39418089389801025,-3.137361526489258
1403715526842143000,-0.008748143911361694,0.013882685452699661,0.08516363054513931,9.1575288772583,0.25567737221717834,-3.186354875564575
1403715526847143000,-0.011529415845870972,0.01736377738416195,0.07476229965686798,9.247186660766602,0.29635411500930786,-3.2353036403656006
1403715526852143000,-0.005945995450019836,0.011141113936901093,0.0823727548122406,9.296250343322754,0.18974843621253967,-3.1941144466400146
1403715526857143000,0.0010819435119628906,0.01392064243555069,0.06698501110076904,9.557456970214844,0.13281027972698212,-3.3565638065338135
1403715526862143000,0.006678164005279541,0.020945535972714424,0.07258731871843338,9.410799026489258,0.3622874319553375,-3.479351282119751
1403715526867143000,0.006715297698974609,0.02302378974854946,0.07962803542613983,9.337858200073242,0.41057395935058594,-3.267456293106079
1403715526872143000,0.0032237395644187927,0.03351091593503952,0.08234505355358124,9.500815391540527,0.4672119915485382,-3.2833378314971924
1403715526877143000,-0.005241081118583679,0.02719535492360592,0.08378247171640396,9.280335426330566,0.33735594153404236,-3.185960531234741
1403715526882143000,-0.0017392411828041077,0.021572420373558998,0.07680708169937134,9.541321754455566,0.26410993933677673,-3.3247106075286865
1403715526887143000,-0.0045161619782447815,0.02155124954879284,0.07884596288204193,9.165384292602539,0.16618166863918304,-3.129138231277466
1403715526892143000,-0.005254767835140228,0.005501264706254005,0.07262677699327469,9.361387252807617,0.17336538434028625,-3.234790325164795
1403715526897143000,0.008760720491409302,0.011127067729830742,0.09704501181840897,9.655566215515137,0.3696187138557434,-3.21000075340271
1403715526902143000,0.002509891986846924,0.015345146879553795,0.09351354837417603,9.7872314453125,0.6962016820907593,-3.3486437797546387
1403715526907143000,-0.017097406089305878,0.06214216351509094,0.09006882458925247,9.353751182556152,0.5492005348205566,-3.3490617275238037
1403715526912143000,-0.03950952738523483,0.02661883644759655,0.06578772515058517,8.363805770874023,0.14088574051856995,-2.673107385635376
1403715526917143000,-0.020018339157104492,0.006934290751814842,0.06626886129379272,8.9285249710083,-0.23430994153022766,-2.973585605621338
1403715526922143000,0.018457353115081787,0.0012963414192199707,0.08662150055170059,8.503644943237305,-0.029873494058847427,-2.9253668785095215
1403715526927143000,0.03757525980472565,0.007464110851287842,0.07893376052379608,9.614965438842773,0.3440007269382477,-3.30011248588562
1403715526932143000,0.022688724100589752,0.0344114750623703,0.07617565244436264,8.32360553741455,0.6132603883743286,-2.950303077697754
1403715526937143000,-0.004678323864936829,-0.006079061888158321,0.0447344072163105,8.879905700683594,0.7610313296318054,-3.0640339851379395
1403715526942143000,-0.019311055541038513,0.01528223417699337,0.06065470352768898,8.855304718017578,0.5825028419494629,-2.9496729373931885
1403715526947143000,-0.01492009311914444,-0.016381902620196342,0.09144790470600128,8.921483993530273,0.5250683426856995,-3.22770094871521
1403715526952143000,-0.011353470385074615,0.020113827660679817,0.09415583312511444,9.842936515808105,0.22236256301403046,-3.438546657562256
1403715526957143000,-0.011609241366386414,0.04991152137517929,0.09081804752349854,8.822125434875488,0.4352966845035553,-3.154216766357422
1403715526962143000,-0.019349880516529083,-0.0006575202569365501,0.0735030472278595,9.068354606628418,0.1642025113105774,-3.178396463394165
1403715526967143000,-0.022065378725528717,0.0145903080701828,0.052983202040195465,9.157144546508789,0.010228914208710194,-3.1776154041290283
1403715526972143000,0.008827105164527893,-0.003094577230513096,0.08096656948328018,9.214404106140137,-0.02114841155707836,-3.3164799213409424
1403715526977143000,0.020812958478927612,0.010370997712016106,0.08435051888227463,9.932343482971191,0.07703060656785965,-3.54451060295105
1403715526982143000,0.022051163017749786,0.05171795189380646,0.0745244026184082,8.978038787841797,0.5414387583732605,-3.2096176147460938
1403715526987143000,-0.004558637738227844,0.012707842513918877,0.0568411760032177,9.428149223327637,0.24495165050029755,-3.234198570251465
1403715526992143000,-0.011644601821899414,0.02648291550576687,0.04829699546098709,9.459863662719727,0.13288570940494537,-3.2341225147247314
1403715526997143000,0.0032113641500473022,0.013694459572434425,0.08360333740711212,9.101219177246094,0.36414968967437744,-3.227463722229004
1403715527002143000,-0.00852079689502716,0.03494323045015335,0.08577723801136017,10.03164005279541,0.354288786649704,-3.519714117050171
1403715527007143000,-0.01367466151714325,0.06217589229345322,0.09275944530963898,9.05949592590332,0.48386791348457336,-3.111971616744995
1403715527012143000,-0.021586604416370392,0.022514639422297478,0.0748618096113205,9.117110252380371,-0.08810274302959442,-3.112347364425659
1403715527017143000,-0.011691190302371979,0.03275071084499359,0.06858063489198685,9.327981948852539,-0.1597995162010193,-3.0466365814208984
1403715527022143000,0.011683531105518341,0.0045036934316158295,0.08791928738355637,9.002655029296875,0.23188309371471405,-3.137638568878174
1403715527027143000,0.020901992917060852,0.01176469586789608,0.09956708550453186,9.728499412536621,0.2771126627922058,-3.3326501846313477
1403715527032143000,0.01844830811023712,0.045414142310619354,0.10243593901395798,9.051644325256348,0.5488760471343994,-3.120056629180908
1403715527037143000,0.009294822812080383,0.009259192273020744,0.08043959736824036,9.330005645751953,0.5000998973846436,-3.1940858364105225
1403715527042143000,-0.009403392672538757,0.0182530265301466,0.06235380843281746,9.182149887084961,0.4763622581958771,-3.113199472427368
1403715527047143000,-0.015621714293956757,-0.010106142610311508,0.05934535712003708,9.011153221130371,0.5246410965919495,-3.1870856285095215
1403715527052143000,-0.00293537974357605,0.0026447419077157974,0.08637244999408722,9.655403137207031,0.5325300097465515,-3.2756080627441406
1403715527057143000,-0.005995392799377441,0.03277631103992462,0.08985951542854309,9.157711029052734,0.5822963118553162,-3.2349023818969727
1403715527062143000,-0.015187934041023254,0.014140626415610313,0.08316726982593536,9.108976364135742,0.6224939823150635,-3.170525550842285
1403715527067143000,-0.016466349363327026,0.025959914550185204,0.06666385382413864,9.328442573547363,0.3047361671924591,-3.1700825691223145
1403715527072143000,-0.016435541212558746,0.008781298995018005,0.041275374591350555,8.96872615814209,0.02825254574418068,-3.080312967300415
1403715527077143000,0.0026015490293502808,-0.00018309615552425385,0.06336109340190887,9.213912963867188,0.18233069777488708,-3.2433345317840576
1403715527082143000,0.01591360569000244,0.022267846390604973,0.07737167179584503,9.394639015197754,0.2856520712375641,-3.2175824642181396
1403715527087143000,0.022654220461845398,0.025994865223765373,0.09422208368778229,9.05986213684082,0.5798805356025696,-3.3001949787139893
1403715527092143000,0.0031135305762290955,0.02528751827776432,0.07572977244853973,9.2153959274292,0.6313862800598145,-3.1457388401031494
1403715527097143000,-0.016373686492443085,0.024970637634396553,0.0678756907582283,9.084205627441406,0.2818596363067627,-3.120727062225342
1403715527102143000,-0.020577993243932724,0.016668489202857018,0.05496198311448097,8.919600486755371,-0.06263621896505356,-3.096271276473999
1403715527107143000,-0.00245540589094162,0.013060327619314194,0.08284920454025269,9.353729248046875,0.30388912558555603,-3.1203792095184326
1403715527112143000,0.0031087324023246765,0.034243807196617126,0.09769932180643082,9.304544448852539,0.10847904533147812,-3.136563301086426
1403715527117143000,0.005151763558387756,0.030885888263583183,0.10279737412929535,9.157033920288086,0.4037517309188843,-3.1295292377471924
1403715527122143000,0.0003147423267364502,0.02852472849190235,0.09036163985729218,9.321078300476074,0.2553336024284363,-3.0962305068969727
1403715527127143000,-0.008026927709579468,0.034169480204582214,0.0683162584900856,9.361038208007812,0.12367339432239532,-3.1610405445098877
1403715527132143000,-0.007263258099555969,0.017269475385546684,0.05412137508392334,9.059379577636719,-0.08735228329896927,-3.014242172241211
1403715527137143000,0.010225728154182434,0.013864150270819664,0.06687628477811813,9.574386596679688,0.2888534963130951,-3.209831714630127
1403715527142143000,0.01708410680294037,0.02803725190460682,0.0985381230711937,9.248114585876465,0.3275657594203949,-3.3000996112823486
1403715527147143000,0.008079171180725098,0.02159702591598034,0.09453746676445007,9.444456100463867,0.6704005599021912,-3.308840036392212
1403715527152143000,-0.014979921281337738,0.029263081029057503,0.0854034349322319,9.386796951293945,0.5743257999420166,-3.120821475982666
1403715527157143000,-0.029083125293254852,0.016061319038271904,0.05988387390971184,9.051711082458496,0.13380220532417297,-3.120795488357544
1403715527162143000,-0.02134110778570175,0.0005136951804161072,0.05681571364402771,9.409927368164062,-0.004297776613384485,-3.161215305328369
1403715527167143000,-0.0010274872183799744,0.0075829289853572845,0.06767897307872772,9.369776725769043,0.14945480227470398,-3.242987632751465
1403715527172143000,0.008727893233299255,0.010481173172593117,0.08473756164312363,9.223406791687012,0.22977110743522644,-3.161531925201416
1403715527177143000,0.010148569941520691,0.013284573331475258,0.09310992062091827,9.565791130065918,0.4751165211200714,-3.3653757572174072
1403715527182143000,0.0017985999584197998,0.025869837030768394,0.09017479419708252,9.125530242919922,0.6560046672821045,-3.0720090866088867
1403715527187143000,-0.013591267168521881,0.011138549074530602,0.07586492598056793,9.076093673706055,0.33612364530563354,-3.169834852218628
1403715527192143000,-0.013553410768508911,0.007538774982094765,0.05549953132867813,9.475423812866211,0.18272140622138977,-3.2995617389678955
1403715527197143000,-0.0017405897378921509,0.012562716379761696,0.07120019197463989,9.182140350341797,0.2473442256450653,-3.2350099086761475
1403715527202143000,0.010812178254127502,0.01674736849963665,0.0819169208407402,9.108640670776367,0.45098432898521423,-3.243586778640747
1403715527207143000,0.006696440279483795,0.018825484439730644,0.10496073961257935,9.255513191223145,0.5481974482536316,-3.2920491695404053
1403715527212143000,-0.00592484325170517,0.026613874360919,0.09646105766296387,9.125128746032715,0.508765697479248,-3.1701550483703613
1403715527217143000,-0.012988090515136719,0.02018924243748188,0.07718350738286972,9.16528034210205,0.3701290190219879,-3.1865925788879395
1403715527222143000,-0.012272633612155914,0.015202982351183891,0.06252308934926987,9.222304344177246,0.06945763528347015,-3.2506868839263916
1403715527227143000,-0.004501409828662872,0.011124061420559883,0.0530734658241272,9.116228103637695,0.043154243379831314,-3.3000853061676025
1403715527232143000,0.007384255528450012,0.01531142182648182,0.06165260449051857,9.329047203063965,0.30287179350852966,-3.275757312774658
1403715527237143000,0.010170862078666687,0.03212052583694458,0.08618658035993576,9.304876327514648,0.4256301522254944,-3.2918341159820557
1403715527242143000,0.004564747214317322,0.027985544875264168,0.09080895781517029,8.937121391296387,0.3619946241378784,-3.0721275806427
1403715527247143000,-0.0023902803659439087,0.02369323931634426,0.08632920682430267,9.271845817565918,0.5339853763580322,-3.235107183456421
1403715527252143000,-0.015780441462993622,0.02225283347070217,0.0731230229139328,9.304798126220703,0.28059667348861694,-3.340708017349243
1403715527257143000,-0.01368936151266098,0.02495906688272953,0.0550217479467392,9.296038627624512,-0.0048681022599339485,-3.1776468753814697
1403715527262143000,-0.002398572862148285,0.01810646243393421,0.06857632845640182,9.288091659545898,0.3782031834125519,-3.3086795806884766
1403715527267143000,-0.013580650091171265,0.030773935839533806,0.07501170784235,9.362582206726074,0.4580315947532654,-3.292170524597168
1403715527272143000,-0.009439826011657715,0.03909674286842346,0.09566114842891693,9.36931037902832,0.0510905385017395,-3.30804443359375
1403715527277143000,0.003836885094642639,0.033409394323825836,0.09974589943885803,9.24683952331543,0.012856311164796352,-3.153240442276001
1403715527282143000,0.01359480619430542,0.024431971833109856,0.10095293074846268,9.493014335632324,0.1746114045381546,-3.2179508209228516
1403715527287143000,0.013699650764465332,0.029178211465477943,0.06952014565467834,9.735872268676758,-0.38270437717437744,-3.200876235961914
1403715527292143000,0.0360713005065918,0.02352810837328434,0.046851709485054016,9.645923614501953,-0.3813927173614502,-3.1682260036468506
1403715527297143000,0.05559052526950836,0.03277534991502762,0.06376563012599945,9.093612670898438,0.6799641847610474,-3.047532796859741
1403715527302143000,0.0375896617770195,0.009750783443450928,0.08174864947795868,9.356179237365723,1.2899168729782104,-3.170107364654541
1403715527307143000,-0.013455212116241455,0.02352338843047619,0.09151686728000641,9.5110502243042,1.365385890007019,-3.300530433654785
1403715527312143000,-0.07680876553058624,0.015888260677456856,0.08576320111751556,9.069275856018066,0.9093165397644043,-3.0408530235290527
1403715527317143000,-0.0886833593249321,0.015321340411901474,0.07930152863264084,9.149724960327148,0.11691491305828094,-3.121544599533081
1403715527322143000,-0.07086722552776337,0.009833017364144325,0.06557396799325943,9.02554702758789,-0.44605621695518494,-2.8843672275543213
1403715527327143000,-0.008608929812908173,0.009720653295516968,0.07136695086956024,9.383922576904297,-0.9058996438980103,-2.997124671936035
1403715527332143000,0.04999861121177673,0.02224096842110157,0.07698258757591248,9.090131759643555,-0.6449451446533203,-3.0215277671813965
1403715527337143000,0.080001100897789,0.018856970593333244,0.07614235579967499,9.125161170959473,0.3865627348423004,-3.2668821811676025
1403715527342143000,0.057056277990341187,0.023755250498652458,0.06557929515838623,8.840950012207031,1.0640661716461182,-3.145364284515381
1403715527347143000,0.013838142156600952,0.01445276103913784,0.06822488456964493,9.332425117492676,1.4135005474090576,-3.1696696281433105
1403715527352143000,-0.014933422207832336,0.02915213070809841,0.09264004230499268,9.021016120910645,0.8998622894287109,-3.1130056381225586
1403715527357143000,-0.036001816391944885,-0.0034628519788384438,0.08935968577861786,8.953822135925293,0.558923602104187,-3.1548664569854736
1403715527362143000,-0.0478946790099144,0.018826643005013466,0.0706724002957344,9.320120811462402,0.08407457172870636,-3.480254888534546
1403715527367143000,-0.0361541211605072,-0.0006382372230291367,0.07215175777673721,9.116044044494629,0.10643073916435242,-3.1540067195892334
1403715527372143000,-0.010971754789352417,0.024296386167407036,0.06696829199790955,9.777106285095215,-0.20907337963581085,-3.3566949367523193
1403715527377143000,0.023395776748657227,0.023122286424040794,0.08713725209236145,8.715071678161621,0.06258335709571838,-2.9822611808776855
1403715527382143000,0.022914692759513855,0.004808809608221054,0.0752411037683487,9.696757316589355,0.3447440266609192,-3.5196352005004883
1403715527387143000,0.004534855484962463,0.03198771923780441,0.0661800429224968,9.165750503540039,0.350313663482666,-3.1118662357330322
1403715527392143000,0.007307589054107666,0.010335516184568405,0.06374175101518631,9.297279357910156,0.10802102088928223,-3.1523125171661377
1403715527397143000,0.02983824908733368,0.023075124248862267,0.09589613229036331,9.067954063415527,0.2807198464870453,-3.1366944313049316
1403715527402143000,0.018082082271575928,-0.0013076839968562126,0.08159632980823517,9.207062721252441,0.3678819537162781,-3.446951150894165
1403715527407143000,-0.01356814056634903,0.009647415950894356,0.06063635274767876,9.240293502807617,0.7849626541137695,-3.170767068862915
1403715527412143000,-0.028575994074344635,0.014572441577911377,0.06695807725191116,9.427834510803223,0.4709011912345886,-3.0472357273101807
1403715527417143000,-0.022375091910362244,0.020170899108052254,0.09761552512645721,9.025909423828125,-0.1333203762769699,-3.177293539047241
1403715527422143000,-0.017035730183124542,0.004983017221093178,0.09360383450984955,9.507707595825195,-0.2986300587654114,-3.185368299484253
1403715527427143000,-0.018392637372016907,0.03474465757608414,0.07063382863998413,9.541111946105957,-0.04753189906477928,-3.168954372406006
1403715527432143000,-0.004741191864013672,0.0201884675770998,0.0814940482378006,9.190025329589844,-0.40717899799346924,-2.8755455017089844
1403715527437143000,0.03306138515472412,0.024373462423682213,0.09967121481895447,9.34456729888916,-0.1775713860988617,-3.1772871017456055
1403715527442143000,0.04106797277927399,0.011936476454138756,0.08598022162914276,9.427327156066895,0.06688828766345978,-3.3486380577087402
1403715527447143000,0.010425962507724762,0.018722577020525932,0.06573906540870667,9.462631225585938,1.0775266885757446,-3.357555389404297
1403715527452143000,-0.01431719958782196,0.03403088450431824,0.05990779027342796,9.126062393188477,0.5406343340873718,-3.1783361434936523
1403715527457143000,-0.0018420740962028503,0.014097176492214203,0.08996646106243134,8.650550842285156,0.353996217250824,-3.0971782207489014
1403715527462143000,0.005985751748085022,0.004265313968062401,0.09083117544651031,9.973751068115234,0.25707268714904785,-3.6339943408966064
1403715527467143000,-0.019128620624542236,0.025615481659770012,0.05867123231291771,9.20019817352295,1.0548533201217651,-3.178673267364502
1403715527472143000,-0.0431685671210289,0.03337804973125458,0.05030553787946701,8.740742683410645,0.44355323910713196,-3.0324933528900146
1403715527477143000,-0.01394999772310257,0.0022075120359659195,0.09217570722103119,8.706473350524902,-0.04548505321145058,-2.925610065460205
1403715527482143000,-0.006562858819961548,0.018967976793646812,0.08294609934091568,10.046167373657227,0.0703575536608696,-3.658172369003296
1403715527487143000,-0.008513614535331726,0.03900562971830368,0.07487235218286514,8.970441818237305,0.5473015308380127,-3.0483758449554443
1403715527492143000,-0.0030624419450759888,0.03602560609579086,0.07624629139900208,8.625849723815918,0.08067993074655533,-2.8926234245300293
1403715527497143000,0.045618414878845215,0.00716187059879303,0.10652333498001099,8.91809368133545,-0.30044448375701904,-3.0621674060821533
1403715527502143000,0.04250285029411316,0.02238779328763485,0.08450472354888916,9.917043685913086,0.5026857256889343,-3.4950249195098877
1403715527507143000,0.006901770830154419,0.05197688192129135,0.05118474364280701,9.127665519714355,1.1274210214614868,-3.1700310707092285
1403715527512143000,-0.01515147089958191,0.03206394612789154,0.07529950886964798,8.413838386535645,0.5565771460533142,-3.0237083435058594
1403715527517143000,-0.004880756139755249,0.006561266258358955,0.09398160874843597,9.84985065460205,-0.0032272934913635254,-3.4212374687194824
1403715527522143000,-0.014886058866977692,0.036932848393917084,0.0706307664513588,9.501236915588379,0.5788689851760864,-3.243440628051758
1403715527527143000,-0.03933367878198624,0.0379975289106369,0.05122465640306473,8.979997634887695,0.5054149627685547,-3.080650568008423
1403715527532143000,-0.010379821062088013,0.006170419976115227,0.09477753937244415,8.960310935974121,-0.3039391040802002,-2.8840174674987793
1403715527537143000,0.009232960641384125,0.01986057125031948,0.08269144594669342,10.077509880065918,-0.11912400275468826,-3.4295060634613037
1403715527542143000,-0.00013452023267745972,0.038949549198150635,0.051203079521656036,9.08537483215332,0.5202007293701172,-3.0315747261047363
1403715527547143000,-0.007089339196681976,0.019165148958563805,0.07222410291433334,8.857362747192383,0.43899887800216675,-3.1125407218933105
1403715527552143000,0.01271510124206543,0.009213527664542198,0.10578443109989166,9.540143966674805,-0.09932711720466614,-3.2256131172180176
1403715527557143000,0.014964982867240906,0.040748320519924164,0.09412290155887604,9.801374435424805,0.11084169149398804,-3.2584385871887207
1403715527562143000,-0.00703081488609314,0.031107669696211815,0.055466193705797195,8.840503692626953,0.6113983392715454,-3.096508741378784
1403715527567143000,-0.0030961930751800537,-0.009236061945557594,0.08573460578918457,8.693702697753906,0.23588521778583527,-3.04717755317688
1403715527572143000,0.00908668339252472,0.009306719526648521,0.09667958319187164,10.28196907043457,0.023569099605083466,-3.437019109725952
1403715527577143000,-0.006017126142978668,0.029987355694174767,0.03371788561344147,8.83036994934082,0.35015806555747986,-3.0890774726867676
1403715527582143000,-0.01412743330001831,-0.0023520169779658318,0.06593408435583115,8.628510475158691,0.7011414766311646,-3.048530101776123
1403715527587143000,-0.00180710107088089,-0.005441236309707165,0.10174690932035446,9.6801176071167,0.34903210401535034,-3.2338695526123047
1403715527592143000,-0.006127655506134033,0.033671945333480835,0.07851100713014603,9.792197227478027,0.004729518201202154,-3.2174530029296875
1403715527597143000,-0.012098297476768494,0.014413202181458473,0.059060268104076385,8.659163475036621,0.43914011120796204,-3.048642873764038
1403715527602143000,0.0019768178462982178,-0.00849129818379879,0.09356826543807983,9.102476119995117,0.6823497414588928,-3.178318738937378
1403715527607143000,0.007955029606819153,0.029582856222987175,0.11606460809707642,9.996122360229492,-0.011415419168770313,-3.4700098037719727
1403715527612143000,-0.003863684833049774,0.03831467777490616,0.0470784567296505,9.303143501281738,0.032526884227991104,-3.226902961730957
1403715527617143000,0.003987953066825867,0.0026039835065603256,0.06868960708379745,8.59587287902832,0.7838789224624634,-3.023677349090576
1403715527622143000,0.003169022500514984,0.014137191697955132,0.09251966327428818,9.713750839233398,0.47714468836784363,-3.372941255569458
1403715527627143000,-0.011630311608314514,0.0383613258600235,0.056441519409418106,8.90150260925293,-0.002398273441940546,-2.9902329444885254
1403715527632143000,-0.012216493487358093,-0.01777494326233864,0.0554850809276104,8.652148246765137,0.6712912321090698,-3.089578628540039
1403715527637143000,-0.00039618462324142456,0.005676379427313805,0.0962258130311966,10.115493774414062,0.6193088889122009,-3.494608163833618
1403715527642143000,-0.016511622816324234,0.02958129160106182,0.08080102503299713,8.567242622375488,-0.0136331245303154,-3.0888941287994385
1403715527647143000,-0.0016064941883087158,-0.003026866354048252,0.06327361613512039,9.172924041748047,0.11240670830011368,-3.341503620147705
1403715527652143000,0.016429409384727478,0.0013737920671701431,0.09919510036706924,9.436705589294434,0.3286566138267517,-3.1597681045532227
1403715527657143000,0.01216927170753479,0.036402761936187744,0.0721137598156929,9.418472290039062,0.11230164021253586,-3.103969097137451
1403715527662143000,0.013833120465278625,0.006108419969677925,0.07282821089029312,9.221372604370117,0.11566941440105438,-3.4964897632598877
1403715527667143000,0.010248810052871704,0.018692458048462868,0.0847267359495163,9.634275436401367,1.0590698719024658,-3.3238348960876465
1403715527672143000,-0.0173463374376297,0.060200899839401245,0.07139132171869278,9.09170913696289,0.15805597603321075,-2.582493543624878
1403715527677143000,-0.01913589984178543,-0.0015192488208413124,0.06591060012578964,9.148804664611816,0.11313759535551071,-2.8441262245178223
1403715527682143000,-0.009326629340648651,-0.0015570726245641708,0.09522077441215515,10.146255493164062,0.3591756522655487,-3.2821521759033203
1403715527687143000,-0.025791369378566742,0.045436352491378784,0.06091778352856636,8.674250602722168,-0.1727115660905838,-3.0723748207092285
1403715527692143000,-0.010793842375278473,-0.0058218687772750854,0.05890878289937973,8.952966690063477,0.04787835851311684,-3.284393548965454
1403715527697143000,0.006037890911102295,0.014835776761174202,0.08767534792423248,9.723068237304688,0.40405890345573425,-3.404836416244507
1403715527702143000,0.003643617033958435,0.057466305792331696,0.07282479852437973,8.593794822692871,-0.1824306845664978,-3.3570315837860107
1403715527707143000,0.013766564428806305,-0.009355049580335617,0.06654161959886551,8.642561912536621,0.03654727339744568,-3.382744550704956
1403715527712143000,0.024999409914016724,0.012544648721814156,0.089800164103508,9.993677139282227,0.7251852750778198,-3.519057512283325
1403715527717143000,0.0008133500814437866,0.05610896646976471,0.0679682046175003,8.494298934936523,-0.04233895242214203,-2.770016670227051
1403715527722143000,0.00601930171251297,-0.02611987106502056,0.07055175304412842,8.837876319885254,0.4897645115852356,-2.910378932952881
1403715527727143000,-0.00223454087972641,0.023736467584967613,0.10525260865688324,10.28805923461914,1.0170774459838867,-3.5518834590911865
1403715527732143000,-0.031348951160907745,0.060369089245796204,0.08842062950134277,8.04474925994873,-0.31502223014831543,-3.4895851612091064
1403715527737143000,-0.017723724246025085,-0.009453190490603447,0.09210745245218277,9.62133502960205,0.18988774716854095,-3.048053503036499
1403715527742143000,-0.00658898800611496,0.06083158403635025,0.1106143593788147,9.70848274230957,0.7128046154975891,-2.9302759170532227
1403715527747143000,-0.010998152196407318,0.038628242909908295,0.07304808497428894,8.265649795532227,-0.49833419919013977,-3.357001543045044
1403715527752143000,0.019363336265087128,-0.015903063118457794,0.08589853346347809,9.571762084960938,0.17585866153240204,-3.2930526733398438
1403715527757143000,0.020757392048835754,0.06577632576227188,0.08335162699222565,10.083781242370605,0.6620868444442749,-2.889718532562256
1403715527762143000,0.010013282299041748,0.008001653477549553,0.04452965408563614,7.7750244140625,-0.4006781280040741,-3.1533517837524414
1403715527767143000,0.022365927696228027,-0.041664958000183105,0.05685253441333771,10.048441886901855,0.9670813083648682,-3.1450705528259277
1403715527772143000,-0.0009864270687103271,0.060873545706272125,0.07285115122795105,10.01148796081543,0.980550229549408,-3.273956775665283
1403715527777143000,-0.02779347077012062,0.0043178219348192215,0.04648399353027344,8.159191131591797,-0.09987848997116089,-3.1545042991638184
1403715527782143000,-0.018241994082927704,-0.01650739088654518,0.0827530026435852,10.073429107666016,1.124991774559021,-3.267443895339966
1403715527787143000,-0.027083709836006165,0.08430734276771545,0.0965217649936676,8.75110149383545,-0.07080397009849548,-2.9896156787872314
1403715527792143000,-0.015246503055095673,-0.016157537698745728,0.08552640676498413,8.787720680236816,-0.30319130420684814,-3.153465986251831
1403715527797143000,0.020224161446094513,0.017040973529219627,0.106683149933815,10.701984405517578,0.8053646683692932,-3.2728500366210938
1403715527802143000,-0.006056368350982666,0.07185537368059158,0.08102837949991226,8.709844589233398,0.03406780585646629,-3.1210477352142334
1403715527807143000,0.008601173758506775,-0.047738730907440186,0.06665224581956863,8.411304473876953,0.04009130969643593,-3.113281011581421
1403715527812143000,0.014710605144500732,0.009376836940646172,0.07658607512712479,10.890942573547363,1.1131774187088013,-3.3273534774780273
1403715527817143000,-0.02145637571811676,0.046655505895614624,0.06569621711969376,7.925987720489502,0.09877825528383255,-3.055542230606079
1403715527822143000,-0.003111138939857483,-0.061086103320121765,0.07109994441270828,8.681882858276367,0.1967315822839737,-3.1477468013763428
1403715527827143000,0.008273862302303314,0.027932925149798393,0.09539191424846649,10.685587882995605,0.8527637124061584,-3.2463314533233643
1403715527832143000,-0.011115193367004395,0.025755295529961586,0.08375068753957748,7.965731620788574,-0.21937352418899536,-3.071986436843872
1403715527837143000,0.01109883189201355,-0.0647769644856453,0.09568294882774353,10.47164249420166,1.0391677618026733,-3.429701328277588
1403715527842143000,-0.018416859209537506,0.06012188643217087,0.06936261802911758,9.616315841674805,0.5019384026527405,-3.1674745082855225
1403715527847143000,-0.03001996874809265,-0.011305518448352814,0.044655732810497284,7.782996654510498,-0.13984732329845428,-2.9834141731262207
1403715527852143000,0.00973924994468689,-0.029903089627623558,0.0782955214381218,10.901864051818848,0.5260009765625,-3.435577630996704
1403715527857143000,-0.008662030100822449,0.10582917183637619,0.076243095099926,9.13555908203125,0.004768362734466791,-3.224673271179199
1403715527862143000,0.006442442536354065,-0.03664954751729965,0.08735385537147522,7.555337905883789,-0.17361974716186523,-3.0003304481506348
1403715527867143000,0.020277775824069977,-0.00257162656635046,0.09460470825433731,11.255929946899414,1.0229287147521973,-3.7041468620300293
1403715527872143000,-0.010334610939025879,0.08570683747529984,0.09504544734954834,7.712541580200195,0.010735350660979748,-2.948955774307251
1403715527877143000,0.0058058202266693115,-0.07208286970853806,0.08725963532924652,8.364242553710938,0.1812540739774704,-2.9841060638427734
1403715527882143000,-0.0056277066469192505,0.04447289556264877,0.07151080667972565,11.051802635192871,0.9357274770736694,-3.744550943374634
1403715527887143000,-0.024390626698732376,0.058917559683322906,0.048328205943107605,7.457671642303467,-0.17717677354812622,-2.6808557510375977
1403715527892143000,0.003237500786781311,-0.07235333323478699,0.08167052268981934,10.63394546508789,0.5317077040672302,-3.388413429260254
1403715527897143000,-0.012828290462493896,0.1029917523264885,0.06574708223342896,9.1973295211792,-0.19209855794906616,-3.0606367588043213
1403715527902143000,0.01548788696527481,-0.03553326427936554,0.07960965484380722,7.74459981918335,0.18057627975940704,-3.008113384246826
1403715527907143000,0.009019315242767334,0.023846453055739403,0.07841593027114868,10.797648429870605,0.9895924925804138,-3.403923273086548
1403715527912143000,-0.009512335062026978,0.09317932277917862,0.08104225993156433,8.257661819458008,0.06818132102489471,-2.605206251144409
1403715527917143000,0.005746319890022278,-0.056165412068367004,0.1097191721200943,8.620301246643066,0.3094455301761627,-3.0579476356506348
1403715527922143000,-0.005120553076267242,0.06369898468255997,0.09641166031360626,10.876679420471191,0.17568685114383698,-3.6894102096557617
1403715527927143000,0.0016940385103225708,0.02766009233891964,0.08662077784538269,7.849841594696045,0.07639646530151367,-2.8271498680114746
1403715527932143000,0.008190244436264038,-0.03148346394300461,0.07121824473142624,9.90349006652832,0.8018343448638916,-3.448338747024536
1403715527937143000,-0.010839767754077911,0.08202216774225235,0.07798554003238678,9.774759292602539,0.0898776426911354,-2.986764907836914
1403715527942143000,0.00499638170003891,-0.019555380567908287,0.07329913973808289,8.162532806396484,0.38722097873687744,-3.5472638607025146
1403715527947143000,-0.010697171092033386,-0.0033330274745821953,0.05866106599569321,10.782313346862793,-0.004881537053734064,-3.6084256172180176
1403715527952143000,-0.0031840428709983826,0.034089699387550354,0.06923808157444,8.249574661254883,0.4102843105792999,-3.0301380157470703
1403715527957143000,-0.007943019270896912,-0.01200410258024931,0.051692236214876175,9.389552116394043,0.5318106412887573,-3.253060817718506
1403715527962143000,0.0017574876546859741,0.05034222453832626,0.07961586862802505,9.74190902709961,0.06621858477592468,-3.281562328338623
1403715527967143000,0.005233012139797211,0.020668109878897667,0.0754307210445404,9.27246379852295,0.8279829025268555,-3.5453174114227295
1403715527972143000,-0.0324726328253746,0.046917811036109924,0.0478973388671875,9.926912307739258,0.07521521300077438,-3.6681642532348633
1403715527977143000,-0.002379804849624634,0.058731041848659515,0.08180969953536987,8.762889862060547,0.5110939741134644,-3.0873639583587646
1403715527982143000,-0.018539316952228546,0.04236794263124466,0.063695527613163,8.912156105041504,0.23154999315738678,-2.868454694747925
1403715527987143000,-0.0011032819747924805,0.04451024532318115,0.08370331674814224,8.806699752807617,-0.2374853938817978,-3.0384092330932617
1403715527992143000,0.017941191792488098,0.00807470828294754,0.09029611945152283,9.20534896850586,0.7371770739555359,-3.2278411388397217
1403715527997143000,-0.012427829205989838,0.05060841888189316,0.05639401450753212,8.782074928283691,-0.24906061589717865,-2.8193607330322266
1403715528002143000,0.02549360692501068,-0.010298781096935272,0.09899969398975372,9.001972198486328,0.7864057421684265,-3.0713915824890137
1403715528007143000,-0.00506708025932312,0.025421759113669395,0.04703088477253914,9.965353012084961,0.5326645374298096,-3.8462603092193604
1403715528012143000,0.011516593396663666,0.019657699391245842,0.07028922438621521,8.382715225219727,0.7097815871238708,-3.0731844902038574
1403715528017143000,-0.006539657711982727,-0.003286793828010559,0.04618852958083153,10.193442344665527,0.288485586643219,-3.143221616744995
1403715528022143000,-0.019937794655561447,0.024129794910550117,0.05305519327521324,8.689908981323242,-0.27429327368736267,-2.9320499897003174
1403715528027143000,-0.008797436952590942,-0.04777541011571884,0.07885629683732986,8.932066917419434,0.744361400604248,-3.000072717666626
1403715528032143000,-0.04436270892620087,0.030656320974230766,0.055300161242485046,10.4054536819458,0.3669070601463318,-3.3480517864227295
1403715528037143000,-0.0010003149509429932,0.022504130378365517,0.11377204954624176,8.650744438171387,0.4510394036769867,-3.040217638015747
1403715528042143000,-0.020016811788082123,0.019552050158381462,0.06767970323562622,9.908943176269531,-0.20728814601898193,-3.888674259185791
1403715528047143000,0.010823473334312439,0.06380254775285721,0.07883168011903763,8.949734687805176,-0.3792208433151245,-2.719373941421509
1403715528052143000,0.021413274109363556,0.029005447402596474,0.055313266813755035,9.249406814575195,0.12402693927288055,-2.8986268043518066
1403715528057143000,-0.005348809063434601,0.05012077838182449,0.04670081287622452,8.927263259887695,-0.5966556668281555,-2.9732158184051514
1403715528062143000,0.023442238569259644,-0.008355218917131424,0.07470612972974777,8.962289810180664,0.5493894815444946,-3.220139980316162
1403715528067143000,-0.020703166723251343,0.044788770377635956,0.06991036981344223,9.438322067260742,0.3716053366661072,-3.496696949005127
1403715528072143000,0.008605971932411194,0.008388452231884003,0.13043439388275146,8.044580459594727,0.6144590377807617,-2.281198024749756
1403715528077143000,-0.0227532759308815,-0.004906157031655312,0.08446711301803589,10.163055419921875,0.14960257709026337,-3.6906867027282715
1403715528082143000,-0.004612460732460022,0.031012145802378654,0.1074296087026596,9.279143333435059,0.16642101109027863,-3.2106382846832275
1403715528087143000,-0.003017418086528778,0.01704639382660389,0.08943881839513779,9.475845336914062,0.8927181959152222,-3.2351174354553223
1403715528092143000,-0.015033438801765442,0.06845394521951675,0.08568447828292847,9.21362018585205,-0.2623463273048401,-2.8836863040924072
1403715528097143000,0.01788005232810974,0.0036474186927080154,0.09719127416610718,8.527643203735352,0.12492071837186813,-2.8357760906219482
1403715528102143000,-0.010303065180778503,0.020239239558577538,0.05300125479698181,10.226234436035156,-0.15159887075424194,-3.5370898246765137
1403715528107143000,0.021361269056797028,0.03694517910480499,0.0780935138463974,8.37282657623291,0.30493849515914917,-2.5179195404052734
1403715528112143000,0.0004295557737350464,-0.010726463049650192,0.02736704796552658,9.852585792541504,0.19519613683223724,-3.6504366397857666
1403715528117143000,-0.004606470465660095,0.010823143646121025,0.054996177554130554,8.748048782348633,0.4654792547225952,-3.120380401611328
1403715528122143000,-0.013606086373329163,-0.003637399524450302,0.04548904299736023,9.397068977355957,0.6330613493919373,-3.462212562561035
1403715528127143000,-0.021434389054775238,0.037489160895347595,0.06004231050610542,9.605245590209961,-0.6581251621246338,-3.0948591232299805
1403715528132143000,-0.00309646874666214,-0.011870946735143661,0.07482969015836716,9.099874496459961,0.3697375953197479,-3.0150794982910156
1403715528137143000,-0.03892580419778824,0.016982151195406914,0.057280220091342926,9.68299674987793,0.4260418117046356,-3.7743046283721924
1403715528142143000,-0.003108799457550049,0.009778166189789772,0.09548134356737137,8.282279014587402,0.7221500277519226,-2.8038086891174316
1403715528147143000,-0.0101858451962471,-0.0018136454746127129,0.08297241479158401,9.827460289001465,-0.037646159529685974,-3.355886936187744
1403715528152143000,0.005898475646972656,0.04016789793968201,0.08430147916078568,9.286360740661621,-0.6203255653381348,-3.274749279022217
1403715528157143000,0.03130929172039032,-0.011868542060256004,0.09654920548200607,9.190244674682617,0.567271888256073,-3.047821283340454
1403715528162143000,0.02188783884048462,0.024158870801329613,0.11797409504652023,9.442093849182129,-0.47962555289268494,-3.0625083446502686
1403715528167143000,0.050775766372680664,-0.03228500857949257,0.11149801313877106,9.11668872833252,0.7837278246879578,-3.055124521255493
1403715528172143000,0.005277007818222046,0.006881358101963997,0.09490542858839035,9.560611724853516,0.742276668548584,-3.684662103652954
1403715528177143000,0.01009950041770935,0.01145361177623272,0.10801413655281067,8.413207054138184,0.7626237869262695,-2.6818835735321045
1403715528182143000,-0.031909726560115814,-0.00633909460157156,0.06747887283563614,10.178679466247559,0.2189992517232895,-3.616518974304199
1403715528187143000,-0.022800855338573456,0.048463769257068634,0.060163721442222595,9.916216850280762,0.22942888736724854,-3.3236024379730225
1403715528192143000,-0.02047453075647354,0.02141907997429371,0.05677792802453041,9.249129295349121,1.0710529088974,-3.3255937099456787
1403715528197143000,-0.028437115252017975,0.02706439606845379,0.057769592851400375,8.994237899780273,-0.33241578936576843,-3.2836825847625732
1403715528202143000,-0.0016584992408752441,-0.016975702717900276,0.0649595558643341,9.286096572875977,0.1260959804058075,-3.1037216186523438
1403715528207143000,-0.014500170946121216,0.00615423358976841,0.04201330244541168,9.469584465026855,0.08392313867807388,-3.4725985527038574
1403715528212143000,0.028408735990524292,0.023769346997141838,0.10045257210731506,8.789631843566895,-0.00577933806926012,-2.9980969429016113
1403715528217143000,0.005382142961025238,0.0007180720567703247,0.0657779648900032,9.256172180175781,0.42831742763519287,-3.4465062618255615
