#timestamp [ns],w_RS_S_x [rad s^-1],w_RS_S_y [rad s^-1],w_RS_S_z [rad s^-1],a_RS_S_x [m s^-2],a_RS_S_y [m s^-2],a_RS_S_z [m s^-2]
1403715523912143000,-0.0006981317007977319,0.019547687622336492,0.0767944870877505,9.218250999999999,0.3023717083333333,-3.1544724166666662
1403715523917143000,-0.0006981317007977319,0.020943951023931952,0.07260569688296412,9.316317499999998,0.29419949999999995,-3.2525389166666665
1403715523922143000,-0.003490658503988659,0.023038346126325153,0.0747000919853573,9.210078791666666,0.29419949999999995,-3.178989041666666
1403715523927143000,-0.0027925268031909274,0.017453292519943295,0.07819075048934597,9.324489708333333,0.3023717083333333,-3.260711125
1403715523932143000,-0.003490658503988659,0.02234021442552742,0.08028514559173915,9.226423208333333,0.269682875,-3.195333458333333
1403715523937143000,-0.0027925268031909274,0.021642082724729686,0.08098327729253688,9.324489708333333,0.34323275000000003,-3.219850083333333
1403715523942143000,-0.0006981317007977319,0.024434609527920613,0.07749261878854824,9.226423208333333,0.34323275000000003,-3.178989041666666
1403715523947143000,0.0,0.01884955592153876,0.07819075048934597,9.299973083333333,0.35957716666666667,-3.178989041666666
1403715523952143000,0.0,0.020943951023931952,0.07888888219014369,9.234595416666666,0.3350605416666666,-3.211677875
1403715523957143000,-0.0020943951023931952,0.02024581932313422,0.07749261878854824,9.308145291666667,0.367749375,-3.2035056666666666
1403715523962143000,-0.0027925268031909274,0.024434609527920613,0.07958701389094143,9.201906583333333,0.3023717083333333,-3.138128
1403715523967143000,-0.0013962634015954637,0.02024581932313422,0.0767944870877505,9.291800875,0.34323275000000003,-3.170816833333333
1403715523972143000,-0.0013962634015954637,0.021642082724729686,0.07609635538695278,9.234595416666666,0.3105439166666667,-3.2035056666666666
1403715523977143000,-0.003490658503988659,0.02024581932313422,0.07539822368615504,9.291800875,0.35140495833333335,-3.219850083333333
1403715523982143000,-0.004886921905584123,0.023736477827122883,0.0767944870877505,9.259112041666667,0.3105439166666667,-3.18716125
1403715523987143000,-0.0027925268031909274,0.019547687622336492,0.07539822368615504,9.275456458333332,0.34323275000000003,-3.195333458333333
1403715523992143000,-0.003490658503988659,0.020943951023931952,0.07609635538695278,9.226423208333333,0.318716125,-3.211677875
1403715523997143000,-0.003490658503988659,0.017453292519943295,0.0747000919853573,9.242767624999999,0.35140495833333335,-3.219850083333333
1403715524002143000,-0.003490658503988659,0.01884955592153876,0.08028514559173915,9.226423208333333,0.29419949999999995,-3.170816833333333
1403715524007143000,-0.004886921905584123,0.01884955592153876,0.07819075048934597,9.283628666666665,0.35957716666666667,-3.211677875
1403715524012143000,-0.003490658503988659,0.023736477827122883,0.07539822368615504,9.226423208333333,0.3350605416666666,-3.2035056666666666
1403715524017143000,0.0006981317007977319,0.016755160819145562,0.07888888219014369,9.26728425,0.3350605416666666,-3.2035056666666666
1403715524022143000,-0.0027925268031909274,0.016755160819145562,0.07888888219014369,9.242767624999999,0.3023717083333333,-3.2035056666666666
1403715524027143000,-0.0013962634015954637,0.016755160819145562,0.07819075048934597,9.275456458333332,0.35140495833333335,-3.18716125
1403715524032143000,-0.0006981317007977319,0.02234021442552742,0.07819075048934597,9.259112041666667,0.318716125,-3.18716125
1403715524037143000,-0.0013962634015954637,0.023038346126325153,0.07609635538695278,9.283628666666665,0.318716125,-3.2035056666666666
1403715524042143000,0.0020943951023931952,0.023736477827122883,0.08377580409572781,9.242767624999999,0.3023717083333333,-3.170816833333333
1403715524047143000,-0.0013962634015954637,0.01815142422074103,0.0767944870877505,9.324489708333333,0.3350605416666666,-3.211677875
1403715524052143000,-0.0027925268031909274,0.021642082724729686,0.0767944870877505,9.26728425,0.3023717083333333,-3.195333458333333
1403715524057143000,-0.001954793930053711,0.02038087323307991,0.07885251194238663,9.282676696777344,0.3463097810745239,-3.202098846435547
1403715524062143000,0.0029729530215263367,0.019744031131267548,0.07880298793315887,9.250144004821777,0.313965380191803,-3.1693947315216064
1403715524067143000,0.0029701925814151764,0.015552982687950134,0.07386471331119537,9.28272819519043,0.34633296728134155,-3.1936869621276855
1403715524072143000,-0.0012692809104919434,0.018968313932418823,0.07953602820634842,9.233675003051758,0.2730770707130432,-3.2020020484924316
1403715524077143000,-0.0019639059901237488,0.01409270241856575,0.07464100420475006,9.307560920715332,0.329897940158844,-3.193891763687134
1403715524082143000,-0.0005470067262649536,0.018290944397449493,0.0752551481127739,9.18447208404541,0.3302726745605469,-3.1938164234161377
1403715524087143000,0.0001692846417427063,0.016961392015218735,0.07599184662103653,9.283352851867676,0.35460785031318665,-3.1857447624206543
1403715524092143000,-0.0005510970950126648,0.01834404096007347,0.07886797189712524,9.20916748046875,0.2811848819255829,-3.1612069606781006
1403715524097143000,-0.000539977103471756,0.018303189426660538,0.07814529538154602,9.26675796508789,0.3217106759548187,-3.1773741245269775
1403715524102143000,-0.0012631416320800781,0.02247801050543785,0.07806175202131271,9.201160430908203,0.2813724875450134,-3.1692237854003906
1403715524107143000,-0.0026519857347011566,0.018349383026361465,0.07597412168979645,9.24217414855957,0.36260685324668884,-3.2101080417633057
1403715524112143000,-0.00262325257062912,0.021105945110321045,0.07881420850753784,9.225704193115234,0.346633642911911,-3.218432903289795
1403715524117143000,-0.00331965833902359,0.018305186182260513,0.08020849525928497,9.193121910095215,0.3382611870765686,-3.1777026653289795
1403715524122143000,-0.0026180297136306763,0.024586383253335953,0.07952137291431427,9.20129680633545,0.3056297302246094,-3.2020177841186523
1403715524127143000,-0.0005284324288368225,0.021814335137605667,0.0760003924369812,9.26686954498291,0.33816105127334595,-3.193812608718872
1403715524132143000,-0.0026394352316856384,0.018299799412488937,0.08086887001991272,9.225485801696777,0.3303297162055969,-3.1857283115386963
1403715524137143000,-0.0019191056489944458,0.018976841121912003,0.0815921425819397,9.274690628051758,0.30558550357818604,-3.226703643798828
1403715524142143000,-0.0012294501066207886,0.023177146911621094,0.0794966071844101,9.225494384765625,0.33004724979400635,-3.2104196548461914
1403715524147143000,-0.0012150369584560394,0.019725941121578217,0.07529042661190033,9.290872573852539,0.34647026658058167,-3.251159429550171
1403715524152143000,-0.0005325190722942352,0.022504989057779312,0.07740426808595657,9.274449348449707,0.2975885570049286,-3.2105636596679688
1403715524157143000,-0.0005415640771389008,0.019730478525161743,0.0788058489561081,9.258096694946289,0.3788680136203766,-3.1777193546295166
1403715524162143000,-0.0019465945661067963,0.020374398678541183,0.07880383729934692,9.233620643615723,0.2977793514728546,-3.2182953357696533
1403715524167143000,-0.00196244940161705,0.01826680451631546,0.07603853195905685,9.22592830657959,0.32183870673179626,-3.1449458599090576
1403715524172143000,-0.0026550814509391785,0.02109687775373459,0.07811986654996872,9.25,0.2647915482521057,-3.193629026412964
1403715524177143000,-0.002619277685880661,0.020465753972530365,0.07665453851222992,9.266639709472656,0.3544789254665375,-3.218310832977295
1403715524182143000,-0.0019329115748405457,0.019694458693265915,0.07807887345552444,9.282807350158691,0.29778388142585754,-3.177863121032715
1403715524187143000,-0.0026415735483169556,0.021071050316095352,0.07676699012517929,9.258113861083984,0.3299080729484558,-3.1695144176483154
1403715524192143000,0.00017878040671348572,0.021100282669067383,0.07815293967723846,9.225465774536133,0.3220127820968628,-3.2018892765045166
1403715524197143000,0.002266891300678253,0.01970856636762619,0.07668370008468628,9.283100128173828,0.3219793140888214,-3.1775014400482178
1403715524202143000,0.002256333827972412,0.020392119884490967,0.07735543698072433,9.217101097106934,0.2974693477153778,-3.1936895847320557
1403715524207143000,0.0008449181914329529,0.016923628747463226,0.08022774755954742,9.283169746398926,0.3381173312664032,-3.193920612335205
1403715524212143000,-0.0005626752972602844,0.019004065543413162,0.08234818279743195,9.225557327270508,0.3548419177532196,-3.16935658454895
1403715524217143000,-0.0005574524402618408,0.02039804309606552,0.07878179848194122,9.266622543334961,0.33015018701553345,-3.1775009632110596
1403715524222143000,-0.001963116228580475,0.022511061280965805,0.07594990730285645,9.274584770202637,0.2892059087753296,-3.1856191158294678
1403715524227143000,-0.001239921897649765,0.019020508974790573,0.0794999748468399,9.282739639282227,0.3136804401874542,-3.193812370300293
1403715524232143000,-0.005470961332321167,0.020364634692668915,0.07883987575769424,9.250070571899414,0.26503831148147583,-3.1612913608551025
1403715524237143000,-0.002622690051794052,0.016895148903131485,0.07531347870826721,9.299132347106934,0.32178017497062683,-3.1775400638580322
1403715524242143000,-0.0019321367144584656,0.023883484303951263,0.07953757792711258,9.241714477539062,0.3057634234428406,-3.1855764389038086
1403715524247143000,-0.0019091777503490448,0.01695140451192856,0.07249792665243149,9.299232482910156,0.34641554951667786,-3.193817377090454
1403715524252143000,0.0016043148934841156,0.021109800785779953,0.07734470069408417,9.282458305358887,0.3138306438922882,-3.242870807647705
1403715524257143000,-0.001231316477060318,0.01761322095990181,0.07532714307308197,9.339982986450195,0.36262327432632446,-3.234924077987671
1403715524262143000,-0.0005388781428337097,0.021762695163488388,0.07606466859579086,9.266006469726562,0.28952667117118835,-3.194091558456421
1403715524267143000,-0.001962512731552124,0.021112214773893356,0.07604506611824036,9.27460765838623,0.35438957810401917,-3.193826913833618
1403715524272143000,-0.0019369497895240784,0.022519566118717194,0.07808202505111694,9.22553825378418,0.3139626681804657,-3.2017924785614014
1403715524277143000,-0.0026455558836460114,0.01762903481721878,0.07598696649074554,9.258645057678223,0.33001601696014404,-3.1773808002471924
1403715524282143000,-0.002649247646331787,0.01895947754383087,0.07389173656702042,9.209136962890625,0.2729412615299225,-3.2181928157806396
1403715524287143000,-0.001247648149728775,0.01898524910211563,0.07180064916610718,9.226216316223145,0.32173702120780945,-3.161294460296631
1403715524292143000,-0.0005407482385635376,0.021816805005073547,0.08026844263076782,9.201239585876465,0.3140243887901306,-3.1611080169677734
1403715524297143000,-0.0019314810633659363,0.02114151045680046,0.0746401995420456,9.29946517944336,0.3463745713233948,-3.2182836532592773
1403715524302143000,-0.003346916288137436,0.018997810781002045,0.07667399942874908,9.241777420043945,0.28125545382499695,-3.1940035820007324
1403715524307143000,-0.0019203200936317444,0.016182586550712585,0.07178892940282822,9.282721519470215,0.32985013723373413,-3.234802007675171
1403715524312143000,-0.0019277967512607574,0.020368266850709915,0.07879237830638885,9.250101089477539,0.3221611976623535,-3.202253818511963
1403715524317143000,-0.0026393458247184753,0.01694224774837494,0.07671746611595154,9.225460052490234,0.33821654319763184,-3.185802459716797
1403715524322143000,-0.003338731825351715,0.017639189958572388,0.08093985915184021,9.233831405639648,0.28931719064712524,-3.2183585166931152
1403715524327143000,-0.0026284046471118927,0.01902543380856514,0.08025842159986496,9.283169746398926,0.3544752895832062,-3.1693673133850098
1403715524332143000,0.00016485899686813354,0.01968805119395256,0.07734307646751404,9.225325584411621,0.2732185125350952,-3.17746639251709
1403715524337143000,-0.0005393326282501221,0.017601899802684784,0.07520180940628052,9.299519538879395,0.36246010661125183,-3.1694388389587402
1403715524342143000,-0.0012481436133384705,0.02107876166701317,0.07672099769115448,9.241493225097656,0.2487102895975113,-3.2019879817962646
1403715524347143000,-0.0054625943303108215,0.015549153089523315,0.07819724082946777,9.29927921295166,0.30537497997283936,-3.202221632003784
1403715524352143000,-0.0047313012182712555,0.02039376273751259,0.08235971629619598,9.233414649963379,0.30575913190841675,-3.2184064388275146
1403715524357143000,-0.004023708403110504,0.021104034036397934,0.07526131719350815,9.282979011535645,0.35458722710609436,-3.2184863090515137
1403715524362143000,-0.006134828552603722,0.024613022804260254,0.07803566008806229,9.20915412902832,0.2895043194293976,-3.161294937133789
1403715524367143000,-0.0033073946833610535,0.017625842243433,0.07457534968852997,9.24209213256836,0.33794543147087097,-3.1936705112457275
1403715524372143000,-0.0012238174676895142,0.021049506962299347,0.0788271427154541,9.22591495513916,0.314027339220047,-3.1691877841949463
1403715524377143000,0.0008817091584205627,0.018292952328920364,0.0767834335565567,9.233850479125977,0.3218308687210083,-3.193728446960449
1403715524382143000,0.0001440495252609253,0.023186754435300827,0.0781470537185669,9.19316577911377,0.28110936284065247,-3.177593469619751
1403715524387143000,0.0015720538794994354,0.016937073320150375,0.07526146620512009,9.299330711364746,0.3217307925224304,-3.2346816062927246
1403715524392143000,-0.0005715824663639069,0.02110353112220764,0.07734829187393188,9.209308624267578,0.2976776361465454,-3.1369872093200684
1403715524397143000,-0.0012618601322174072,0.01899239793419838,0.07810772210359573,9.299018859863281,0.31360721588134766,-3.2101333141326904
1403715524402143000,-0.0005704015493392944,0.02175266295671463,0.08237887918949127,9.22562026977539,0.273029625415802,-3.177712917327881
1403715524407143000,-0.001948229968547821,0.01761733368039131,0.07741676270961761,9.26630687713623,0.32996582984924316,-3.2182254791259766
1403715524412143000,-0.0026580244302749634,0.019725728780031204,0.07594768702983856,9.234064102172852,0.3221755921840668,-3.1368253231048584
1403715524417143000,-0.0033537521958351135,0.020408596843481064,0.07808108627796173,9.323461532592773,0.30556660890579224,-3.19370698928833
1403715524422143000,0.00019073486328125,0.018997840583324432,0.07601399719715118,9.274394989013672,0.33000412583351135,-3.2021632194519043
1403715524427143000,-0.002640143036842346,0.01900220289826393,0.07393243163824081,9.282723426818848,0.33832690119743347,-3.177475929260254
1403715524432143000,-0.0019303373992443085,0.02110876888036728,0.07816776633262634,9.266345024108887,0.3057190477848053,-3.1694116592407227
1403715524437143000,-0.0019414424896240234,0.021109100431203842,0.07181278616189957,9.315315246582031,0.30538663268089294,-3.2018330097198486
1403715524442143000,-0.0026317648589611053,0.019692007452249527,0.08087965846061707,9.24185848236084,0.338334858417511,-3.1530041694641113
1403715524447143000,-0.004756864160299301,0.021780584007501602,0.07110801339149475,9.290892601013184,0.27311235666275024,-3.2017903327941895
1403715524452143000,-0.0033404603600502014,0.020412858575582504,0.07813457399606705,9.258415222167969,0.29725250601768494,-3.1530978679656982
1403715524457143000,-0.004022881388664246,0.022482655942440033,0.07817500829696655,9.298949241638184,0.30563288927078247,-3.2099204063415527
1403715524462143000,-0.0005108639597892761,0.020391590893268585,0.07949122786521912,9.258331298828125,0.31392940878868103,-3.193925142288208
1403715524467143000,-0.0005451813340187073,0.022496767342090607,0.07388009130954742,9.274526596069336,0.3055596351623535,-3.2020211219787598
1403715524472143000,0.0015751197934150696,0.022499941289424896,0.08022183924913406,9.250313758850098,0.338216632604599,-3.1611862182617188
1403715524477143000,-0.0012524500489234924,0.018988851457834244,0.08233106881380081,9.291007041931152,0.3384718596935272,-3.1854684352874756
1403715524482143000,-0.0012466609477996826,0.020386721938848495,0.08159398287534714,9.21734619140625,0.3301016688346863,-3.201963186264038
1403715524487143000,-0.0012404508888721466,0.022501245141029358,0.08227914571762085,9.291254043579102,0.3218904435634613,-3.22646427154541
1403715524492143000,-0.0005300343036651611,0.019017040729522705,0.08370554447174072,9.258247375488281,0.3056431710720062,-3.2103474140167236
1403715524497143000,-0.0040571317076683044,0.019687004387378693,0.07733550667762756,9.27458381652832,0.3056061267852783,-3.2103259563446045
1403715524502143000,-0.0033500753343105316,0.017598729580640793,0.07592348009347916,9.274662971496582,0.2892480194568634,-3.185880422592163
1403715524507143000,-0.004742097109556198,0.022500280290842056,0.07465596497058868,9.258101463317871,0.3300468921661377,-3.210068464279175
1403715524512143000,-0.0004970058798789978,0.016227468848228455,0.07679012417793274,9.258404731750488,0.3546827733516693,-3.2102043628692627
1403715524517143000,-0.0005196742713451385,0.019704747945070267,0.07530586421489716,9.241897583007812,0.3383113443851471,-3.218371629714966
1403715524522143000,-0.0033304989337921143,0.01903744414448738,0.07457582652568817,9.266660690307617,0.3463669717311859,-3.1940062046051025
1403715524527143000,-0.004740700125694275,0.021097995340824127,0.07601142674684525,9.233560562133789,0.29750552773475647,-3.226513385772705
1403715524532143000,-0.0019243918359279633,0.018305949866771698,0.07319848239421844,9.307646751403809,0.3381938338279724,-3.2022316455841064
1403715524537143000,-0.003328658640384674,0.021800488233566284,0.07600551843643188,9.282408714294434,0.29754534363746643,-3.2102103233337402
1403715524542143000,-0.004031471908092499,0.019028685986995697,0.07819022238254547,9.241909980773926,0.3218644857406616,-3.1858556270599365
1403715524547143000,-0.004732854664325714,0.02107960358262062,0.08025645464658737,9.250113487243652,0.32199087738990784,-3.210134983062744
1403715524552143000,-0.0026075467467308044,0.02109985426068306,0.07946823537349701,9.266526222229004,0.3464564383029938,-3.2265114784240723
1403715524557143000,-0.0012287311255931854,0.024609800428152084,0.08155500143766403,9.250086784362793,0.3057563006877899,-3.1939823627471924
1403715524562143000,-0.0005314797163009644,0.019712213426828384,0.07877051085233688,9.233797073364258,0.31364795565605164,-3.193957567214966
1403715524567143000,-0.0019255951046943665,0.019668269902467728,0.07525677233934402,9.192913055419922,0.330136239528656,-3.242772340774536
1403715524572143000,-0.0054373908787965775,0.016202807426452637,0.07810917496681213,9.299615859985352,0.3465214967727661,-3.2348930835723877
1403715524577143000,-0.0005301013588905334,0.021093226969242096,0.07745769619941711,9.24986743927002,0.29751309752464294,-3.194066047668457
1403715524582143000,0.00016136467456817627,0.02042470872402191,0.07319784164428711,9.299121856689453,0.31355008482933044,-3.210339307785034
1403715524587143000,-0.0005248077213764191,0.022514615207910538,0.07949881255626678,9.315296173095703,0.2812768518924713,-3.218550443649292
1403715524592143000,-0.0026509687304496765,0.014129295945167542,0.07601553201675415,9.33141040802002,0.3463326692581177,-3.2267205715179443
1403715524597143000,0.0015699304640293121,0.021738827228546143,0.07949525117874146,9.298663139343262,0.30577534437179565,-3.218569040298462
1403715524602143000,-0.001251567155122757,0.020395848900079727,0.0809217169880867,9.323317527770996,0.28921690583229065,-3.2349326610565186
1403715524607143000,-0.0026488453149795532,0.021840035915374756,0.07741360366344452,9.241647720336914,0.32190775871276855,-3.1858434677124023
1403715524612143000,-0.004034459590911865,0.02114037424325943,0.07458050549030304,9.331733703613281,0.3383566737174988,-3.2426650524139404
1403715524617143000,-0.001909211277961731,0.023193955421447754,0.08089812844991684,9.249889373779297,0.3138867914676666,-3.218475103378296
1403715524622143000,-0.001924172043800354,0.02526736631989479,0.07743716239929199,9.282734870910645,0.34624946117401123,-3.2428529262542725
1403715524627143000,-0.0012353211641311646,0.018971402198076248,0.0802207738161087,9.258468627929688,0.29764822125434875,-3.2021982669830322
1403715524632143000,0.00019110366702079773,0.01900206133723259,0.07527858018875122,9.331732749938965,0.3299541473388672,-3.226525068283081
1403715524637143000,-0.0019509680569171906,0.021804671734571457,0.07877089828252792,9.217257499694824,0.28117966651916504,-3.1776413917541504
1403715524642143000,-0.003350459039211273,0.017607182264328003,0.07739999145269394,9.29120922088623,0.32999712228775024,-3.193772554397583
1403715524647143000,-0.0005408413708209991,0.021063953638076782,0.0816182941198349,9.233752250671387,0.25685685873031616,-3.177543878555298
1403715524652143000,0.00018685311079025269,0.0183291994035244,0.07886002957820892,9.299174308776855,0.3379974365234375,-3.218243360519409
1403715524657143000,-0.0005407035350799561,0.019713018089532852,0.0816100686788559,9.23387622833252,0.33851194381713867,-3.161329507827759
1403715524662143000,-0.002668529748916626,0.018974196165800095,0.07662453502416611,9.258150100708008,0.30563411116600037,-3.2183010578155518
1403715524667143000,-0.0019406825304031372,0.02110762894153595,0.08017508685588837,9.258617401123047,0.34634697437286377,-3.1695351600646973
1403715524672143000,-0.0019362270832061768,0.020450185984373093,0.08095534890890121,9.249977111816406,0.3302091658115387,-3.185405969619751
1403715524677143000,0.00016872212290763855,0.019708603620529175,0.07743646204471588,9.291298866271973,0.3220578730106354,-3.153073787689209
1403715524682143000,-0.0012413375079631805,0.023164328187704086,0.07738424837589264,9.282383918762207,0.2809804379940033,-3.2099735736846924
1403715524687143000,-0.0019509568810462952,0.01970602571964264,0.07739190012216568,9.225730895996094,0.29740169644355774,-3.1612839698791504
1403715524692143000,-0.0026470981538295746,0.02109002321958542,0.0773947685956955,9.299079895019531,0.32200512290000916,-3.2181735038757324
1403715524697143000,-0.004048742353916168,0.01760489121079445,0.07672029733657837,9.258321762084961,0.330178439617157,-3.169527053833008
1403715524702143000,-0.0040269456803798676,0.01829715073108673,0.07391735911369324,9.24159049987793,0.2973919212818146,-3.2182769775390625
1403715524707143000,0.00019101053476333618,0.012718457728624344,0.07602672278881073,9.291511535644531,0.33817264437675476,-3.161404848098755
1403715524712143000,-0.003352571278810501,0.018982499837875366,0.07249455153942108,9.26600456237793,0.2731271982192993,-3.1936347484588623
1403715524717143000,-0.00263359397649765,0.016253456473350525,0.0767042487859726,9.274740219116211,0.3217393755912781,-3.202151298522949
1403715524722143000,-0.003354545682668686,0.02041693776845932,0.08028450608253479,9.217350006103516,0.3057127296924591,-3.193808078765869
1403715524727143000,-0.004722535610198975,0.018317755311727524,0.07671026885509491,9.225822448730469,0.33824974298477173,-3.210218906402588
1403715524732143000,-0.0012147203087806702,0.022494513541460037,0.07594085484743118,9.250349044799805,0.29750534892082214,-3.193869113922119
1403715524737143000,0.0008849352598190308,0.015536371618509293,0.07879094779491425,9.307513236999512,0.3788730800151825,-3.1775882244110107
1403715524742143000,-0.004042815417051315,0.023869507014751434,0.0795295462012291,9.266077041625977,0.29777291417121887,-3.2264840602874756
1403715524747143000,-0.0012406185269355774,0.01974545791745186,0.07672107964754105,9.282952308654785,0.33805516362190247,-3.1941184997558594
1403715524752143000,-0.0005605295300483704,0.021104596555233,0.07951527833938599,9.217204093933105,0.28938743472099304,-3.1774742603302
1403715524757143000,-0.0033408962190151215,0.01828102394938469,0.07531194388866425,9.30765151977539,0.32189878821372986,-3.1610870361328125
1403715524762143000,-0.0019500479102134705,0.01827084645628929,0.07665416598320007,9.249856948852539,0.2894202768802643,-3.1447372436523438
1403715524767143000,-0.006860284134745598,0.02389097586274147,0.07599702477455139,9.241829872131348,0.32993578910827637,-3.226257562637329
1403715524772143000,-0.006830034777522087,0.025311704725027084,0.07748454809188843,9.226165771484375,0.34669774770736694,-3.1285712718963623
1403715524777143000,-0.002612285315990448,0.019723467528820038,0.06901378929615021,9.355886459350586,0.27294251322746277,-3.2752811908721924
1403715524782143000,-0.009618747979402542,0.013460487127304077,0.08016710728406906,9.029723167419434,0.6237598061561584,-3.120473623275757
1403715524787143000,-0.021459504961967468,0.016895540058612823,0.08377371728420258,9.45541763305664,0.5679544806480408,-3.307769775390625
1403715524792143000,-0.027832690626382828,0.02458919584751129,0.08653423935174942,9.225239753723145,0.22439280152320862,-3.1619181632995605
1403715524797143000,-0.013755526393651962,0.01061161607503891,0.08786187320947647,9.282438278198242,-0.09546630829572678,-3.1291065216064453
1403715524802143000,0.01914672926068306,0.03629600256681442,0.06886576116085052,9.389439582824707,-0.6172305345535278,-3.0882246494293213
1403715524807143000,0.05626552551984787,0.011969268321990967,0.07166996598243713,9.003693580627441,-0.07988786697387695,-3.0628504753112793
1403715524812143000,0.061657875776290894,0.023752979934215546,0.04378645122051239,9.60232162475586,0.1919289380311966,-3.324190855026245
1403715524817143000,0.03767681121826172,0.029722876846790314,0.05218274146318436,8.767054557800293,1.3996050357818604,-3.0543997287750244
1403715524822143000,-0.01979687809944153,0.001993320882320404,0.08174309879541397,9.391880989074707,1.7939594984054565,-3.504307985305786
1403715524827143000,-0.08769913017749786,0.028270266950130463,0.0957903265953064,9.047118186950684,1.1244328022003174,-3.195223331451416
1403715524832143000,-0.10979949682950974,0.01198934018611908,0.11090584099292755,9.225683212280273,0.0925888791680336,-3.2186849117279053
1403715524837143000,-0.07091045379638672,0.018091093748807907,0.10576054453849792,9.391378402709961,-1.1977444887161255,-2.982485055923462
1403715524842143000,0.0029280483722686768,0.027813326567411423,0.08604317903518677,9.297788619995117,-1.1416364908218384,-3.0794565677642822
1403715524847143000,0.0650148093700409,0.00975596159696579,0.08137470483779907,9.234203338623047,-0.5689141154289246,-2.9662890434265137
1403715524852143000,0.08358399569988251,0.01684008538722992,0.05720555782318115,9.534414291381836,0.1261305958032608,-3.3001315593719482
1403715524857143000,0.077064149081707,0.04354961961507797,0.07428696751594543,9.093338966369629,0.934116780757904,-3.219835042953491
1403715524862143000,0.037573717534542084,0.01652521640062332,0.07553581148386002,9.111546516418457,1.0498040914535522,-3.259469509124756
1403715524867143000,0.004152253270149231,0.036676712334156036,0.08699605613946915,9.619364738464355,1.13151216506958,-3.447650909423828
1403715524872143000,-0.033189646899700165,0.03095698356628418,0.09182840585708618,8.627647399902344,0.8214174509048462,-3.0544307231903076
1403715524877143000,-0.04687327891588211,0.010659448802471161,0.0940522700548172,9.981104850769043,0.5511983633041382,-3.470346450805664
1403715524882143000,-0.06036177650094032,0.05520258843898773,0.08713500201702118,8.545832633972168,0.23181478679180145,-2.8334221839904785
1403715524887143000,-0.04454999789595604,-0.006120231002569199,0.08445265144109726,9.570261001586914,-0.08801952749490738,-3.4130046367645264
1403715524892143000,-0.016391288489103317,0.05585452914237976,0.06982231140136719,9.431549072265625,-0.5123276114463806,-2.990849733352661
1403715524897143000,0.020986218005418777,0.004163537174463272,0.07471238076686859,8.748040199279785,-0.37470200657844543,-3.0550050735473633
1403715524902143000,0.050275057554244995,0.026410508900880814,0.059899669140577316,9.727465629577637,-0.20811107754707336,-3.2610039710998535
1403715524907143000,0.05839116871356964,0.025312751531600952,0.06681220233440399,8.928210258483887,0.428576797246933,-3.0711841583251953
1403715524912143000,0.044161319732666016,0.012196455150842667,0.06337817013263702,9.32416820526123,0.8947020769119263,-3.406886339187622
1403715524917143000,0.010959703475236893,0.03594496101140976,0.06974399089813232,9.32495403289795,0.8544710874557495,-3.1613619327545166
1403715524922143000,-0.0162992961704731,0.030383698642253876,0.07882747054100037,9.175198554992676,1.0649091005325317,-3.3322489261627197
1403715524927143000,-0.04429960623383522,0.026068348437547684,0.08733704686164856,9.16220760345459,0.49446192383766174,-3.11185359954834
1403715524932143000,-0.051022592931985855,0.0322028212249279,0.0949520468711853,9.217677116394043,0.288512647151947,-3.184338331222534
1403715524937143000,-0.04179438576102257,0.016055233776569366,0.09694954752922058,8.957225799560547,-0.11182460188865662,-3.0220491886138916
1403715524942143000,-0.01284019835293293,0.01116270199418068,0.09611780941486359,9.390259742736816,-0.36466431617736816,-3.1689260005950928
1403715524947143000,0.014481369405984879,0.021655060350894928,0.07300461828708649,9.241567611694336,-0.23452626168727875,-3.1297340393066406
1403715524952143000,0.036825090646743774,0.0022164322435855865,0.07165422290563583,9.208257675170898,-0.07045307010412216,-3.1459832191467285
1403715524957143000,0.04510524868965149,0.02530660107731819,0.0642060935497284,9.601508140563965,0.3305438160896301,-3.244380474090576
1403715524962143000,0.037191666662693024,0.023968063294887543,0.0712270438671112,9.075966835021973,0.649133563041687,-3.202223777770996
1403715524967143000,0.019577696919441223,0.02335718274116516,0.07683196663856506,9.438973426818848,0.870028018951416,-3.3246114253997803
1403715524972143000,-0.00856955349445343,0.0302962064743042,0.0886525958776474,9.168511390686035,0.8291901350021362,-3.1442975997924805
1403715524977143000,-0.03232773393392563,0.015586510300636292,0.08636496216058731,9.127680778503418,0.689518928527832,-3.2335433959960938
1403715524982143000,-0.04270588234066963,0.018321026116609573,0.08210505545139313,9.349994659423828,0.28118568658828735,-3.185154438018799
1403715524987143000,-0.03833085298538208,0.01820187270641327,0.07310227304697037,9.314652442932129,-0.19341908395290375,-3.2424893379211426
1403715524992143000,-0.007300753146409988,0.0210120789706707,0.06700349599123001,9.323432922363281,-0.3409194350242615,-3.235588312149048
1403715524997143000,0.03480633348226547,0.02944440022110939,0.07338941097259521,9.372352600097656,-0.09527868032455444,-3.178273916244507
1403715525002143000,0.042411357164382935,0.035778917372226715,0.08389343321323395,9.142816543579102,0.5425231456756592,-3.19419002532959
1403715525007143000,0.014916859567165375,0.026863977313041687,0.08788686990737915,9.186036109924316,1.2213094234466553,-3.185478448867798
1403715525012143000,-0.030820123851299286,0.017026372253894806,0.10522861778736115,9.039006233215332,1.1979535818099976,-3.136451244354248
1403715525017143000,-0.07699023187160492,0.014841608703136444,0.07985272258520126,9.16131591796875,0.788241982460022,-3.348510503768921
1403715525022143000,-0.06976301968097687,0.009182468056678772,0.08764635026454926,9.464259147644043,-0.192044198513031,-3.17830753326416
1403715525027143000,-0.03672383353114128,0.03074786812067032,0.07533959299325943,9.240859985351562,-0.8143571615219116,-3.080383539199829
1403715525032143000,0.03698909282684326,0.017445765435695648,0.056472621858119965,9.364429473876953,-1.2141491174697876,-3.1866612434387207
1403715525037143000,0.1018247902393341,0.0391414612531662,0.0713232085108757,9.380764961242676,-0.13735955953598022,-2.941415309906006
1403715525042143000,0.10645882785320282,0.02679857239127159,0.06351393461227417,8.937691688537598,1.0659807920455933,-3.134589910507202
1403715525047143000,0.06278236210346222,0.0004133172333240509,0.062363117933273315,9.081354141235352,1.7442622184753418,-3.2513413429260254
1403715525052143000,-0.020722076296806335,0.008742738515138626,0.07083571702241898,9.300456047058105,1.5887318849563599,-3.382403612136841
1403715525057143000,-0.06738191843032837,0.008778765797615051,0.07949580997228622,9.34022331237793,0.8208609223365784,-3.349715232849121
1403715525062143000,-0.07479719817638397,0.01574738696217537,0.09363672137260437,9.258130073547363,0.4365532100200653,-3.3248941898345947
1403715525067143000,-0.06341194361448288,0.027370870113372803,0.0921434834599495,9.365606307983398,-0.1349232792854309,-3.128925085067749
1403715525072143000,-0.033897288143634796,0.017478972673416138,0.0976143330335617,9.053478240966797,-0.44691571593284607,-3.0055794715881348
1403715525077143000,-0.005159437656402588,0.013176441192626953,0.07796936482191086,9.16102409362793,-0.30881157517433167,-3.1927945613861084
1403715525082143000,0.03269101679325104,0.008909903466701508,0.08697155863046646,9.366011619567871,-0.2825475037097931,-2.9904866218566895
1403715525087143000,0.04872877895832062,0.0140518918633461,0.07388398051261902,9.378287315368652,-0.20919445157051086,-3.2443816661834717
1403715525092143000,0.062057554721832275,0.014388415962457657,0.06556697189807892,9.51909065246582,0.4603126347064972,-3.3511619567871094
1403715525097143000,0.055438026785850525,0.034563951194286346,0.09295913577079773,9.215930938720703,0.8067327737808228,-3.1378841400146484
1403715525102143000,0.008887577801942825,0.019986629486083984,0.08923904597759247,9.200922012329102,1.3524874448776245,-3.349106550216675
1403715525107143000,-0.03259924799203873,0.0246354378759861,0.0891251489520073,9.448071479797363,1.0015314817428589,-3.1525018215179443
1403715525112143000,-0.06197478622198105,0.03433610126376152,0.09690988808870316,8.758894920349121,0.7055289149284363,-2.979300022125244
1403715525117143000,-0.06848908960819244,0.0015706345438957214,0.08292900025844574,9.286109924316406,0.13355855643749237,-3.224616289138794
1403715525122143000,-0.04225633293390274,0.018158502876758575,0.08151458948850632,9.488046646118164,-0.3651650846004486,-3.185290813446045
1403715525127143000,-0.008508913218975067,0.026595696806907654,0.06971986591815948,9.264557838439941,-0.31667372584342957,-3.227055311203003
1403715525132143000,0.027181699872016907,0.025261525064706802,0.06351659446954727,9.25859546661377,-0.3560320734977722,-3.1546361446380615
1403715525137143000,0.045177578926086426,0.03843587636947632,0.0719858780503273,9.339290618896484,0.09310151636600494,-3.1299116611480713
1403715525142143000,0.04639282822608948,0.025277361273765564,0.06191062182188034,9.019807815551758,0.5345262289047241,-3.1853456497192383
1403715525147143000,0.03576130419969559,0.004383239895105362,0.06684303283691406,9.374303817749023,0.6989152431488037,-3.177320957183838
1403715525152143000,0.010384656488895416,0.018935300409793854,0.07047077268362045,9.02886962890625,0.8288159966468811,-3.201594114303589
1403715525157143000,-0.02258909121155739,0.005226487293839455,0.07387294620275497,9.333700180053711,0.8369791507720947,-3.2914466857910156
1403715525162143000,-0.04140010476112366,0.022769279778003693,0.08447068184614182,9.470932006835938,0.5025665760040283,-3.3326566219329834
1403715525167143000,-0.053912676870822906,0.02677377685904503,0.08660691976547241,9.175666809082031,0.29657045006752014,-3.186056137084961
1403715525172143000,-0.03683217614889145,0.027976181358098984,0.09491898864507675,9.136487007141113,-0.046108413487672806,-3.079674243927002
1403715525177143000,-0.013595161959528923,0.018760502338409424,0.08988459408283234,9.250990867614746,-0.43001583218574524,-3.055161476135254
1403715525182143000,0.015238761901855469,0.015938594937324524,0.08276814967393875,9.077812194824219,-0.2594776451587677,-3.112044095993042
1403715525187143000,0.03336750715970993,0.011335611343383789,0.08855142444372177,9.397979736328125,0.15860526263713837,-3.2513246536254883
1403715525192143000,0.033867962658405304,0.01425776258111,0.08303816616535187,9.33120346069336,0.4537232220172882,-3.219670057296753
1403715525197143000,0.014797937124967575,0.022664926946163177,0.07945135980844498,9.347528457641602,0.8284522294998169,-3.2440409660339355
1403715525202143000,-0.010544855147600174,0.017738260328769684,0.09075229614973068,9.454524993896484,0.6499118208885193,-3.1942715644836426
1403715525207143000,-0.023926829919219017,0.018892448395490646,0.08860606700181961,9.109902381896973,0.10189169645309448,-3.0956897735595703
1403715525212143000,-0.002069048583507538,0.013175338506698608,0.08777499198913574,9.210226058959961,-0.275461882352829,-3.0790107250213623
1403715525217143000,0.03375639021396637,0.011165224015712738,0.0716385543346405,9.405509948730469,-0.3894798755645752,-3.2741708755493164
1403715525222143000,0.04768320918083191,0.024641044437885284,0.06336995959281921,9.307188987731934,0.24754410982131958,-3.104024887084961
1403715525227143000,0.03648664057254791,0.01858433336019516,0.05711047723889351,9.34726333618164,0.9423073530197144,-3.438561201095581
1403715525232143000,-0.002767130732536316,0.031238939613103867,0.06341394037008286,9.316515922546387,1.4986095428466797,-3.3505828380584717
1403715525237143000,-0.062306053936481476,0.0325041264295578,0.08388564735651016,9.078124046325684,1.3849518299102783,-3.267789125442505
1403715525242143000,-0.1020529717206955,0.01764313504099846,0.08667289465665817,9.064115524291992,0.7558093070983887,-3.103742837905884
1403715525247143000,-0.09195934236049652,0.020169980823993683,0.11087128520011902,9.063995361328125,-0.323076993227005,-2.9725823402404785
1403715525252143000,-0.04965834319591522,0.004784155637025833,0.08966714143753052,9.300355911254883,-1.0838453769683838,-3.2501943111419678
1403715525257143000,0.02308148890733719,0.017420172691345215,0.08966539800167084,9.480631828308105,-0.8797433376312256,-2.885038137435913
1403715525262143000,0.06348861753940582,0.02035200595855713,0.06614204496145248,9.36097526550293,-0.08669476956129074,-3.3165268898010254
1403715525267143000,0.07789164781570435,0.018388155847787857,0.04874517396092415,9.119596481323242,0.48591098189353943,-3.0979208946228027
1403715525272143000,0.062296852469444275,0.031033694744110107,0.07488153129816055,9.339505195617676,1.0812034606933594,-3.218324661254883
1403715525277143000,0.017250481992959976,0.02192392200231552,0.07064586132764816,9.250154495239258,0.9688625335693359,-3.201749801635742
1403715525282143000,-0.01628924161195755,0.02825476974248886,0.09412604570388794,9.02958869934082,1.1966776847839355,-3.1927402019500732
1403715525287143000,-0.05349342152476311,0.0058486126363277435,0.09056306630373001,9.081067085266113,0.6669586300849915,-3.078937530517578
1403715525292143000,-0.05669597163796425,0.012053016573190689,0.10654906928539276,9.202418327331543,0.4685116410255432,-3.1023595333099365
1403715525297143000,-0.06155075877904892,-0.004790190607309341,0.07156944274902344,9.512106895446777,-0.20104892551898956,-3.234079360961914
1403715525302143000,-0.0289634857326746,0.009109362959861755,0.0801529586315155,9.192418098449707,-0.0644485130906105,-3.0797693729400635
1403715525307143000,0.0004879310727119446,0.008394327014684677,0.06577277183532715,9.364645957946777,-0.6335018873214722,-3.0891940593719482
1403715525312143000,0.03567981719970703,0.008502446115016937,0.06427599489688873,9.501913070678711,-0.15391568839550018,-3.292785167694092
1403715525317143000,0.06273353099822998,0.021739553660154343,0.06971650570631027,9.248550415039062,0.10274163633584976,-3.0886452198028564
1403715525322143000,0.05545424669981003,0.012123670428991318,0.0738927572965622,9.192218780517578,0.706536054611206,-3.1856045722961426
1403715525327143000,0.02859148383140564,0.0031604915857315063,0.0758114606142044,8.956923484802246,1.074641227722168,-3.218341588973999
1403715525332143000,-0.018515508621931076,0.0003136303275823593,0.07441842555999756,9.538301467895508,0.9761412739753723,-3.3158388137817383
1403715525337143000,-0.042832307517528534,0.02131594717502594,0.08083882927894592,9.306173324584961,0.7960922718048096,-3.4060416221618652
1403715525342143000,-0.05605640634894371,0.006613831967115402,0.08177846670150757,9.08743953704834,0.3950803875923157,-3.194369316101074
1403715525347143000,-0.043784067034721375,0.025231774896383286,0.09219377487897873,9.545171737670898,0.03571726009249687,-3.373595952987671
1403715525352143000,-0.02271626889705658,0.029395781457424164,0.08647729456424713,9.036896705627441,-0.2345258891582489,-3.120478391647339
1403715525357143000,0.003987353295087814,0.019574027508497238,0.08358117192983627,9.185043334960938,-0.2098855823278427,-3.1694207191467285
1403715525362143000,0.024222295731306076,0.029258407652378082,0.0709039568901062,9.087776184082031,-0.004962794482707977,-3.0879666805267334
1403715525367143000,0.04025638848543167,0.004314670339226723,0.07869604229927063,9.151944160461426,0.20773230493068695,-3.169771909713745
1403715525372143000,0.02960345149040222,0.017688680440187454,0.06278523802757263,9.528409957885742,0.4285217523574829,-3.301029682159424
1403715525377143000,0.023160289973020554,0.023966457694768906,0.07329624146223068,9.126142501831055,0.6900798678398132,-3.202484607696533
1403715525382143000,0.004113383591175079,0.019836917519569397,0.07402483373880386,9.446882247924805,0.7802742123603821,-3.31693172454834
1403715525387143000,-0.018307514488697052,0.03030771017074585,0.07175444811582565,9.331268310546875,0.7226143479347229,-3.2833926677703857
1403715525392143000,-0.02950279414653778,0.029456086456775665,0.08366097509860992,9.1351318359375,0.4199792444705963,-3.1525354385375977
1403715525397143000,-0.01883581094443798,0.017471231520175934,0.09078299254179001,9.12059211730957,-0.013417043723165989,-3.005547046661377
1403715525402143000,-0.007459226995706558,0.009773246943950653,0.08230239897966385,9.01410961151123,0.06739111989736557,-2.9883406162261963
1403715525407143000,-0.01084357313811779,-0.007495112717151642,0.07514866441488266,9.259292602539062,0.4847986400127411,-3.306992292404175
1403715525412143000,-0.021296288818120956,0.011488575488328934,0.07518380880355835,9.414003372192383,0.6576361656188965,-3.4477875232696533
1403715525417143000,-0.036115579307079315,0.012122895568609238,0.07113312184810638,9.232732772827148,0.24888139963150024,-3.270099401473999
1403715525422143000,-0.026236247271299362,0.03225976601243019,0.08870218694210052,9.355682373046875,-0.1686544120311737,-3.285691261291504
1403715525427143000,0.01151156798005104,0.022393763065338135,0.07747171819210052,9.201410293579102,-0.6579680442810059,-2.9013755321502686
1403715525432143000,0.061225324869155884,0.02150656282901764,0.08082793653011322,9.118597984313965,-0.585519015789032,-2.932006597518921
1403715525437143000,0.09738996624946594,0.011795692145824432,0.06739961355924606,9.210206031799316,-0.05420767888426781,-3.0618348121643066
1403715525442143000,0.08450180292129517,-0.005927784368395805,0.059572428464889526,9.079132080078125,1.1789478063583374,-3.2331414222717285
1403715525447143000,0.02341417968273163,0.009029928594827652,0.06395736336708069,9.382824897766113,1.891831874847412,-3.448160171508789
1403715525452143000,-0.04802265018224716,0.011100351810455322,0.07193142175674438,9.290987014770508,1.4991743564605713,-3.408331871032715
1403715525457143000,-0.08617937564849854,0.01989840343594551,0.08179415762424469,9.437936782836914,0.7460241913795471,-3.3097963333129883
1403715525462143000,-0.08442571014165878,0.020998969674110413,0.09561007469892502,9.004467010498047,0.0030734038446098566,-3.111647605895996
1403715525467143000,-0.06529932469129562,0.02018042653799057,0.07854080200195312,9.32547378540039,-0.5029457211494446,-3.04594349861145
1403715525472143000,-0.012614138424396515,0.011826351284980774,0.09046013653278351,9.30748176574707,-0.45525088906288147,-2.9808108806610107
1403715525477143000,0.021546829491853714,0.014625772833824158,0.05982071906328201,9.396074295043945,-0.46256023645401,-3.226212978363037
1403715525482143000,0.052284643054008484,0.016278810799121857,0.05570690706372261,9.102705001831055,0.18195417523384094,-3.0810177326202393
1403715525487143000,0.05840025842189789,0.017012208700180054,0.06508933752775192,9.429006576538086,0.2819175124168396,-3.3827826976776123
1403715525492143000,0.042100682854652405,0.029519613832235336,0.055201455950737,9.306629180908203,0.5592069029808044,-3.203721523284912
1403715525497143000,0.020239561796188354,0.02054450660943985,0.06821492314338684,9.036720275878906,1.1069598197937012,-3.242234945297241
1403715525502143000,-0.012820176780223846,0.018478211015462875,0.07800867408514023,9.24449348449707,1.2719076871871948,-3.3321640491485596
1403715525507143000,-0.04998825490474701,0.032328732311725616,0.09206637740135193,9.209925651550293,0.7971440553665161,-3.193220615386963
1403715525512143000,-0.06799686700105667,0.019127648323774338,0.09207776933908463,9.283401489257812,0.45097988843917847,-3.185023546218872
1403715525517143000,-0.060713402926921844,0.018248435109853745,0.08639858663082123,9.120250701904297,-0.13594166934490204,-3.078808069229126
1403715525522143000,-0.028862249106168747,0.01181149110198021,0.08930601179599762,9.079241752624512,-0.5042410492897034,-3.1126115322113037
1403715525527143000,0.013971641659736633,0.005549617111682892,0.08438657224178314,9.414569854736328,-0.4390011429786682,-3.137575387954712
1403715525532143000,0.04467782378196716,0.013977259397506714,0.056891169399023056,9.321859359741211,-0.045786287635564804,-3.2432360649108887
1403715525537143000,0.05707849562168121,0.017665091902017593,0.07041831314563751,9.306509971618652,0.46974626183509827,-3.301625967025757
1403715525542143000,0.04066762328147888,0.025543920695781708,0.0670783668756485,9.470352172851562,0.7799927592277527,-3.309572219848633
1403715525547143000,0.01670265942811966,0.0304061621427536,0.07875101268291473,9.150643348693848,1.025041103363037,-3.2596070766448975
1403715525552143000,-0.020550422370433807,0.016986586153507233,0.08158151060342789,9.014105796813965,0.9114031195640564,-3.135904550552368
1403715525557143000,-0.03857763856649399,0.015520364046096802,0.09143514186143875,9.235621452331543,0.6573784947395325,-3.2006137371063232
1403715525562143000,-0.044105470180511475,0.011988494545221329,0.09625519812107086,9.177343368530273,0.16658949851989746,-3.1846728324890137
1403715525567143000,-0.034788183867931366,0.00782783329486847,0.0757594108581543,9.389625549316406,-0.03851364925503731,-3.259023427963257
1403715525572143000,-0.021378956735134125,0.011999696493148804,0.06466329097747803,9.290750503540039,-0.10343310981988907,-3.178434133529663
1403715525577143000,0.0011151321232318878,0.01684679090976715,0.0516682043671608,9.265478134155273,-0.11966536939144135,-3.1542584896087646
1403715525582143000,0.020787227898836136,0.01757942885160446,0.06426908075809479,9.388335227966309,0.17441709339618683,-3.2111544609069824
1403715525587143000,0.02557823434472084,0.0245593823492527,0.0748286321759224,9.257166862487793,0.4369160532951355,-3.1940252780914307
1403715525592143000,0.021152257919311523,0.015557151287794113,0.09017439931631088,8.939765930175781,0.543646514415741,-3.022528886795044
1403715525597143000,0.0035440251231193542,0.00795874372124672,0.08426477015018463,9.227368354797363,0.7631677985191345,-3.2173476219177246
1403715525602143000,-0.018143638968467712,0.008645206689834595,0.08751325309276581,9.528804779052734,0.7964560985565186,-3.4138269424438477
1403715525607143000,-0.04768192023038864,0.019131898880004883,0.07012872397899628,9.232802391052246,0.6411720514297485,-3.2433769702911377
1403715525612143000,-0.051745131611824036,0.020462725311517715,0.05925543233752251,9.397258758544922,-0.029339192435145378,-3.2356133460998535
1403715525617143000,-0.020710350945591927,0.022349443286657333,0.06442038714885712,9.118719100952148,-0.6596720814704895,-3.1699914932250977
1403715525622143000,0.02982226014137268,0.026466935873031616,0.06932058930397034,9.14455795288086,-0.5455127954483032,-3.022402763366699
1403715525627143000,0.07460279017686844,0.01533738523721695,0.08094102889299393,9.225720405578613,-0.14360614120960236,-3.1359610557556152
1403715525632143000,0.07580757141113281,0.020434968173503876,0.08069754391908646,9.070324897766113,0.8361344337463379,-3.3081629276275635
1403715525637143000,0.03776124119758606,0.014487415552139282,0.07769091427326202,9.154134750366211,1.515427827835083,-3.3257620334625244
1403715525642143000,-0.03941035270690918,0.00830911099910736,0.09032726287841797,9.5130033493042,1.7937871217727661,-3.5305609703063965
1403715525647143000,-0.10518653690814972,0.019182246178388596,0.08926700055599213,9.143133163452148,1.075158953666687,-3.3346357345581055
1403715525652143000,-0.1223490983247757,0.021765459328889847,0.08944348990917206,9.332548141479492,0.08478320389986038,-3.2026519775390625
1403715525657143000,-0.07497230917215347,0.015331674367189407,0.1019890084862709,9.24256420135498,-0.9527609348297119,-3.1038906574249268
1403715525662143000,-0.007656056433916092,0.03195306286215782,0.0849771499633789,9.12002182006836,-1.2805808782577515,-2.8430593013763428
1403715525667143000,0.0623030811548233,0.009068239480257034,0.0798337385058403,9.396925926208496,-0.6186736226081848,-3.1445164680480957
1403715525672143000,0.08575277030467987,0.018913961946964264,0.054803479462862015,9.314257621765137,0.14233332872390747,-3.268202781677246
1403715525677143000,0.0743170753121376,0.03655038774013519,0.0501381978392601,9.39582347869873,0.7879176735877991,-3.326627016067505
1403715525682143000,0.04469440132379532,0.024989992380142212,0.05447676032781601,9.061562538146973,1.294288992881775,-3.203402042388916
1403715525687143000,-0.005841478705406189,0.02830357477068901,0.05795833468437195,9.152567863464355,1.1978740692138672,-3.29958176612854
1403715525692143000,-0.03868076205253601,0.02462751418352127,0.08250080049037933,9.226847648620605,0.9275639653205872,-3.2503609657287598
1403715525697143000,-0.061827290803194046,0.01199556514620781,0.08094801753759384,9.348515510559082,0.36301302909851074,-3.2984392642974854
1403715525702143000,-0.05880548804998398,0.025894898921251297,0.07851952314376831,9.136391639709473,0.21465711295604706,-3.144170045852661
1403715525707143000,-0.04665638133883476,0.014088407158851624,0.07231150567531586,9.471192359924316,-0.16064974665641785,-3.3158679008483887
1403715525712143000,-0.019834648817777634,0.022471733391284943,0.062031034380197525,9.127337455749512,-0.4151013493537903,-2.9911398887634277
1403715525717143000,0.022360827773809433,0.02648676186800003,0.06150054186582565,9.265629768371582,-0.4963158965110779,-3.1209073066711426
1403715525722143000,0.049580276012420654,0.014611378312110901,0.06714903563261032,9.242021560668945,-0.16013604402542114,-3.1538119316101074
1403715525727143000,0.06052626669406891,0.021751929074525833,0.07121402025222778,9.184020042419434,0.3557845950126648,-3.112696886062622
1403715525732143000,0.05391222983598709,0.013541951775550842,0.08153846114873886,9.266929626464844,0.7559764981269836,-3.1371161937713623
1403715525737143000,0.02010507881641388,0.011545103043317795,0.07710325717926025,9.29880428314209,1.0088157653808594,-3.3896424770355225
1403715525742143000,-0.0072843097150325775,0.02408561110496521,0.07862049341201782,9.26730728149414,0.9516468048095703,-3.210620880126953
1403715525747143000,-0.04299377277493477,0.024042703211307526,0.09008148312568665,9.209297180175781,0.697790801525116,-3.2092580795288086
1403715525752143000,-0.0588279664516449,0.024647358804941177,0.08242109417915344,9.153162002563477,0.3378158211708069,-3.1195311546325684
1403715525757143000,-0.042459387332201004,0.022332247346639633,0.09918738901615143,9.373490333557129,-0.2012435495853424,-3.1033895015716553
1403715525762143000,-0.010735657066106796,0.027188245207071304,0.09772026538848877,9.192534446716309,-0.3899417519569397,-3.1201648712158203
1403715525767143000,0.010295335203409195,0.014021892100572586,0.07782384753227234,8.923514366149902,-0.15292751789093018,-3.0796563625335693
1403715525772143000,0.03337225317955017,0.014710437506437302,0.06941176950931549,9.48825740814209,0.028329048305749893,-3.2600274085998535
1403715525777143000,0.04156283289194107,0.013397041708230972,0.06195582449436188,9.31359577178955,0.08519396185874939,-3.20354962348938
1403715525782143000,0.035853758454322815,0.012823052704334259,0.0509125255048275,9.265241622924805,0.623408317565918,-3.3008460998535156
1403715525787143000,0.014689385890960693,0.024024847894906998,0.06646820902824402,9.382292747497559,1.0178333520889282,-3.169498920440674
1403715525792143000,-0.013437662273645401,0.031719308346509933,0.07483579218387604,9.126065254211426,0.7645279765129089,-3.282860279083252
1403715525797143000,-0.02043694257736206,0.017639774829149246,0.07535801082849503,9.472267150878906,0.06829777359962463,-3.1125407218933105
1403715525802143000,-0.014694072306156158,0.033556532114744186,0.08281655609607697,9.158686637878418,0.1893531084060669,-3.1920435428619385
1403715525807143000,-0.01881149411201477,0.016203824430704117,0.06179626286029816,9.071568489074707,0.33073610067367554,-3.176741600036621
1403715525812143000,-0.019283650442957878,0.010666508227586746,0.06762100011110306,9.447157859802246,0.48502710461616516,-3.291954278945923
1403715525817143000,-0.0325552299618721,0.03165755048394203,0.07200873643159866,9.110103607177734,0.7048999667167664,-3.3005642890930176
1403715525822143000,-0.045877791941165924,0.006526574492454529,0.08464595675468445,9.194154739379883,0.2577248215675354,-3.0967907905578613
1403715525827143000,-0.0373363196849823,0.02378828078508377,0.09082044661045074,9.380541801452637,-0.06197892129421234,-3.3006889820098877
1403715525832143000,0.0025753378868103027,0.015902049839496613,0.09120504558086395,8.972895622253418,-0.8138728141784668,-2.8931820392608643
1403715525837143000,0.0543660968542099,0.0006047859787940979,0.06713804602622986,9.6093168258667,-1.026136875152588,-3.2516098022460938
1403715525842143000,0.10030689835548401,0.03285842016339302,0.06315882503986359,9.338960647583008,-0.013785846531391144,-3.1778883934020996
1403715525847143000,0.09302671253681183,0.015889521688222885,0.050051696598529816,9.25723648071289,1.4007031917572021,-3.3810818195343018
1403715525852143000,0.041619159281253815,0.0377068892121315,0.055195972323417664,9.333321571350098,1.8190608024597168,-3.211677312850952
1403715525857143000,-0.04755488783121109,0.016588449478149414,0.08949410915374756,8.742982864379883,1.7588824033737183,-3.2346384525299072
1403715525862143000,-0.09962952136993408,0.017588119953870773,0.06767609715461731,9.629642486572266,0.6415280699729919,-3.34822678565979
1403715525867143000,-0.087957002222538,0.01889270544052124,0.10654117166996002,8.864893913269043,-0.08725445717573166,-3.1192116737365723
1403715525872143000,-0.06315793097019196,0.013955492526292801,0.07013177871704102,9.619925498962402,-0.6504989266395569,-3.243246555328369
1403715525877143000,-0.002707395702600479,0.030118852853775024,0.08973218500614166,9.444921493530273,-0.5529322028160095,-3.2513840198516846
1403715525882143000,0.020065736025571823,0.027372054755687714,0.055142708122730255,9.182821273803711,-0.1604769229888916,-3.1787514686584473
1403715525887143000,0.050222426652908325,0.030729129910469055,0.0705842599272728,9.609088897705078,0.027655478566884995,-3.3586127758026123
1403715525892143000,0.05056951195001602,0.039107806980609894,0.0636724978685379,8.945570945739746,0.24815423786640167,-3.113258123397827
1403715525897143000,0.04220818728208542,0.028884999454021454,0.07391320914030075,9.087787628173828,0.902096152305603,-3.1525418758392334
1403715525902143000,0.016125202178955078,0.020520471036434174,0.08147448301315308,9.399070739746094,0.8153528571128845,-3.233811855316162
1403715525907143000,-0.010686609894037247,0.029590226709842682,0.08851440250873566,9.068982124328613,0.8614782094955444,-3.397796630859375
1403715525912143000,-0.041598111391067505,0.0296328142285347,0.0800352618098259,9.358838081359863,0.7631799578666687,-3.2513489723205566
1403715525917143000,-0.05891302227973938,0.035166703164577484,0.08083415776491165,9.250061988830566,0.6407055258750916,-3.201183319091797
1403715525922143000,-0.0565730556845665,0.030757896602153778,0.08099982142448425,8.96417236328125,-0.07068587839603424,-3.088012933731079
1403715525927143000,-0.022559667006134987,0.028596259653568268,0.09086385369300842,9.529256820678711,-0.3746073544025421,-3.2263927459716797
1403715525932143000,0.00757177546620369,0.04319200664758682,0.08656221628189087,9.06157112121582,-0.5280419588088989,-2.998012065887451
1403715525937143000,0.03271094709634781,0.020301397889852524,0.07867275178432465,9.046051025390625,0.10106275230646133,-3.022341728210449
1403715525942143000,0.041571274399757385,0.016168158501386642,0.07443400472402573,9.308673858642578,0.20903633534908295,-3.0720205307006836
1403715525947143000,0.02808966487646103,0.016267411410808563,0.058987490832805634,9.14207935333252,0.6153712868690491,-3.299866199493408
1403715525952143000,0.013280339539051056,0.005833610892295837,0.05777418613433838,9.406550407409668,0.7720810174942017,-3.2682044506073
1403715525957143000,-0.007090691477060318,0.025385532528162003,0.0693085789680481,9.208701133728027,0.8699023723602295,-3.218210220336914
1403715525962143000,-0.030251719057559967,0.02052932232618332,0.07911470532417297,9.07075309753418,0.41253331303596497,-3.0798356533050537
1403715525967143000,-0.032173510640859604,0.019802305847406387,0.0921434760093689,9.267215728759766,0.28808140754699707,-3.2170441150665283
1403715525972143000,-0.02996831014752388,0.032870419323444366,0.09899042546749115,9.373562812805176,0.18338559567928314,-3.1438519954681396
1403715525977143000,-0.024220135062932968,0.01613292098045349,0.09116537868976593,8.995854377746582,0.1336425244808197,-3.1282215118408203
1403715525982143000,-0.017836851999163628,0.007090844213962555,0.07718326896429062,9.44776439666748,-0.013490844517946243,-3.2033145427703857
1403715525987143000,0.001806892454624176,0.018185481429100037,0.060502417385578156,9.166718482971191,-0.26683926582336426,-3.1539740562438965
1403715525992143000,0.02843572199344635,0.015524543821811676,0.06147687882184982,9.412922859191895,-0.021529516205191612,-3.2683069705963135
1403715525997143000,0.03803093731403351,0.01905917376279831,0.07141812145709991,9.111083984375,0.3877383768558502,-3.030961275100708
1403715526002143000,0.023856818675994873,0.017594464123249054,0.06346768140792847,9.421082496643066,0.5107038617134094,-3.397660732269287
1403715526007143000,0.018889743834733963,0.024690046906471252,0.07803495228290558,9.364755630493164,0.6730829477310181,-3.2680721282958984
1403715526012143000,0.0013569407165050507,0.03169449418783188,0.08784385025501251,9.437405586242676,0.8774242997169495,-3.307652235031128
1403715526017143000,-0.037258148193359375,0.035875946283340454,0.08353061974048615,8.874405860900879,0.8457305431365967,-3.0793113708496094
1403715526022143000,-0.05741206556558609,0.011412478983402252,0.07805000245571136,9.235562324523926,0.3301808536052704,-3.1521384716033936
1403715526027143000,-0.03539106622338295,0.023061133921146393,0.08034014701843262,9.438732147216797,-0.16095294058322906,-3.176948070526123
1403715526032143000,-0.004430104047060013,0.019503086805343628,0.08665251731872559,8.9467191696167,-0.21824875473976135,-3.1277976036071777
1403715526037143000,0.016504354774951935,0.011242158710956573,0.07806502282619476,9.367030143737793,0.027932938188314438,-3.088751792907715
1403715526042143000,0.023409709334373474,0.021778497844934464,0.06884337216615677,9.395759582519531,0.1587076038122177,-3.2677323818206787
1403715526047143000,0.031770892441272736,0.03234758973121643,0.06900528073310852,9.41215991973877,0.3624798059463501,-3.309267282485962
1403715526052143000,0.025302689522504807,0.03444157540798187,0.07741329818964005,9.298259735107422,0.542983889579773,-3.2597482204437256
1403715526057143000,-7.455796003341675e-05,0.03229166567325592,0.06404577940702438,9.013526916503906,0.8699822425842285,-3.03007173538208
1403715526062143000,-0.012608002871274948,0.01344393938779831,0.08664822578430176,9.038607597351074,0.6089872717857361,-3.1352531909942627
1403715526067143000,-0.01605643704533577,0.016181781888008118,0.08392398804426193,9.456143379211426,0.21566618978977203,-3.2173290252685547
1403715526072143000,-0.01673169434070587,0.008498743176460266,0.09052634239196777,8.995769500732422,0.3698267638683319,-3.2420754432678223
1403715526077143000,-0.022318094968795776,0.006459452211856842,0.07085942476987839,9.383072853088379,0.2654415965080261,-3.2515621185302734
1403715526082143000,-0.011590797454118729,0.022613517940044403,0.08367937803268433,9.24950885772705,0.30508023500442505,-3.186736583709717
1403715526087143000,-0.0067254770547151566,0.014791280031204224,0.06421616673469543,9.176051139831543,-0.0870153084397316,-3.0804543495178223
1403715526092143000,0.012984111905097961,0.013974852859973907,0.06970012933015823,9.478995323181152,0.09254813939332962,-3.201922655105591
1403715526097143000,0.019106529653072357,0.021666787564754486,0.06700639426708221,9.126481056213379,0.1267421543598175,-3.120288133621216
1403715526102143000,0.029660210013389587,0.01493775099515915,0.08737052232027054,9.111324310302734,0.5013989210128784,-3.2102043628692627
1403715526107143000,0.01967421919107437,0.021233640611171722,0.08858022093772888,9.414597511291504,0.4943501353263855,-3.3003060817718506
1403715526112143000,-0.0021355897188186646,0.026160310953855515,0.08417250216007233,9.183961868286133,0.8363782167434692,-3.2265372276306152
1403715526117143000,-0.021769829094409943,0.017703324556350708,0.08008033782243729,9.307737350463867,0.45385807752609253,-3.259472370147705
1403715526122143000,-0.028657091781497,0.02173466980457306,0.06192474067211151,9.094947814941406,0.296330064535141,-3.177494525909424
1403715526127143000,-0.025039784610271454,0.004844136536121368,0.06616227328777313,9.013716697692871,-0.11124761402606964,-3.136456251144409
1403715526132143000,-0.008754562586545944,0.016832929104566574,0.07417485862970352,9.512663841247559,0.027259385213255882,-3.348360538482666
1403715526137143000,0.006608676165342331,0.029478851705789566,0.08538637310266495,9.339006423950195,-0.04491991922259331,-3.1867995262145996
1403715526142143000,0.017094284296035767,0.023296218365430832,0.08156054466962814,9.06100082397461,0.36986827850341797,-3.18673038482666
1403715526147143000,0.018430978059768677,0.026723220944404602,0.08343032747507095,9.398686408996582,0.4616519808769226,-3.210894823074341
1403715526152143000,0.00994158536195755,0.035712555050849915,0.07791822403669357,9.420367240905762,0.42842209339141846,-3.1938328742980957
1403715526157143000,0.0035699978470802307,0.026671160012483597,0.07178205996751785,9.061153411865234,0.4443766474723816,-3.0792417526245117
1403715526162143000,-0.006994446739554405,0.011964812874794006,0.07194910943508148,9.006307601928711,0.3710973560810089,-3.111135482788086
1403715526167143000,-0.013178914785385132,0.011335857212543488,0.07764552533626556,9.374009132385254,0.4936276972293854,-3.340117931365967
1403715526172143000,-0.014576921239495277,0.01629243791103363,0.09010028839111328,9.347704887390137,0.32208380103111267,-3.3001725673675537
1403715526177143000,-0.012429624795913696,0.024591200053691864,0.0772370994091034,9.478483200073242,0.25604602694511414,-3.252091646194458
1403715526182143000,-0.00961323268711567,0.025277763605117798,0.07714608311653137,8.963149070739746,0.26425135135650635,-3.1209981441497803
1403715526187143000,-0.003197021782398224,0.02045673131942749,0.07176440954208374,9.455507278442383,0.33010974526405334,-3.275217056274414
1403715526192143000,0.003049992024898529,0.03497394174337387,0.06764452904462814,9.16761302947998,0.1508418619632721,-3.0874106884002686
1403715526197143000,0.005796514451503754,0.009819328784942627,0.06983642280101776,8.980263710021973,0.2313859909772873,-3.0952203273773193
1403715526202143000,0.014183010905981064,0.007772717624902725,0.07904885709285736,9.301506042480469,0.2163003385066986,-3.120486259460449
1403715526207143000,0.00923018530011177,0.01422213390469551,0.0816563218832016,9.257537841796875,0.42805734276771545,-3.275198221206665
1403715526212143000,-0.0020315051078796387,0.007984723895788193,0.0800199955701828,9.33229923248291,0.5263654589653015,-3.1947765350341797
1403715526217143000,-0.010438155382871628,0.014108184725046158,0.07298082113265991,9.461727142333984,0.37116172909736633,-3.3330628871917725
1403715526222143000,-0.008270613849163055,0.030191034078598022,0.08235335350036621,9.274114608764648,0.4279197156429291,-3.1620635986328125
1403715526227143000,-0.01527915708720684,0.022583354264497757,0.07541351765394211,9.175665855407715,0.2078247219324112,-3.2096190452575684
1403715526232143000,-0.009608838707208633,0.023818645626306534,0.0725579708814621,9.259461402893066,0.24004119634628296,-3.0710813999176025
1403715526237143000,0.0023071542382240295,0.01603570207953453,0.07676678895950317,9.151066780090332,-0.07825963199138641,-3.1930477619171143
1403715526242143000,0.014316834509372711,0.015576481819152832,0.08865038305521011,9.439269065856934,0.3291558027267456,-3.251319408416748
1403715526247143000,0.006443295627832413,0.019754257053136826,0.08991348743438721,9.126749992370605,0.3719250559806824,-3.153334617614746
1403715526252143000,-0.0012345537543296814,0.016272883862257004,0.0814627930521965,9.373176574707031,0.5749241709709167,-3.2925362586975098
1403715526257143000,-0.00405251607298851,0.020442232489585876,0.07733192294836044,9.372295379638672,0.2897098660469055,-3.259727954864502
1403715526262143000,-0.0061334408819675446,0.029447928071022034,0.0668630450963974,9.436933517456055,0.31314462423324585,-3.3163669109344482
1403715526267143000,-0.000594843178987503,0.028716210275888443,0.07109739631414413,8.988361358642578,0.2653353214263916,-3.0632452964782715
1403715526272143000,-0.007610971108078957,0.015509221702814102,0.06569122523069382,9.177948951721191,0.39517125487327576,-3.0784828662872314
1403715526277143000,-0.0011846646666526794,0.01826246827840805,0.07900375872850418,9.291166305541992,0.232450932264328,-3.282802104949951
1403715526282143000,0.0029416121542453766,0.02459576725959778,0.08866805583238602,9.209325790405273,0.24771958589553833,-3.218376398086548
1403715526287143000,0.00020948797464370728,0.020489271730184555,0.08912509679794312,9.267133712768555,0.5096646547317505,-3.218905210494995
1403715526292143000,-0.01172368973493576,0.020444057881832123,0.0891314223408699,9.128012657165527,0.5268254280090332,-3.145272970199585
1403715526297143000,-0.018728530034422874,0.012031320482492447,0.07383333891630173,9.332223892211914,0.3467308282852173,-3.145226240158081
1403715526302143000,-0.008892577141523361,0.01817644014954567,0.06684619188308716,9.314702987670898,-0.02143208682537079,-3.21807599067688
1403715526307143000,0.0037050098180770874,0.014705345034599304,0.06349264830350876,9.168251991271973,0.1416224092245102,-3.1446731090545654
1403715526312143000,0.010701712220907211,0.019050784409046173,0.07622727006673813,9.209878921508789,0.30610543489456177,-3.1202585697174072
1403715526317143000,0.013470388948917389,0.017055675387382507,0.07406404614448547,9.299047470092773,0.37108874320983887,-3.226386785507202
1403715526322143000,0.010600455105304718,0.018320761620998383,0.08224596083164215,9.355964660644531,0.370632141828537,-3.218885660171509
1403715526327143000,9.214133024215698e-05,0.022503409534692764,0.07930073887109756,9.224998474121094,0.6238892078399658,-3.2998390197753906
1403715526332143000,-0.00897974893450737,0.02187802642583847,0.0870879665017128,9.267409324645996,0.6333160400390625,-3.20245099067688
1403715526337143000,-0.02931324765086174,0.015563622117042542,0.08090748637914658,9.241445541381836,0.30578893423080444,-3.21038556098938
1403715526342143000,-0.02642972022294998,0.0140460766851902,0.07116308808326721,9.217577934265137,-0.013471221551299095,-3.1531224250793457
1403715526347143000,-0.0011578723788261414,0.01048816367983818,0.07538552582263947,9.201210021972656,-0.19294947385787964,-3.160914421081543
1403715526352143000,0.021324533969163895,0.02173364907503128,0.07814568281173706,9.36473560333252,0.06837369501590729,-3.2756032943725586
1403715526357143000,0.02682328224182129,0.015572533011436462,0.07732508331537247,9.192442893981934,0.30552923679351807,-3.194509744644165
1403715526362143000,0.02185680717229843,0.0260741226375103,0.07032814621925354,9.355881690979004,0.5504990220069885,-3.414879083633423
1403715526367143000,0.008445829153060913,0.02467738464474678,0.07740332931280136,9.250565528869629,0.6164486408233643,-3.1622064113616943
1403715526372143000,-0.006914403289556503,0.033007219433784485,0.07809553295373917,9.314492225646973,0.6650986075401306,-3.35679292678833
1403715526377143000,-0.025891754776239395,0.03231644630432129,0.08653279393911362,9.02243423461914,0.494207501411438,-3.0389232635498047
1403715526382143000,-0.03345195949077606,0.015503011643886566,0.07463987171649933,9.225546836853027,0.18304546177387238,-3.282536745071411
1403715526387143000,-0.019391916692256927,0.01747322827577591,0.08093868941068649,9.170113563537598,-0.0540761798620224,-3.0390448570251465
1403715526392143000,0.00028645992279052734,0.011867735534906387,0.08223719149827957,9.371562957763672,-0.13607078790664673,-3.3402395248413086
1403715526397143000,0.020581845194101334,0.024536650627851486,0.07239377498626709,9.31620979309082,0.10089115053415298,-3.130185127258301
1403715526402143000,0.027565516531467438,0.012079589068889618,0.07388614863157272,9.215478897094727,0.30535900592803955,-3.308408260345459
1403715526407143000,0.018413037061691284,0.026069313287734985,0.07263585180044174,9.455304145812988,0.6242486834526062,-3.2849204540252686
1403715526412143000,0.0014529526233673096,0.031624674797058105,0.07952806353569031,9.240286827087402,0.5678668022155762,-3.201813220977783
1403715526417143000,-0.011857561767101288,0.02814960479736328,0.07316287606954575,9.185182571411133,0.7222159504890442,-3.1284074783325195
1403715526422143000,-0.02798248454928398,0.016899950802326202,0.07810334861278534,9.111984252929688,0.36376625299453735,-3.0457589626312256
1403715526427143000,-0.028554139658808708,0.008503220975399017,0.08166982978582382,9.176928520202637,0.1580543965101242,-3.2256641387939453
1403715526432143000,-0.010275296866893768,0.014034681022167206,0.08998548239469528,9.275529861450195,-0.05423140898346901,-3.226337432861328
1403715526437143000,0.007284943014383316,0.01405460387468338,0.08010614663362503,9.348017692565918,0.04352438822388649,-3.2433738708496094
1403715526442143000,0.018444351851940155,0.020449362695217133,0.07456231117248535,9.1193208694458,0.2891021966934204,-3.0723373889923096
1403715526447143000,0.017719566822052002,0.009319998323917389,0.07667785882949829,9.364232063293457,0.37083899974823,-3.332760810852051
1403715526452143000,0.009337138384580612,0.021806173026561737,0.06896546483039856,9.544234275817871,0.6404344439506531,-3.341466188430786
1403715526457143000,-0.006216209381818771,0.027378126978874207,0.06759199500083923,9.133691787719727,0.5677481293678284,-3.234696865081787
1403715526462143000,-0.013211052864789963,0.025414150208234787,0.07828915119171143,9.210305213928223,0.5183956027030945,-3.1698179244995117
1403715526467143000,-0.018139230087399483,0.019782818853855133,0.08733584731817245,9.021873474121094,0.23235797882080078,-3.013643264770508
1403715526472143000,-0.010990189388394356,0.011991418898105621,0.08427859097719193,9.38135814666748,0.20712219178676605,-3.2906205654144287
1403715526477143000,-0.002651035785675049,0.020950131118297577,0.08634956181049347,9.3159818649292,0.044484153389930725,-3.153099298477173
1403715526482143000,0.0086161307990551,0.01753963530063629,0.07665025442838669,9.257308006286621,0.1821875274181366,-3.2596890926361084
1403715526487143000,0.016990739852190018,0.026025526225566864,0.07388223707675934,9.17732048034668,0.23214834928512573,-3.105099678039551
1403715526492143000,0.01073501631617546,0.016344550997018814,0.0704004094004631,9.429104804992676,0.5503054857254028,-3.373095750808716
1403715526497143000,0.0008721873164176941,0.02876982092857361,0.06984810531139374,9.37236213684082,0.5679591298103333,-3.251687526702881
1403715526502143000,-0.011137435212731361,0.023134984076023102,0.06981229037046432,9.191691398620605,0.3875662386417389,-3.210256338119507
1403715526507143000,-0.011788705363869667,0.02808384969830513,0.07387740910053253,9.251021385192871,0.2729216516017914,-3.1370794773101807
1403715526512143000,-0.009658465161919594,0.016961589455604553,0.0885668620467186,9.086323738098145,0.22389915585517883,-3.176459550857544
1403715526517143000,-0.004705917090177536,0.01967697963118553,0.08513934165239334,9.34138011932373,0.2812715172767639,-3.160980463027954
1403715526522143000,-0.0026460587978363037,0.016811884939670563,0.08292285352945328,9.17618465423584,0.10943664610385895,-3.1528310775756836
1403715526527143000,0.007920227944850922,0.018235433846712112,0.07523594796657562,9.40562629699707,0.14971615374088287,-3.2924880981445312
1403715526532143000,0.010658863931894302,0.019036322832107544,0.07598286867141724,9.119181632995605,0.305518239736557,-3.0882692337036133
1403715526537143000,0.005829229950904846,0.012796100229024887,0.07252027094364166,9.413264274597168,0.5181469917297363,-3.3570032119750977
1403715526542143000,-0.005493307486176491,0.03158215433359146,0.07189751416444778,9.135587692260742,0.44508302211761475,-3.153611898422241
1403715526547143000,-0.014626726508140564,0.019024796783924103,0.07328401505947113,9.168256759643555,0.28921061754226685,-3.1772587299346924
1403715526552143000,-0.008215058594942093,0.024597719311714172,0.0886211097240448,9.292004585266113,0.28923845291137695,-3.2100415229797363
1403715526557143000,-0.0019241981208324432,0.01688293367624283,0.08850288391113281,9.19240951538086,0.15874607861042023,-3.2262234687805176
1403715526562143000,-0.0004905015230178833,0.027369242161512375,0.08783075213432312,9.299903869628906,0.3295976519584656,-3.1699421405792236
1403715526567143000,0.0015329420566558838,0.01756741851568222,0.08577455580234528,9.070119857788086,0.12614135444164276,-3.1121323108673096
1403715526572143000,0.007901579141616821,0.012685254216194153,0.07452750951051712,9.4549560546875,0.2885875701904297,-3.3002583980560303
1403715526577143000,0.002241380512714386,0.021814953535795212,0.07314306497573853,9.282121658325195,0.35477569699287415,-3.185899019241333
1403715526582143000,-0.006116155534982681,0.014182496815919876,0.06767299771308899,9.388216972351074,0.526104211807251,-3.3247618675231934
1403715526587143000,-0.0096628088504076,0.027353789657354355,0.07477181404829025,9.176508903503418,0.363433837890625,-3.1294467449188232
1403715526592143000,-0.008958324790000916,0.014147326350212097,0.0697561502456665,9.168257713317871,0.27253612875938416,-3.09545636177063
1403715526597143000,0.0016396194696426392,0.02043956145644188,0.08151902258396149,9.348499298095703,0.338127464056015,-3.2910068035125732
1403715526602143000,-0.0005777142941951752,0.024544011801481247,0.08580518513917923,9.102983474731445,0.240518718957901,-3.1772289276123047
1403715526607143000,0.0022845864295959473,0.023867420852184296,0.08510003983974457,9.267269134521484,0.2562416195869446,-3.1780667304992676
1403715526612143000,0.00501188263297081,0.015524540096521378,0.0836477056145668,9.04630184173584,0.16651244461536407,-3.063230514526367
1403715526617143000,0.005102295428514481,0.013421580195426941,0.07104955613613129,9.446539878845215,0.41143906116485596,-3.3485848903656006
1403715526622143000,0.001527443528175354,0.02736375480890274,0.06967061012983322,9.168200492858887,0.35522177815437317,-3.16161847114563
1403715526627143000,-0.006868142634630203,0.014180585741996765,0.06625065952539444,9.299017906188965,0.5093925595283508,-3.2184395790100098
1403715526632143000,-0.008984100073575974,0.021770868450403214,0.07401270419359207,9.135863304138184,0.2164173722267151,-3.161623477935791
1403715526637143000,-0.005439631640911102,0.011357598006725311,0.07050018012523651,9.364521026611328,0.288677453994751,-3.2425389289855957
1403715526642143000,-0.004690930247306824,0.025977950543165207,0.08650363236665726,9.364187240600586,0.35485583543777466,-3.2430098056793213
1403715526647143000,-0.006831979379057884,0.021755225956439972,0.08082741498947144,9.135056495666504,0.256867915391922,-3.169480323791504
1403715526652143000,0.003036186099052429,0.022514760494232178,0.0906362235546112,9.283544540405273,0.2726249396800995,-3.161900758743286
1403715526657143000,0.005076490342617035,0.01696159690618515,0.07947063446044922,9.151737213134766,0.24812480807304382,-3.176945686340332
1403715526662143000,0.0016110911965370178,0.011989183723926544,0.07174568623304367,9.405539512634277,0.41994187235832214,-3.3488614559173584
1403715526667143000,-0.0019949451088905334,0.019613981246948242,0.07391689717769623,9.110949516296387,0.28144338726997375,-3.170057535171509
1403715526672143000,-0.006840141490101814,0.014884032309055328,0.07677314430475235,9.315702438354492,0.3868273198604584,-3.2840824127197266
1403715526677143000,-0.004047296941280365,0.019097037613391876,0.07745581120252609,9.168854713439941,0.3224288523197174,-3.104391098022461
1403715526682143000,-0.0054436251521110535,0.017619140446186066,0.07459498196840286,9.41301155090332,0.2893044054508209,-3.307671308517456
1403715526687143000,-0.001894187182188034,0.02314922958612442,0.08222222328186035,9.233488082885742,0.28899627923965454,-3.2597522735595703
1403715526692143000,0.00017408281564712524,0.023875083774328232,0.07805095613002777,9.233905792236328,0.34634870290756226,-3.153146505355835
1403715526697143000,0.005066368728876114,0.026002712547779083,0.08790580928325653,9.242216110229492,0.26526057720184326,-3.120645761489868
1403715526702143000,0.0008330680429935455,0.01625259965658188,0.07677429914474487,9.225188255310059,0.31322991847991943,-3.2178354263305664
1403715526707143000,0.000903204083442688,0.018988795578479767,0.0830477923154831,9.348599433898926,0.43629834055900574,-3.251084327697754
1403715526712143000,-0.004087582230567932,0.02383914589881897,0.07313060760498047,9.094298362731934,0.24895641207695007,-3.2020301818847656
1403715526717143000,-0.003330543637275696,0.010663595050573349,0.06887216866016388,9.316234588623047,0.3539552390575409,-3.235257863998413
1403715526722143000,-0.002660360187292099,0.012697689235210419,0.07326152920722961,9.339922904968262,0.2650153338909149,-3.1613171100616455
1403715526727143000,-0.0040079206228256226,0.017603158950805664,0.07612171024084091,9.355045318603516,0.3219360113143921,-3.3652336597442627
1403715526732143000,-0.0019274428486824036,0.030913595110177994,0.08167575299739838,9.299619674682617,0.330208420753479,-3.1376285552978516
1403715526737143000,-0.0012399330735206604,0.028826534748077393,0.08161238580942154,9.298584938049316,0.3628082871437073,-3.120002031326294
1403715526742143000,-0.0012480877339839935,0.025290437042713165,0.08012165874242783,9.135479927062988,0.24058064818382263,-3.144512414932251
1403715526747143000,0.0008839070796966553,0.014793824404478073,0.07382552325725555,9.275175094604492,0.33772075176239014,-3.193260431289673
1403715526752143000,-0.002632133662700653,0.02098214253783226,0.07668977230787277,9.282902717590332,0.3222794234752655,-3.218181848526001
1403715526757143000,-0.0012354776263237,0.01269581913948059,0.07609332352876663,9.168182373046875,0.2974381446838379,-3.218574285507202
1403715526762143000,-0.0019538551568984985,0.014202967286109924,0.07610197365283966,9.348743438720703,0.2727982699871063,-3.23543381690979
1403715526767143000,0.00016034021973609924,0.016978390514850616,0.07667340338230133,9.176007270812988,0.2890795171260834,-3.210174083709717
1403715526772143000,0.002960309386253357,0.02106224000453949,0.07452842593193054,9.307723999023438,0.3139485716819763,-3.202101469039917
1403715526777143000,-0.000563349574804306,0.021731432527303696,0.08155551552772522,9.200906753540039,0.2974027395248413,-3.20192551612854
1403715526782143000,-0.000535428524017334,0.028091128915548325,0.08445217460393906,9.250460624694824,0.37905368208885193,-3.210122585296631
1403715526787143000,-0.0019677430391311646,0.02538696676492691,0.08444762229919434,9.127784729003906,0.3630809187889099,-3.1448073387145996
1403715526792143000,-0.0054371971637010574,0.021818600594997406,0.07597575336694717,9.267004013061523,0.35459643602371216,-3.201828956604004
1403715526797143000,-0.005462322384119034,0.016821477562189102,0.08152581751346588,9.09494686126709,0.19937215745449066,-3.128739595413208
1403715526802143000,-0.005425050854682922,0.017564907670021057,0.07878351211547852,9.291418075561523,0.2235793024301529,-3.250934362411499
1403715526807143000,-0.0012077204883098602,0.014817290008068085,0.07670699805021286,9.274847030639648,0.2159373015165329,-3.1779956817626953
1403715526812143000,0.000887647271156311,0.012702308595180511,0.06971537321805954,9.339217185974121,0.28907838463783264,-3.2594852447509766
1403715526817143000,0.004382498562335968,0.019696909934282303,0.07533640414476395,9.323430061340332,0.2974931299686432,-3.210944414138794
1403715526822143000,0.0036828741431236267,0.023936841636896133,0.07951468229293823,9.3145751953125,0.3952668011188507,-3.2674481868743896
1403715526827143000,0.0015706643462181091,0.02883755788207054,0.07739970833063126,9.315460205078125,0.5018867254257202,-3.2022182941436768
1403715526832143000,-0.004093348979949951,0.024612877517938614,0.08164988458156586,9.19236946105957,0.363120436668396,-3.169062376022339
1403715526837143000,-0.009682631120085716,0.02460790053009987,0.07744483649730682,9.168952941894531,0.3951026201248169,-3.136430025100708
1403715526842143000,-0.00823742151260376,0.013375822454690933,0.08502065390348434,9.160685539245605,0.25674697756767273,-3.185035467147827
1403715526847143000,-0.011021262034773827,0.016849704086780548,0.07454080879688263,9.250775337219238,0.2972434163093567,-3.2345376014709473
1403715526852143000,-0.005384117364883423,0.010626018047332764,0.08233316242694855,9.299396514892578,0.19125208258628845,-3.194350004196167
1403715526857143000,0.001633141189813614,0.013426240533590317,0.06693549454212189,9.559903144836426,0.1337963193655014,-3.357858180999756
1403715526862143000,0.007295534014701843,0.02042989805340767,0.07239063084125519,9.411507606506348,0.36233267188072205,-3.4807376861572266
1403715526867143000,0.00719514861702919,0.02252669259905815,0.07954961061477661,9.339428901672363,0.4123750627040863,-3.268806219100952
1403715526872143000,0.0036804229021072388,0.03301621973514557,0.08242793381214142,9.5025634765625,0.46920013427734375,-3.2841429710388184
1403715526877143000,-0.004798963665962219,0.026719044893980026,0.08372437208890915,9.281624794006348,0.33843061327934265,-3.1856231689453125
1403715526882143000,-0.0012325085699558258,0.021081283688545227,0.07662530243396759,9.543783187866211,0.2647738754749298,-3.3241100311279297
1403715526887143000,-0.004120327532291412,0.02102242037653923,0.07868778705596924,9.167793273925781,0.16681455075740814,-3.1286914348602295
1403715526892143000,-0.004760541021823883,0.004985067993402481,0.07248122245073318,9.364445686340332,0.17453695833683014,-3.234590530395508
1403715526897143000,0.00935107097029686,0.010616935789585114,0.09717109799385071,9.659281730651855,0.3709230422973633,-3.210735559463501
1403715526902143000,0.003062758594751358,0.014929741621017456,0.09372685849666595,9.787599563598633,0.6978161931037903,-3.3489859104156494
1403715526907143000,-0.01662987470626831,0.061734482645988464,0.08992107957601547,9.353906631469727,0.5516924858093262,-3.3497841358184814
1403715526912143000,-0.03932701051235199,0.02610287070274353,0.06515391170978546,8.368269920349121,0.1421126276254654,-2.670754909515381
1403715526917143000,-0.019360383972525597,0.006138864904642105,0.06598684191703796,8.935283660888672,-0.2343251258134842,-2.9704692363739014
1403715526922143000,0.019301481544971466,0.0005196407437324524,0.08669529855251312,8.50978946685791,-0.030140703544020653,-2.920835018157959
1403715526927143000,0.03818388283252716,0.007091794162988663,0.07912520319223404,9.621988296508789,0.3467637896537781,-3.2986819744110107
1403715526932143000,0.02309507131576538,0.033959705382585526,0.07602137327194214,8.326912879943848,0.6163293123245239,-2.949625015258789
1403715526937143000,-0.0043900758028030396,-0.0064306315034627914,0.04421418905258179,8.886853218078613,0.7626134157180786,-3.063187599182129
1403715526942143000,-0.01899290829896927,0.014906246215105057,0.060253582894802094,8.860602378845215,0.5836886167526245,-2.9481067657470703
1403715526947143000,-0.014551546424627304,-0.016840457916259766,0.09157454967498779,8.923718452453613,0.525766909122467,-3.2247228622436523
1403715526952143000,-0.010825233533978462,0.01941002905368805,0.09470000863075256,9.8491849899292,0.2245098203420639,-3.440007209777832
1403715526957143000,-0.010928153991699219,0.049400538206100464,0.09087729454040527,8.821722030639648,0.43599510192871094,-3.1541595458984375
1403715526962143000,-0.018841087818145752,-0.0007365737110376358,0.07280948758125305,9.071051597595215,0.16735808551311493,-3.1793758869171143
1403715526967143000,-0.021636024117469788,0.013944663107395172,0.0522240474820137,9.160059928894043,0.01062781736254692,-3.1777350902557373
1403715526972143000,0.009459178894758224,-0.003785081207752228,0.08086167275905609,9.215896606445312,-0.022138686850667,-3.316434144973755
1403715526977143000,0.021467678248882294,0.009786158800125122,0.08504333347082138,9.936394691467285,0.07708501815795898,-3.5464532375335693
1403715526982143000,0.022726044058799744,0.05140170454978943,0.0750001072883606,8.976850509643555,0.5429753661155701,-3.212529420852661
1403715526987143000,-0.004304569214582443,0.012420222163200378,0.05609887093305588,9.429863929748535,0.2495109736919403,-3.2366857528686523
1403715526992143000,-0.011268146336078644,0.02593449503183365,0.047399524599313736,9.460982322692871,0.13377833366394043,-3.234875202178955
1403715526997143000,0.0035929828882217407,0.01298719272017479,0.08371586352586746,9.101003646850586,0.3620243966579437,-3.225801706314087
1403715527002143000,-0.008165072649717331,0.03417086601257324,0.08640266954898834,10.036136627197266,0.35583749413490295,-3.5205461978912354
1403715527007143000,-0.013081051409244537,0.06194581091403961,0.09323681145906448,9.058992385864258,0.4852723479270935,-3.113431930541992
1403715527012143000,-0.020985886454582214,0.02202257513999939,0.07451319694519043,9.119242668151855,-0.08666443079710007,-3.112821340560913
1403715527017143000,-0.011061972007155418,0.03204087167978287,0.067682646214962,9.333571434020996,-0.1610424667596817,-3.0461313724517822
1403715527022143000,0.012181654572486877,0.0039246566593647,0.08763943612575531,9.003936767578125,0.23119916021823883,-3.134727716445923
1403715527027143000,0.02137327566742897,0.0110248364508152,0.10027755796909332,9.73457145690918,0.28209686279296875,-3.3327910900115967
1403715527032143000,0.0191798135638237,0.04505743831396103,0.10306767374277115,9.052422523498535,0.5504116415977478,-3.121044158935547
1403715527037143000,0.009830497205257416,0.008967071771621704,0.08000439405441284,9.332585334777832,0.5015329718589783,-3.1943540573120117
1403715527042143000,-0.009190788492560387,0.017618414014577866,0.061280012130737305,9.185007095336914,0.4774743318557739,-3.111290216445923
1403715527047143000,-0.015370914712548256,-0.010610842145979404,0.058824069797992706,9.0130615234375,0.5254806280136108,-3.1843037605285645
1403715527052143000,-0.002488400787115097,0.002103012055158615,0.08695113658905029,9.661285400390625,0.5342616438865662,-3.2750089168548584
1403715527057143000,-0.00533623993396759,0.03255033493041992,0.09065458923578262,9.158574104309082,0.583710253238678,-3.2342443466186523
1403715527062143000,-0.014539305120706558,0.013905197381973267,0.08309812843799591,9.112078666687012,0.6239544749259949,-3.169882297515869
1403715527067143000,-0.015980100259184837,0.025442257523536682,0.06569937616586685,9.332798957824707,0.3058552145957947,-3.168956995010376
1403715527072143000,-0.015949193388223648,0.008272409439086914,0.04040760174393654,8.971428871154785,0.02699531614780426,-3.0790483951568604
1403715527077143000,0.003187209367752075,-0.0008554663509130478,0.06346684694290161,9.21854305267334,0.1823716163635254,-3.2423243522644043
1403715527082143000,0.016440153121948242,0.02178744599223137,0.07818196713924408,9.39833927154541,0.29038509726524353,-3.2186167240142822
1403715527087143000,0.02340889722108841,0.02566709741950035,0.09476662427186966,9.060596466064453,0.5834377408027649,-3.3007094860076904
1403715527092143000,0.0035093985497951508,0.024918071925640106,0.07513078302145004,9.219271659851074,0.632955014705658,-3.1457090377807617
1403715527097143000,-0.016231071203947067,0.024445459246635437,0.06687165796756744,9.086312294006348,0.28184834122657776,-3.1199591159820557
1403715527102143000,-0.020344499498605728,0.015887945890426636,0.0545765683054924,8.923782348632812,-0.062416743487119675,-3.095662832260132
1403715527107143000,-0.0018113777041435242,0.012621704488992691,0.08332225680351257,9.358650207519531,0.3048687279224396,-3.1196374893188477
1403715527112143000,0.0037462525069713593,0.033659763634204865,0.09843920916318893,9.30683708190918,0.11147194355726242,-3.1366827487945557
1403715527117143000,0.005790926516056061,0.030424542725086212,0.10295136272907257,9.159622192382812,0.40301719307899475,-3.1294238567352295
1403715527122143000,0.0007540583610534668,0.028150789439678192,0.08957886695861816,9.324345588684082,0.2568404972553253,-3.0964102745056152
1403715527127143000,-0.007654864341020584,0.0334244966506958,0.0675552636384964,9.363304138183594,0.12593024969100952,-3.1609232425689697
1403715527132143000,-0.006927156820893288,0.016677115112543106,0.053968142718076706,9.061277389526367,-0.08673857897520065,-3.0145866870880127
1403715527137143000,0.010819975286722183,0.01332700252532959,0.06736277043819427,9.577688217163086,0.28826314210891724,-3.209604501724243
1403715527142143000,0.01781041920185089,0.02739553153514862,0.09918241202831268,9.248262405395508,0.3315512239933014,-3.299907922744751
1403715527147143000,0.008554559201002121,0.021367520093917847,0.09451006352901459,9.446340560913086,0.6726619005203247,-3.3089797496795654
1403715527152143000,-0.014761921018362045,0.028870761394500732,0.08462724089622498,9.388937950134277,0.5755477547645569,-3.120734930038452
1403715527157143000,-0.0287504643201828,0.015356801450252533,0.05920766666531563,9.052567481994629,0.1338624656200409,-3.1197669506073
1403715527162143000,-0.020795583724975586,-1.3522803783416748e-06,0.05686437338590622,9.41500186920166,-0.005809411406517029,-3.1610114574432373
1403715527167143000,-0.00030742213129997253,0.007020536810159683,0.06802359223365784,9.371993064880371,0.1498444676399231,-3.2416937351226807
1403715527172143000,0.009419269859790802,0.009966880083084106,0.08513927459716797,9.225449562072754,0.2328612357378006,-3.1616907119750977
1403715527177143000,0.010778263211250305,0.012982964515686035,0.09316762536764145,9.569029808044434,0.4765055477619171,-3.366081476211548
1403715527182143000,0.0021749138832092285,0.025477174669504166,0.08963706344366074,9.127046585083008,0.6569353342056274,-3.07197904586792
1403715527187143000,-0.013294385746121407,0.010601267218589783,0.07526477426290512,9.078266143798828,0.3389149010181427,-3.168721914291382
1403715527192143000,-0.013103682547807693,0.006997499614953995,0.055360909551382065,9.480460166931152,0.18236297369003296,-3.2996950149536133
1403715527197143000,-0.0011143311858177185,0.01193026453256607,0.07141608744859695,9.183538436889648,0.24795591831207275,-3.2341692447662354
1403715527202143000,0.011486351490020752,0.016384441405534744,0.08222032338380814,9.11197280883789,0.4532396197319031,-3.2429165840148926
1403715527207143000,0.00715203583240509,0.018549732863903046,0.10500465333461761,9.25967788696289,0.5509386658668518,-3.2922534942626953
1403715527212143000,-0.005584608763456345,0.026053018867969513,0.09608365595340729,9.127720832824707,0.509514570236206,-3.1696794033050537
1403715527217143000,-0.012530537322163582,0.01968029886484146,0.07678176462650299,9.169062614440918,0.37096187472343445,-3.1851377487182617
1403715527222143000,-0.011715348809957504,0.014649555087089539,0.06222404167056084,9.226150512695312,0.06879129260778427,-3.251056671142578
1403715527227143000,-0.0039350613951683044,0.010471504181623459,0.052912503480911255,9.118965148925781,0.04350953921675682,-3.30049729347229
1403715527232143000,0.008000746369361877,0.014889322221279144,0.06180863082408905,9.33261775970459,0.30561313033103943,-3.27608060836792
1403715527237143000,0.010725192725658417,0.03172963485121727,0.08644087612628937,9.306526184082031,0.4290386736392975,-3.2924857139587402
1403715527242143000,0.00492008775472641,0.027460895478725433,0.09082266688346863,8.939352035522461,0.36290672421455383,-3.0724191665649414
1403715527247143000,-0.0020129531621932983,0.023196950554847717,0.08603846281766891,9.275933265686035,0.5336317420005798,-3.2341549396514893
1403715527252143000,-0.015264766290783882,0.021683301776647568,0.0726432055234909,9.307090759277344,0.2820272445678711,-3.3404147624969482
1403715527257143000,-0.013135084882378578,0.02443796396255493,0.054828494787216187,9.298554420471191,-0.004895090591162443,-3.1785848140716553
1403715527262143000,-0.0018166489899158478,0.017652548849582672,0.06861686706542969,9.290242195129395,0.3778073191642761,-3.308659315109253
1403715527267143000,-0.013093648478388786,0.030291788280010223,0.07515748590230942,9.364583969116211,0.46211808919906616,-3.2922141551971436
1403715527272143000,-0.008917294442653656,0.038609497249126434,0.09592125564813614,9.370999336242676,0.05310939624905586,-3.3093268871307373
1403715527277143000,0.004364669322967529,0.0328751839697361,0.09969142079353333,9.24958324432373,0.009664375334978104,-3.153972864151001
1403715527282143000,0.014285404235124588,0.023671459406614304,0.10070178657770157,9.495028495788574,0.1750374436378479,-3.2181174755096436
1403715527287143000,0.01405905932188034,0.028547801077365875,0.06920134276151657,9.73908519744873,-0.37844428420066833,-3.203188419342041
1403715527292143000,0.036434173583984375,0.023099400103092194,0.04641955345869064,9.647059440612793,-0.38242989778518677,-3.1709225177764893
1403715527297143000,0.056104302406311035,0.03235018625855446,0.0638151690363884,9.093151092529297,0.6799253821372986,-3.045820713043213
1403715527302143000,0.037807315587997437,0.009508483111858368,0.08218759298324585,9.358306884765625,1.2965949773788452,-3.1674180030822754
1403715527307143000,-0.013433307409286499,0.023422129452228546,0.09157244116067886,9.511990547180176,1.368097186088562,-3.2995529174804688
1403715527312143000,-0.07657620310783386,0.015572793781757355,0.08557528257369995,9.070175170898438,0.9094588160514832,-3.037813425064087
1403715527317143000,-0.08808229118585587,0.014724820852279663,0.0790315791964531,9.153812408447266,0.11826905608177185,-3.118957757949829
1403715527322143000,-0.07032400369644165,0.009142227470874786,0.0651005208492279,9.032027244567871,-0.44654130935668945,-2.883070707321167
1403715527327143000,-0.007652467116713524,0.009079359471797943,0.07116274535655975,9.39000129699707,-0.9044497013092041,-2.9972941875457764
1403715527332143000,0.05108150839805603,0.021620847284793854,0.0773342177271843,9.095063209533691,-0.6432632207870483,-3.021947145462036
1403715527337143000,0.08095115423202515,0.01832151785492897,0.07641936093568802,9.127890586853027,0.38668566942214966,-3.267050266265869
1403715527342143000,0.05735407769680023,0.02344750612974167,0.06515341997146606,8.843132019042969,1.066524624824524,-3.1454999446868896
1403715527347143000,0.013819865882396698,0.014435701072216034,0.06775777041912079,9.334250450134277,1.417067050933838,-3.1693050861358643
1403715527352143000,-0.014808136969804764,0.028869394212961197,0.09277990460395813,9.02125358581543,0.9032946228981018,-3.11197566986084
1403715527357143000,-0.03577619418501854,-0.004007577896118164,0.08949127048254013,8.957427978515625,0.5591028928756714,-3.152113914489746
1403715527362143000,-0.04756981506943703,0.01825510710477829,0.07039058208465576,9.325024604797363,0.0854567363858223,-3.478598117828369
1403715527367143000,-0.03562566637992859,-0.0011726170778274536,0.07171422988176346,9.119789123535156,0.10856524109840393,-3.153528928756714
1403715527372143000,-0.01024586707353592,0.023818809539079666,0.06678765267133713,9.780468940734863,-0.2090199738740921,-3.3582711219787598
1403715527377143000,0.02418123185634613,0.022469397634267807,0.08719609677791595,8.716925621032715,0.058528073132038116,-2.98321795463562
1403715527382143000,0.02354428917169571,0.004362175241112709,0.07551995664834976,9.700178146362305,0.34605100750923157,-3.520799160003662
1403715527387143000,0.005189321935176849,0.03154471144080162,0.06629364937543869,9.167311668395996,0.35561785101890564,-3.1135294437408447
1403715527392143000,0.007877033203840256,0.009869925677776337,0.06322628259658813,9.297216415405273,0.11019811779260635,-3.153700113296509
1403715527397143000,0.030282244086265564,0.02250097692012787,0.09545551240444183,9.070927619934082,0.2809273600578308,-3.1375136375427246
1403715527402143000,0.01822003722190857,-0.0018607042729854584,0.08167853951454163,9.20897388458252,0.3721432089805603,-3.4461750984191895
1403715527407143000,-0.013430118560791016,0.009355179965496063,0.060658518224954605,9.2435302734375,0.7873420715332031,-3.170292615890503
1403715527412143000,-0.02813979983329773,0.014146655797958374,0.06691776216030121,9.430095672607422,0.46949195861816406,-3.0461971759796143
1403715527417143000,-0.02166212722659111,0.019602064043283463,0.09771887958049774,9.02841854095459,-0.13631637394428253,-3.1780223846435547
1403715527422143000,-0.016611691564321518,0.004304906353354454,0.09347070753574371,9.513172149658203,-0.30017247796058655,-3.186209201812744
1403715527427143000,-0.017889779061079025,0.03431035950779915,0.07039434462785721,9.542850494384766,-0.04574839025735855,-3.1689350605010986
1403715527432143000,-0.003905404359102249,0.019572313874959946,0.08167530596256256,9.191560745239258,-0.40364742279052734,-2.876814842224121
1403715527437143000,0.033973343670368195,0.02372627705335617,0.09974382817745209,9.347007751464844,-0.17791076004505157,-3.1784472465515137
1403715527442143000,0.041454434394836426,0.011284265667200089,0.08547841757535934,9.42924976348877,0.06864622235298157,-3.348921537399292
1403715527447143000,0.01061653345823288,0.018525779247283936,0.06543363630771637,9.46181583404541,1.0814812183380127,-3.3568968772888184
1403715527452143000,-0.014064876362681389,0.033720239996910095,0.06017441302537918,9.126914978027344,0.5446105599403381,-3.178156852722168
1403715527457143000,-0.0013673380017280579,0.013402484357357025,0.0900040864944458,8.654271125793457,0.3523678481578827,-3.095670700073242
1403715527462143000,0.006526332348585129,0.0036444421857595444,0.09052354097366333,9.980762481689453,0.2560947835445404,-3.633143663406372
1403715527467143000,-0.018750913441181183,0.025433480739593506,0.05840717628598213,9.199448585510254,1.0569664239883423,-3.1766819953918457
1403715527472143000,-0.04273921623826027,0.03300207480788231,0.05018899589776993,8.743278503417969,0.446285605430603,-3.030413866043091
1403715527477143000,-0.013061493635177612,0.0015246234834194183,0.09211787581443787,8.715095520019531,-0.04842224344611168,-2.924882650375366
1403715527482143000,-0.005881458520889282,0.018252868205308914,0.08293916285037994,10.05202579498291,0.06749863177537918,-3.65696120262146
1403715527487143000,-0.008025035262107849,0.03870461881160736,0.07472158223390579,8.970072746276855,0.5516918301582336,-3.0474579334259033
1403715527492143000,-0.002592436969280243,0.03572448343038559,0.07630887627601624,8.62968921661377,0.08665964752435684,-2.8928945064544678
1403715527497143000,0.046617016196250916,0.006190020591020584,0.10672438889741898,8.926970481872559,-0.30104923248291016,-3.06453800201416
1403715527502143000,0.042892858386039734,0.021826811134815216,0.08392325043678284,9.920771598815918,0.500934362411499,-3.4935946464538574
1403715527507143000,0.006893463432788849,0.052125342190265656,0.05047914385795593,9.1248197555542,1.1333858966827393,-3.169006824493408
1403715527512143000,-0.0149574875831604,0.03158753365278244,0.07571101188659668,8.416925430297852,0.5603500008583069,-3.0233168601989746
1403715527517143000,-0.004053272306919098,0.005618039518594742,0.09453868120908737,9.858818054199219,-0.006795433349907398,-3.4240729808807373
1403715527522143000,-0.014539849013090134,0.036561377346515656,0.07005943357944489,9.499992370605469,0.5744830965995789,-3.2409868240356445
1403715527527143000,-0.03922639414668083,0.03789372742176056,0.050635598599910736,8.97844409942627,0.512768030166626,-3.078704833984375
1403715527532143000,-0.00953279435634613,0.00541362538933754,0.09526185691356659,8.966896057128906,-0.2994801998138428,-2.8859472274780273
1403715527537143000,0.010206032544374466,0.018886178731918335,0.08301849663257599,10.083303451538086,-0.12209655344486237,-3.4302315711975098
1403715527542143000,0.0002030879259109497,0.0388750284910202,0.050342708826065063,9.082962036132812,0.5193101763725281,-3.029263973236084
1403715527547143000,-0.006910761818289757,0.019001930952072144,0.07204020023345947,8.857665061950684,0.4467388391494751,-3.1121931076049805
1403715527552143000,0.013656068593263626,0.008129268884658813,0.10673987865447998,9.547159194946289,-0.09601385146379471,-3.228950023651123
1403715527557143000,0.015667684376239777,0.039998047053813934,0.09401673078536987,9.803439140319824,0.10840501636266708,-3.2584829330444336
1403715527562143000,-0.007105007767677307,0.0312509685754776,0.054373517632484436,8.838866233825684,0.6097637414932251,-3.0946385860443115
1403715527567143000,-0.002853166311979294,-0.009862907230854034,0.08592099696397781,8.69729995727539,0.24143460392951965,-3.0470681190490723
1403715527572143000,0.010028555989265442,0.008249673992395401,0.09730864316225052,10.290928840637207,0.026091482490301132,-3.4393160343170166
1403715527577143000,-0.005610022693872452,0.029773462563753128,0.032732684165239334,8.827848434448242,0.3455061614513397,-3.0860941410064697
1403715527582143000,-0.014069531112909317,-0.002442929893732071,0.06546014547348022,8.631707191467285,0.6990628838539124,-3.0462498664855957
1403715527587143000,-0.0010961219668388367,-0.006326738744974136,0.10280407220125198,9.688097953796387,0.3548954427242279,-3.2356133460998535
1403715527592143000,-0.005334826186299324,0.03303675353527069,0.07869502902030945,9.794432640075684,0.010247578844428062,-3.218385696411133
1403715527597143000,-0.011834250763058662,0.014390677213668823,0.0577191561460495,8.658843994140625,0.435575932264328,-3.046128273010254
1403715527602143000,0.002340063452720642,-0.009089237079024315,0.09367652982473373,9.107596397399902,0.682783305644989,-3.1773102283477783
1403715527607143000,0.008763302117586136,0.02866872027516365,0.11710724234580994,10.002016067504883,-0.003755060024559498,-3.4723587036132812
1403715527612143000,-0.0034138821065425873,0.038232654333114624,0.04608466848731041,9.302581787109375,0.03343895077705383,-3.226945161819458
1403715527617143000,0.004231031984090805,0.002334006130695343,0.06790681928396225,8.597002029418945,0.7794203758239746,-3.0215189456939697
1403715527622143000,0.0037418119609355927,0.01311139389872551,0.09358422458171844,9.720020294189453,0.48020505905151367,-3.3733599185943604
1403715527627143000,-0.01115577295422554,0.037982650101184845,0.05625906586647034,8.904386520385742,0.001997134415432811,-2.9899749755859375
1403715527632143000,-0.01188204437494278,-0.017803877592086792,0.05430435389280319,8.654932022094727,0.6704584956169128,-3.0852103233337402
1403715527637143000,0.0003949850797653198,0.004720328375697136,0.09689170867204666,10.122269630432129,0.6196361184120178,-3.4952259063720703
1403715527642143000,-0.015985041856765747,0.028894439339637756,0.08127334713935852,8.566892623901367,-0.012683464214205742,-3.0900752544403076
1403715527647143000,-0.0011923089623451233,-0.002987382933497429,0.06198735535144806,9.178735733032227,0.11401405930519104,-3.3421573638916016
1403715527652143000,0.017057042568922043,0.0005640331655740738,0.09897638857364655,9.440558433532715,0.3314489722251892,-3.160879135131836
1403715527657143000,0.012775387614965439,0.03559461236000061,0.07309972494840622,9.41896915435791,0.11168847233057022,-3.1045024394989014
1403715527662143000,0.014134541153907776,0.0061219558119773865,0.07223420590162277,9.223620414733887,0.11523405462503433,-3.496797800064087
1403715527667143000,0.010698549449443817,0.018355753272771835,0.08416404575109482,9.636651039123535,1.0643364191055298,-3.325289726257324
1403715527672143000,-0.01693209633231163,0.05938943475484848,0.07222751528024673,9.09343147277832,0.16327323019504547,-2.581716775894165
1403715527677143000,-0.018926840275526047,-0.001602834090590477,0.06551055610179901,9.151376724243164,0.10669469088315964,-2.84134578704834
1403715527682143000,-0.008864246308803558,-0.0022382475435733795,0.0947493314743042,10.150891304016113,0.36160558462142944,-3.281672716140747
1403715527687143000,-0.025100812315940857,0.04441580921411514,0.06139621511101723,8.67330265045166,-0.16541960835456848,-3.0699920654296875
1403715527692143000,-0.010256091132760048,-0.005782190710306168,0.058475010097026825,8.958210945129395,0.042213182896375656,-3.284893035888672
1403715527697143000,0.006668049842119217,0.014107346534729004,0.08720047026872635,9.726640701293945,0.40211978554725647,-3.406312942504883
1403715527702143000,0.0044432953000068665,0.056516893208026886,0.07336744666099548,8.59213924407959,-0.1742742955684662,-3.356812000274658
1403715527707143000,0.014205113053321838,-0.009340256452560425,0.06612549722194672,8.649147987365723,0.03296251222491264,-3.3833541870117188
1403715527712143000,0.025585416704416275,0.011789500713348389,0.08926785737276077,9.999281883239746,0.7211940288543701,-3.5204532146453857
1403715527717143000,0.001295045018196106,0.05504540354013443,0.06834627687931061,8.494927406311035,-0.03398853912949562,-2.769545555114746
1403715527722143000,0.006251133978366852,-0.025802142918109894,0.07018165290355682,8.844942092895508,0.49028298258781433,-2.907759189605713
1403715527727143000,-0.0018359608948230743,0.023180529475212097,0.10479548573493958,10.293203353881836,1.016032099723816,-3.551331043243408
1403715527732143000,-0.030790843069553375,0.059384457767009735,0.08890025317668915,8.041909217834473,-0.3132047951221466,-3.487128734588623
1403715527737143000,-0.01735198125243187,-0.009214786812663078,0.0920281633734703,9.633759498596191,0.18655294179916382,-3.051985263824463
1403715527742143000,-0.005931001156568527,0.05993244796991348,0.11015862226486206,9.706426620483398,0.7140825986862183,-2.9311065673828125
1403715527747143000,-0.010240383446216583,0.03763914853334427,0.07306091487407684,8.263603210449219,-0.49158966541290283,-3.3558428287506104
1403715527752143000,0.019969727843999863,-0.01564377173781395,0.0856693759560585,9.583698272705078,0.1695840209722519,-3.2944304943084717
1403715527757143000,0.0212610624730587,0.06473920494318008,0.08328094333410263,10.083452224731445,0.6653223633766174,-2.8899333477020264
1403715527762143000,0.010502070188522339,0.007094614207744598,0.044570378959178925,7.77061128616333,-0.39409321546554565,-3.151416778564453
1403715527767143000,0.022564228624105453,-0.041307419538497925,0.05641036853194237,10.062405586242676,0.9613049030303955,-3.147412061691284
1403715527772143000,-0.0005076192319393158,0.05988980084657669,0.07270868867635727,10.00599479675293,0.9861363172531128,-3.2724037170410156
1403715527777143000,-0.027451008558273315,0.0038123615086078644,0.04669279605150223,8.157285690307617,-0.09199994802474976,-3.153580665588379
1403715527782143000,-0.017937801778316498,-0.016210850328207016,0.08243590593338013,10.084675788879395,1.116516351699829,-3.268990993499756
1403715527787143000,-0.02652948908507824,0.08284427970647812,0.09652744233608246,8.747661590576172,-0.06665099412202835,-2.986776351928711
1403715527792143000,-0.014433793723583221,-0.016312722116708755,0.08576948940753937,8.79272174835205,-0.2996383011341095,-3.1531763076782227
1403715527797143000,0.020889248698949814,0.016922667622566223,0.10603129863739014,10.711994171142578,0.8002593517303467,-3.2758896350860596
1403715527802143000,-0.00550176203250885,0.07020566612482071,0.0807676687836647,8.701929092407227,0.04018457978963852,-3.1187362670898438
1403715527807143000,0.009271234273910522,-0.04756303131580353,0.06677769869565964,8.418549537658691,0.042471740394830704,-3.1153461933135986
1403715527812143000,0.015035975724458694,0.009210627526044846,0.07609616965055466,10.901830673217773,1.1115189790725708,-3.331472396850586
1403715527817143000,-0.021059123799204826,0.04516889899969101,0.06550934165716171,7.915313243865967,0.10612226277589798,-3.0521645545959473
1403715527822143000,-0.00268743559718132,-0.06083144247531891,0.07124268263578415,8.69338607788086,0.19694380462169647,-3.1472012996673584
1403715527827143000,0.008732631802558899,0.02726433053612709,0.09512095153331757,10.696467399597168,0.8514091968536377,-3.250194787979126
1403715527832143000,-0.010488588362932205,0.024438325315713882,0.08351796865463257,7.956721782684326,-0.21372953057289124,-3.0692694187164307
1403715527837143000,0.011525817215442657,-0.06411311030387878,0.09542936086654663,10.486083984375,1.0367172956466675,-3.4336307048797607
1403715527842143000,-0.01814725622534752,0.05911233276128769,0.06891649216413498,9.613330841064453,0.5034578442573547,-3.1688780784606934
1403715527847143000,-0.029391024261713028,-0.012338228523731232,0.04436837136745453,7.781193256378174,-0.1355566531419754,-2.9814023971557617
1403715527852143000,0.010258611291646957,-0.029300756752490997,0.0784878358244896,10.920283317565918,0.5233437418937683,-3.438999652862549
1403715527857143000,-0.008228901773691177,0.10444875806570053,0.07640262693166733,9.12649917602539,0.005668874364346266,-3.2237935066223145
1403715527862143000,0.007188055664300919,-0.03737736493349075,0.08736712485551834,7.5563178062438965,-0.16912609338760376,-2.999319553375244
1403715527867143000,0.020713776350021362,-0.0025055594742298126,0.0942087396979332,11.276233673095703,1.0222660303115845,-3.708064556121826
1403715527872143000,-0.009844282642006874,0.08419758081436157,0.09452829509973526,7.702240467071533,0.015033675357699394,-2.947200298309326
1403715527877143000,0.0063156262040138245,-0.07212264835834503,0.08679728209972382,8.3739013671875,0.18017993867397308,-2.983332872390747
1403715527882143000,-0.005198881030082703,0.04411395639181137,0.07107929140329361,11.06760025024414,0.9337446689605713,-3.7470955848693848
1403715527887143000,-0.023801865056157112,0.05729382485151291,0.04817739874124527,7.4489593505859375,-0.173166424036026,-2.678755521774292
1403715527892143000,0.0038326047360897064,-0.07182411849498749,0.0820101797580719,10.64840030670166,0.5306612253189087,-3.392693042755127
1403715527897143000,-0.01262156292796135,0.10213298350572586,0.06560749560594559,9.196914672851562,-0.1916833519935608,-3.062283754348755
1403715527902143000,0.01626751571893692,-0.036986127495765686,0.0793580561876297,7.7415032386779785,0.181902676820755,-3.0049893856048584
1403715527907143000,0.009432028979063034,0.024431832134723663,0.07827939093112946,10.816011428833008,0.9917197227478027,-3.4059135913848877
1403715527912143000,-0.009103268384933472,0.09215594828128815,0.08078529685735703,8.252683639526367,0.07092119753360748,-2.603121042251587
1403715527917143000,0.006380580365657806,-0.057014983147382736,0.10953174531459808,8.62303638458252,0.3110116422176361,-3.0562753677368164
1403715527922143000,-0.0046664513647556305,0.06362205743789673,0.09651950001716614,10.892427444458008,0.17605486512184143,-3.6900179386138916
1403715527927143000,0.002207878977060318,0.0263834185898304,0.08646680414676666,7.842349052429199,0.07734721153974533,-2.826734781265259
1403715527932143000,0.008635170757770538,-0.031707629561424255,0.07092609256505966,9.910364151000977,0.8015129566192627,-3.447883367538452
1403715527937143000,-0.010456213727593422,0.0817689523100853,0.07794421166181564,9.78181266784668,0.0960223525762558,-2.989886522293091
1403715527942143000,0.005736164748668671,-0.020645108073949814,0.07316713035106659,8.154926300048828,0.3845507502555847,-3.543731212615967
1403715527947143000,-0.01045328937470913,-0.0032960250973701477,0.05873413756489754,10.796924591064453,-0.0036443136632442474,-3.6116907596588135
1403715527952143000,-0.0025541596114635468,0.03332735598087311,0.06903506815433502,8.244024276733398,0.4108574092388153,-3.0300536155700684
1403715527957143000,-0.007544228807091713,-0.01292323600500822,0.05144570767879486,9.393166542053223,0.5346595048904419,-3.2525012493133545
1403715527962143000,0.0023741871118545532,0.050776705145835876,0.07940123975276947,9.749671936035156,0.06986202299594879,-3.2831132411956787
1403715527967143000,0.005927737802267075,0.019765760749578476,0.07544634491205215,9.270209312438965,0.8259497880935669,-3.5453040599823
1403715527972143000,-0.03216416388750076,0.046279869973659515,0.04814356565475464,9.928942680358887,0.07927612215280533,-3.6685144901275635
1403715527977143000,-0.0017892904579639435,0.05889352411031723,0.08165566623210907,8.765294075012207,0.5084679126739502,-3.090040922164917
1403715527982143000,-0.018191279843449593,0.04105697572231293,0.06345491111278534,8.916816711425781,0.23229405283927917,-2.8666164875030518
1403715527987143000,-0.0003887079656124115,0.04411991685628891,0.08367878198623657,8.810708999633789,-0.23278939723968506,-3.0355355739593506
1403715527992143000,0.01849653571844101,0.007894307374954224,0.09020377695560455,9.21255111694336,0.7363153696060181,-3.224489212036133
1403715527997143000,-0.01199108362197876,0.049328528344631195,0.05628938972949982,8.786474227905273,-0.24717827141284943,-2.817697048187256
1403715528002143000,0.026220940053462982,-0.01018812321126461,0.09888918697834015,9.007530212402344,0.7849451899528503,-3.0716965198516846
1403715528007143000,-0.004813548177480698,0.02453821897506714,0.04638958349823952,9.969779968261719,0.5354911684989929,-3.8473517894744873
1403715528012143000,0.01216716319322586,0.019179880619049072,0.07022689282894135,8.380777359008789,0.7145125865936279,-3.07377028465271
1403715528017143000,-0.006344236433506012,-0.0032757334411144257,0.046388037502765656,10.201833724975586,0.28897321224212646,-3.146801233291626
1403715528022143000,-0.01961665228009224,0.022946521639823914,0.05287793651223183,8.689770698547363,-0.27528616786003113,-2.931554079055786
1403715528027143000,-0.008312568068504333,-0.047889720648527145,0.07889176905155182,8.933547019958496,0.7452518939971924,-2.9961750507354736
1403715528032143000,-0.04396660253405571,0.030278336256742477,0.05519738793373108,10.413939476013184,0.3736726641654968,-3.347238540649414
1403715528037143000,-0.0002162456512451172,0.02207370102405548,0.11385639011859894,8.64659309387207,0.45206454396247864,-3.03959584236145
1403715528042143000,-0.019395526498556137,0.019156761467456818,0.06767754256725311,9.912433624267578,-0.20975612103939056,-3.8898873329162598
1403715528047143000,0.011533297598361969,0.06294260174036026,0.07838716357946396,8.956771850585938,-0.38044145703315735,-2.7231147289276123
1403715528052143000,0.021727964282035828,0.028686601668596268,0.05503217130899429,9.247640609741211,0.12527714669704437,-2.8982932567596436
1403715528057143000,-0.004989132285118103,0.0493377149105072,0.04672296345233917,8.933605194091797,-0.5912218689918518,-2.9716334342956543
1403715528062143000,0.02403130754828453,-0.00906301662325859,0.07483967393636703,8.965188980102539,0.5480636358261108,-3.2162389755249023
1403715528067143000,-0.020390892401337624,0.044169627130031586,0.07001499086618423,9.44020938873291,0.3731076717376709,-3.4956440925598145
1403715528072143000,0.009295478463172913,0.008149459958076477,0.13074758648872375,8.050558090209961,0.6170943975448608,-2.2785532474517822
1403715528077143000,-0.02240535244345665,-0.005680421367287636,0.08418722450733185,10.167600631713867,0.1495608538389206,-3.6914806365966797
1403715528082143000,-0.003868497908115387,0.0299900583922863,0.10680641233921051,9.281599044799805,0.16611197590827942,-3.2111153602600098
1403715528087143000,-0.0025934092700481415,0.017158981412649155,0.08920334279537201,9.477065086364746,0.8939314484596252,-3.2345755100250244
1403715528092143000,-0.014679886400699615,0.06777125597000122,0.08595063537359238,9.218990325927734,-0.2561732232570648,-2.884955406188965
1403715528097143000,0.018441423773765564,0.002940390259027481,0.09726424515247345,8.528799057006836,0.1217232197523117,-2.8327207565307617
1403715528102143000,-0.009748689830303192,0.0196215882897377,0.05302847921848297,10.23392391204834,-0.15139402449131012,-3.5343549251556396
1403715528107143000,0.021952401846647263,0.03641248494386673,0.07791057974100113,8.372870445251465,0.30628105998039246,-2.5140421390533447
1403715528112143000,0.0006893277168273926,-0.011100414209067822,0.02678508311510086,9.855303764343262,0.19876955449581146,-3.651711940765381
1403715528117143000,-0.004038475453853607,0.010017633438110352,0.05474425479769707,8.752116203308105,0.467989444732666,-3.1222124099731445
1403715528122143000,-0.013224022462964058,-0.0038202404975891113,0.04569823294878006,9.396346092224121,0.6332070231437683,-3.462789535522461
1403715528127143000,-0.02107406035065651,0.0370153933763504,0.06030329316854477,9.611703872680664,-0.656623899936676,-3.0980422496795654
1403715528132143000,-0.0025478750467300415,-0.01252378337085247,0.07474863529205322,9.099942207336426,0.36660152673721313,-3.013615846633911
1403715528137143000,-0.038285598158836365,0.01615336537361145,0.05694983899593353,9.683757781982422,0.4302212595939636,-3.7729899883270264
1403715528142143000,-0.002418097108602524,0.009611472487449646,0.0954306572675705,8.285964012145996,0.7237450480461121,-2.8025741577148438
1403715528147143000,-0.009625693783164024,-0.0019738003611564636,0.08313833922147751,9.832300186157227,-0.038612641394138336,-3.35796856880188
1403715528152143000,0.006621986627578735,0.039003364741802216,0.0842643529176712,9.290010452270508,-0.6192217469215393,-3.274885416030884
1403715528157143000,0.031715042889118195,-0.012080635875463486,0.0963674783706665,9.192675590515137,0.5656634569168091,-3.04767107963562
1403715528162143000,0.022389020770788193,0.02374669909477234,0.11800442636013031,9.447495460510254,-0.47487199306488037,-3.064697265625
1403715528167143000,0.05132576823234558,-0.03279227390885353,0.11141631007194519,9.118136405944824,0.7834113240242004,-3.054957866668701
1403715528172143000,0.005450032651424408,0.006404932588338852,0.09444987773895264,9.56057071685791,0.7479628324508667,-3.6825947761535645
1403715528177143000,0.010457240045070648,0.011004514992237091,0.10801385343074799,8.418391227722168,0.7650134563446045,-2.6794700622558594
1403715528182143000,-0.031643591821193695,-0.006620462983846664,0.06748801469802856,10.18287181854248,0.21441970765590668,-3.618273973464966
1403715528187143000,-0.022140437737107277,0.04768560826778412,0.059705112129449844,9.918556213378906,0.23066332936286926,-3.3248932361602783
1403715528192143000,-0.020032968372106552,0.021321848034858704,0.05659610778093338,9.245019912719727,1.0745878219604492,-3.3237648010253906
1403715528197143000,-0.0277805607765913,0.02647101879119873,0.05822167173027992,8.998046875,-0.32924073934555054,-3.2851879596710205
1403715528202143000,-0.0009882338345050812,-0.017495298758149147,0.0648718923330307,9.291687965393066,0.1210569366812706,-3.1038501262664795
1403715528207143000,-0.01374024897813797,0.005666818469762802,0.041518598794937134,9.469435691833496,0.08518286049365997,-3.4689104557037354
1403715528212143000,0.029171548783779144,0.02330431342124939,0.10070160031318665,8.793503761291504,-0.0027724148239940405,-2.998495101928711
1403715528217143000,0.005728933960199356,0.00028704293072223663,0.06565134227275848,9.25951099395752,0.42589688301086426,-3.4487688541412354
