#timestamp [ns],w_RS_S_x [rad s^-1],w_RS_S_y [rad s^-1],w_RS_S_z [rad s^-1],a_RS_S_x [m s^-2],a_RS_S_y [m s^-2],a_RS_S_z [m s^-2]
1403715523912143000,-0.0006981317007977319,0.019547687622336492,0.0767944870877505,9.218250999999999,0.3023717083333333,-3.1544724166666662
1403715523917143000,-0.0006981317007977319,0.020943951023931952,0.07260569688296412,9.316317499999998,0.29419949999999995,-3.2525389166666665
1403715523922143000,-0.003490658503988659,0.023038346126325153,0.0747000919853573,9.210078791666666,0.29419949999999995,-3.178989041666666
1403715523927143000,-0.0027925268031909274,0.017453292519943295,0.07819075048934597,9.324489708333333,0.3023717083333333,-3.260711125
1403715523932143000,-0.003490658503988659,0.02234021442552742,0.08028514559173915,9.226423208333333,0.269682875,-3.195333458333333
1403715523937143000,-0.0027925268031909274,0.021642082724729686,0.08098327729253688,9.324489708333333,0.34323275000000003,-3.219850083333333
1403715523942143000,-0.0006981317007977319,0.024434609527920613,0.07749261878854824,9.226423208333333,0.34323275000000003,-3.178989041666666
1403715523947143000,0.0,0.01884955592153876,0.07819075048934597,9.299973083333333,0.35957716666666667,-3.178989041666666
1403715523952143000,0.0,0.020943951023931952,0.07888888219014369,9.234595416666666,0.3350605416666666,-3.211677875
1403715523957143000,-0.0020943951023931952,0.02024581932313422,0.07749261878854824,9.308145291666667,0.367749375,-3.2035056666666666
1403715523962143000,-0.0027925268031909274,0.024434609527920613,0.07958701389094143,9.201906583333333,0.3023717083333333,-3.138128
1403715523967143000,-0.0013962634015954637,0.02024581932313422,0.0767944870877505,9.291800875,0.34323275000000003,-3.170816833333333
1403715523972143000,-0.0013962634015954637,0.021642082724729686,0.07609635538695278,9.234595416666666,0.3105439166666667,-3.2035056666666666
1403715523977143000,-0.003490658503988659,0.02024581932313422,0.07539822368615504,9.291800875,0.35140495833333335,-3.219850083333333
1403715523982143000,-0.004886921905584123,0.023736477827122883,0.0767944870877505,9.259112041666667,0.3105439166666667,-3.18716125
1403715523987143000,-0.0027925268031909274,0.019547687622336492,0.07539822368615504,9.275456458333332,0.34323275000000003,-3.195333458333333
1403715523992143000,-0.003490658503988659,0.020943951023931952,0.07609635538695278,9.226423208333333,0.318716125,-3.211677875
1403715523997143000,-0.003490658503988659,0.017453292519943295,0.0747000919853573,9.242767624999999,0.35140495833333335,-3.219850083333333
1403715524002143000,-0.003490658503988659,0.01884955592153876,0.08028514559173915,9.226423208333333,0.29419949999999995,-3.170816833333333
1403715524007143000,-0.004886921905584123,0.01884955592153876,0.07819075048934597,9.283628666666665,0.35957716666666667,-3.211677875
1403715524012143000,-0.003490658503988659,0.023736477827122883,0.07539822368615504,9.226423208333333,0.3350605416666666,-3.2035056666666666
1403715524017143000,0.0006981317007977319,0.016755160819145562,0.07888888219014369,9.26728425,0.3350605416666666,-3.2035056666666666
1403715524022143000,-0.0027925268031909274,0.016755160819145562,0.07888888219014369,9.242767624999999,0.3023717083333333,-3.2035056666666666
1403715524027143000,-0.0013962634015954637,0.016755160819145562,0.07819075048934597,9.275456458333332,0.35140495833333335,-3.18716125
1403715524032143000,-0.0006981317007977319,0.02234021442552742,0.07819075048934597,9.259112041666667,0.318716125,-3.18716125
1403715524037143000,-0.0013962634015954637,0.023038346126325153,0.07609635538695278,9.283628666666665,0.318716125,-3.2035056666666666
1403715524042143000,0.0020943951023931952,0.023736477827122883,0.08377580409572781,9.242767624999999,0.3023717083333333,-3.170816833333333
1403715524047143000,-0.0013962634015954637,0.01815142422074103,0.0767944870877505,9.324489708333333,0.3350605416666666,-3.211677875
1403715524052143000,-0.0027925268031909274,0.021642082724729686,0.0767944870877505,9.26728425,0.3023717083333333,-3.195333458333333
1403715524057143000,-0.001998722553253174,0.020649829879403114,0.07923955470323563,9.281316757202148,0.34347859025001526,-3.2042489051818848
1403715524062143000,0.0028815269470214844,0.01994970440864563,0.07923746854066849,9.248756408691406,0.31079310178756714,-3.1715121269226074
1403715524067143000,0.002891227602958679,0.015770435333251953,0.07435811311006546,9.281405448913574,0.34349989891052246,-3.1960978507995605
1403715524072143000,-0.0013110488653182983,0.01924426481127739,0.07992517203092575,9.232369422912598,0.26994776725769043,-3.204115152359009
1403715524077143000,-0.001990392804145813,0.014374904334545135,0.07505307346582413,9.30589771270752,0.3271459937095642,-3.1961004734039307
1403715524082143000,-0.0006117075681686401,0.018548499792814255,0.07574876397848129,9.183329582214355,0.327178418636322,-3.1960251331329346
1403715524087143000,9.933114051818848e-05,0.017165299504995346,0.07645238190889359,9.281384468078613,0.35166022181510925,-3.1879427433013916
1403715524092143000,-0.0006121844053268433,0.01854771003127098,0.07923231273889542,9.20792007446289,0.27811872959136963,-3.163292169570923
1403715524097143000,-0.0006036609411239624,0.018555618822574615,0.07854000478982925,9.265060424804688,0.31896737217903137,-3.179713010787964
1403715524102143000,-0.0013122856616973877,0.02273217961192131,0.0785336121916771,9.199678421020508,0.27812254428863525,-3.1714391708374023
1403715524107143000,-0.002698048949241638,0.018554983660578728,0.07645066827535629,9.240456581115723,0.35984906554222107,-3.212437152862549
1403715524112143000,-0.0027042925357818604,0.02134043164551258,0.07923727482557297,9.224099159240723,0.3434985876083374,-3.220555067062378
1403715524117143000,-0.0034034550189971924,0.01854804903268814,0.08063460141420364,9.191521644592285,0.33532625436782837,-3.179710626602173
1403715524122143000,-0.002710297703742981,0.02482384443283081,0.07992944866418839,9.19959545135498,0.30264177918434143,-3.204134941101074
1403715524127143000,-0.0006037503480911255,0.02204517088830471,0.07644898444414139,9.264967918395996,0.3353206217288971,-3.196059465408325
1403715524132143000,-0.0027035772800445557,0.018550265580415726,0.08133066445589066,9.224194526672363,0.3271403908729553,-3.187875509262085
1403715524137143000,-0.0020055025815963745,0.01924748159945011,0.08202100545167923,9.273165702819824,0.3026183545589447,-3.228677988052368
1403715524142143000,-0.0013108998537063599,0.023432675749063492,0.07993332296609879,9.224105834960938,0.3271529972553253,-3.212352991104126
1403715524147143000,-0.0013005733489990234,0.01995120197534561,0.07574809342622757,9.289402961730957,0.3435060381889343,-3.253248929977417
1403715524152143000,-0.0006077885627746582,0.022738665342330933,0.07783634215593338,9.273131370544434,0.29445651173591614,-3.2123258113861084
1403715524157143000,-0.0006024539470672607,0.019954737275838852,0.0792473778128624,9.256853103637695,0.376168429851532,-3.1797945499420166
1403715524162143000,-0.0020086169242858887,0.02064025029540062,0.07922988384962082,9.232306480407715,0.29446959495544434,-3.2204837799072266
1403715524167143000,-0.0020001977682113647,0.0185551680624485,0.07645001262426376,9.22423267364502,0.3189829885959625,-3.1470377445220947
1403715524172143000,-0.0027045756578445435,0.021339192986488342,0.07852952927350998,9.24866771697998,0.261771023273468,-3.19594407081604
1403715524177143000,-0.0026974231004714966,0.020648635923862457,0.07714670151472092,9.26492977142334,0.35166868567466736,-3.2205915451049805
1403715524182143000,-0.001999601721763611,0.019950583577156067,0.0785365030169487,9.281373977661133,0.2944395840167999,-3.179680347442627
1403715524187143000,-0.0026969611644744873,0.021347276866436005,0.07714695483446121,9.256834030151367,0.3271430730819702,-3.1715524196624756
1403715524192143000,8.653104305267334e-05,0.021340683102607727,0.07853759080171585,9.22415542602539,0.31898343563079834,-3.2041800022125244
1403715524197143000,0.0021893829107284546,0.019953832030296326,0.07714547961950302,9.281394004821777,0.31896349787712097,-3.17970871925354
1403715524202143000,0.0021786391735076904,0.02064180001616478,0.07783710211515427,9.216033935546875,0.29447051882743835,-3.1959712505340576
1403715524207143000,0.0007924735546112061,0.017161382362246513,0.08063448220491409,9.281411170959473,0.33529967069625854,-3.196074962615967
1403715524212143000,-0.0006091147661209106,0.01925041899085045,0.08273135870695114,9.224231719970703,0.3516462743282318,-3.1715712547302246
1403715524217143000,-0.0006045550107955933,0.0206488985568285,0.07923898845911026,9.265035629272461,0.3271329998970032,-3.179715871810913
1403715524222143000,-0.002000778913497925,0.022740334272384644,0.07644180208444595,9.273148536682129,0.2862842381000519,-3.187821388244629
1403715524227143000,-0.0013023167848587036,0.01925228163599968,0.07993268221616745,9.281371116638184,0.3107869029045105,-3.1960344314575195
1403715524232143000,-0.0054935067892074585,0.020642714574933052,0.07922934740781784,9.248695373535156,0.2617611885070801,-3.163287401199341
1403715524237143000,-0.002690538763999939,0.017164845019578934,0.07575026899576187,9.297715187072754,0.3189654052257538,-3.179741382598877
1403715524242143000,-0.0020069479942321777,0.024131719022989273,0.07993125170469284,9.240470886230469,0.30262112617492676,-3.187819480895996
1403715524247143000,-0.001990407705307007,0.017167119309306145,0.07296260446310043,9.297667503356934,0.3434985280036926,-3.1961112022399902
1403715524252143000,0.0014855116605758667,0.021343311294913292,0.07783599942922592,9.281288146972656,0.31080663204193115,-3.2450103759765625
1403715524257143000,-0.0012912601232528687,0.01786511391401291,0.0757526382803917,9.338459968566895,0.3598270118236542,-3.236971139907837
1403715524262143000,-0.0006069540977478027,0.022041471675038338,0.0764409676194191,9.264993667602539,0.2862869203090668,-3.195984125137329
1403715524267143000,-0.001996845006942749,0.021349415183067322,0.07645121961832047,9.273131370544434,0.3516618311405182,-3.1960954666137695
1403715524272143000,-0.002007514238357544,0.022734973579645157,0.07853614538908005,9.22412395477295,0.310809850692749,-3.2041678428649902
1403715524277143000,-0.0026956945657730103,0.017859064042568207,0.07644858211278915,9.256865501403809,0.3271518349647522,-3.179733991622925
1403715524282143000,-0.0027064532041549683,0.019243452697992325,0.0743425264954567,9.207794189453125,0.2699853777885437,-3.220449924468994
1403715524287143000,-0.001300811767578125,0.019253863021731377,0.07226302474737167,9.224183082580566,0.3190028667449951,-3.1633715629577637
1403715524292143000,-0.0006134957075119019,0.02203681692481041,0.08063233643770218,9.199703216552734,0.3107970654964447,-3.163323402404785
1403715524297143000,-0.001994803547859192,0.021349817514419556,0.07505323737859726,9.297590255737305,0.34349194169044495,-3.220588445663452
1403715524302143000,-0.003400266170501709,0.01924721524119377,0.0771368071436882,9.24050235748291,0.2781246602535248,-3.1959784030914307
1403715524307143000,-0.0019950121641159058,0.01646418869495392,0.07225873321294785,9.281282424926758,0.3271763026714325,-3.236912250518799
1403715524312143000,-0.0020040422677993774,0.020644860342144966,0.07923544198274612,9.248652458190918,0.3189702033996582,-3.2041985988616943
1403715524317143000,-0.0026995837688446045,0.01715780422091484,0.07714652270078659,9.224188804626465,0.3353300988674164,-3.1879019737243652
1403715524322143000,-0.00340484082698822,0.017847899347543716,0.0813208594918251,9.232345581054688,0.28629007935523987,-3.2204809188842773
1403715524327143000,-0.00269433856010437,0.01925676316022873,0.08063855022192001,9.281378746032715,0.3516375720500946,-3.1716039180755615
1403715524332143000,8.596479892730713e-05,0.01994386315345764,0.07783470302820206,9.224220275878906,0.2699493169784546,-3.1796140670776367
1403715524337143000,-0.0005944967269897461,0.017866546288132668,0.07575755566358566,9.297720909118652,0.3598242402076721,-3.171628952026367
1403715524342143000,-0.0013108104467391968,0.021337339654564857,0.07713102549314499,9.240503311157227,0.24543924629688263,-3.204078435897827
1403715524347143000,-0.0054854899644851685,0.015764497220516205,0.07853517681360245,9.29769515991211,0.30262047052383423,-3.204221725463867
1403715524352143000,-0.004801243543624878,0.02063850685954094,0.08271826058626175,9.23229694366455,0.30262288451194763,-3.2204954624176025
1403715524357143000,-0.004090264439582825,0.021348290145397186,0.07575159519910812,9.28123664855957,0.351667582988739,-3.22059965133667
1403715524362143000,-0.006195366382598877,0.024826515465974808,0.07853501290082932,9.207778930664062,0.28628847002983093,-3.1632943153381348
1403715524367143000,-0.003394901752471924,0.017857331782579422,0.07505304366350174,9.240485191345215,0.335336834192276,-3.196075201034546
1403715524372143000,-0.0013078749179840088,0.021341945976018906,0.07923652976751328,9.224190711975098,0.31079763174057007,-3.171506404876709
1403715524377143000,0.0007876306772232056,0.018552633002400398,0.07714342325925827,9.232364654541016,0.3189857006072998,-3.1960299015045166
1403715524382143000,8.113682270050049e-05,0.02342894673347473,0.07853297144174576,9.19150161743164,0.2781286835670471,-3.179595708847046
1403715524387143000,0.0014918893575668335,0.017161449417471886,0.07574591785669327,9.2976713180542,0.3189822733402252,-3.236889362335205
1403715524392143000,-0.0006096959114074707,0.021342124789953232,0.07784194499254227,9.207897186279297,0.2944580316543579,-3.138808250427246
1403715524397143000,-0.0013005882501602173,0.01925329491496086,0.07853663712739944,9.297675132751465,0.3107891082763672,-3.2123751640319824
1403715524402143000,-0.0006157159805297852,0.02203403413295746,0.08271721750497818,9.224217414855957,0.2699264585971832,-3.1795969009399414
1403715524407143000,-0.0020004212856292725,0.017856083810329437,0.07784049957990646,9.264989852905273,0.32715097069740295,-3.220560312271118
1403715524412143000,-0.0026969164609909058,0.01995168998837471,0.07645056396722794,9.232386589050293,0.31897231936454773,-3.1388680934906006
1403715524417143000,-0.003390684723854065,0.02065105363726616,0.07853668183088303,9.322169303894043,0.3026019334793091,-3.1960413455963135
1403715524422143000,9.496510028839111e-05,0.019254274666309357,0.07644685357809067,9.273174285888672,0.32714805006980896,-3.2042229175567627
1403715524427143000,-0.0026912689208984375,0.019258081912994385,0.07435759156942368,9.281333923339844,0.3353196680545807,-3.1797523498535156
1403715524432143000,-0.002000853419303894,0.021345485001802444,0.07853797823190689,9.26502799987793,0.30261704325675964,-3.171513319015503
1403715524437143000,-0.001992464065551758,0.021350964903831482,0.07225801795721054,9.313952445983887,0.30263552069664,-3.2042057514190674
1403715524442143000,-0.0027000904083251953,0.019950013607740402,0.08133435994386673,9.240560531616211,0.33530038595199585,-3.1552233695983887
1403715524447143000,-0.0047883689403533936,0.022043904289603233,0.07155463844537735,9.289421081542969,0.2699601948261261,-3.204148530960083
1403715524452143000,-0.0033965706825256348,0.02064741961658001,0.0785377249121666,9.256881713867188,0.2944456934928894,-3.1551709175109863
1403715524457143000,-0.004093438386917114,0.022740526124835014,0.07853438705205917,9.297608375549316,0.302614688873291,-3.212352991104126
1403715524462143000,-0.0006084144115447998,0.02064545266330242,0.07993217557668686,9.256853103637695,0.3107921779155731,-3.196014404296875
1403715524467143000,-0.0006042718887329102,0.022741757333278656,0.07435006648302078,9.273120880126953,0.3026368319988251,-3.204177141189575
1403715524472143000,0.001486167311668396,0.02274174988269806,0.08063653856515884,9.2487154006958,0.335297167301178,-3.1633734703063965
1403715524477143000,-0.0013016164302825928,0.019254155457019806,0.08272743970155716,9.289558410644531,0.33528265357017517,-3.187906503677368
1403715524482143000,-0.0013115853071212769,0.020640920847654343,0.0820263996720314,9.2160005569458,0.3271438777446747,-3.204188585281372
1403715524487143000,-0.001306787133216858,0.02273799106478691,0.08272118121385574,9.289462089538574,0.3189510107040405,-3.2286911010742188
1403715524492143000,-0.000612407922744751,0.01924625039100647,0.08411496132612228,9.256877899169922,0.3026101589202881,-3.2123332023620605
1403715524497143000,-0.004094600677490234,0.01994820311665535,0.0778372511267662,9.273134231567383,0.3026309907436371,-3.2123591899871826
1403715524502143000,-0.0033944398164749146,0.01785673387348652,0.07644195109605789,9.273198127746582,0.28628650307655334,-3.1878461837768555
1403715524507143000,-0.004791691899299622,0.022740280255675316,0.07505045086145401,9.256726264953613,0.3271598815917969,-3.2123847007751465
1403715524512143000,-0.0006033331155776978,0.016463175415992737,0.07714762538671494,9.256847381591797,0.35167044401168823,-3.212433099746704
1403715524517143000,-0.0006071925163269043,0.019948609173297882,0.07574870437383652,9.240452766418457,0.33533939719200134,-3.2205562591552734
1403715524522143000,-0.003391847014427185,0.019255641847848892,0.0750550702214241,9.264967918395996,0.3435002863407135,-3.1960935592651367
1403715524527143000,-0.004798173904418945,0.021338393911719322,0.0764385387301445,9.232240676879883,0.29448410868644714,-3.2286570072174072
1403715524532143000,-0.001991376280784607,0.018561549484729767,0.07365838438272476,9.305815696716309,0.33532318472862244,-3.204263925552368
1403715524537143000,-0.0033963918685913086,0.02204199880361557,0.07644092291593552,9.281274795532227,0.2944594919681549,-3.2123420238494873
1403715524542143000,-0.004095986485481262,0.019249973818659782,0.07853884249925613,9.240501403808594,0.3189775049686432,-3.1878767013549805
1403715524547143000,-0.004796579480171204,0.021340657025575638,0.08062926679849625,9.248616218566895,0.3189689815044403,-3.212367057800293
1403715524552143000,-0.0027009248733520508,0.021343477070331573,0.0799345001578331,9.264932632446289,0.3434883654117584,-3.228736639022827
1403715524557143000,-0.0013107210397720337,0.024828607216477394,0.08202335983514786,9.248638153076172,0.30261170864105225,-3.1959850788116455
1403715524562143000,-0.0006102770566940308,0.019945861771702766,0.07923472672700882,9.232354164123535,0.31080639362335205,-3.1960127353668213
1403715524567143000,-0.0020103156566619873,0.019941255450248718,0.07574396580457687,9.191400527954102,0.3271911144256592,-3.2450191974639893
1403715524572143000,-0.005485221743583679,0.016463130712509155,0.07853957265615463,9.29762077331543,0.3434877097606659,-3.2369446754455566
1403715524577143000,-0.0006089657545089722,0.02134227752685547,0.07783735543489456,9.24866771697998,0.2944604456424713,-3.1959917545318604
1403715524582143000,9.782612323760986e-05,0.020651545375585556,0.07365403324365616,9.297637939453125,0.31080976128578186,-3.2123749256134033
1403715524587143000,-0.0006063133478164673,0.022739410400390625,0.079926036298275,9.313982963562012,0.27808961272239685,-3.22047758102417
1403715524592143000,-0.0026871860027313232,0.014375204220414162,0.07644843310117722,9.33034896850586,0.3434821665287018,-3.2287979125976562
1403715524597143000,0.0014870315790176392,0.022042356431484222,0.07992983609437943,9.297669410705566,0.30260974168777466,-3.220507860183716
1403715524602143000,-0.0013037025928497314,0.020645659416913986,0.08132053166627884,9.322159767150879,0.2862599194049835,-3.236832618713379
1403715524607143000,-0.0027010589838027954,0.022041212767362595,0.07784172147512436,9.240476608276367,0.31897497177124023,-3.187863349914551
1403715524612143000,-0.004085943102836609,0.02135000005364418,0.07505058497190475,9.330215454101562,0.33531588315963745,-3.2450900077819824
1403715524617143000,-0.00200827419757843,0.023432521149516106,0.08132516592741013,9.248614311218262,0.31079378724098206,-3.220501661300659
1403715524622143000,-0.0020027905702590942,0.025530755519866943,0.07784096151590347,9.281187057495117,0.3434915244579315,-3.245058536529541
1403715524627143000,-0.0013076215982437134,0.019248001277446747,0.08062680810689926,9.256866455078125,0.2944495677947998,-3.2041661739349365
1403715524632143000,0.00010067224502563477,0.019258301705121994,0.07574871927499771,9.330315589904785,0.32713738083839417,-3.228745937347412
1403715524637143000,-0.002009078860282898,0.022035513073205948,0.07923085242509842,9.21601390838623,0.27811700105667114,-3.179619312286377
1403715524642143000,-0.0033915340900421143,0.01786012202501297,0.07784280925989151,9.289519309997559,0.32713672518730164,-3.196080446243286
1403715524647143000,-0.0006155073642730713,0.02133653312921524,0.08201730996370316,9.23239803314209,0.2535838484764099,-3.1795809268951416
1403715524652143000,9.556114673614502e-05,0.018556874245405197,0.07923746854066849,9.297679901123047,0.33530476689338684,-3.2205770015716553
1403715524657143000,-0.0006086230278015137,0.019948434084653854,0.0820319727063179,9.232402801513672,0.33529776334762573,-3.1633810997009277
1403715524662143000,-0.0027008652687072754,0.019248969852924347,0.07713878899812698,9.256807327270508,0.3026420772075653,-3.22051739692688
1403715524667143000,-0.0020007342100143433,0.02134682983160019,0.08063731342554092,9.256855964660645,0.3434707820415497,-3.171570301055908
1403715524672143000,-0.0020039528608322144,0.020645488053560257,0.08133053034543991,9.24868392944336,0.3271311819553375,-3.187875509262085
1403715524677143000,9.79304313659668e-05,0.01995576173067093,0.07784486562013626,9.289580345153809,0.31895291805267334,-3.1552164554595947
1403715524682143000,-0.0013058334589004517,0.023435652256011963,0.07783345133066177,9.281294822692871,0.2781100571155548,-3.2123005390167236
1403715524687143000,-0.0020045191049575806,0.019946463406085968,0.0778394564986229,9.224212646484375,0.29446345567703247,-3.1633224487304688
1403715524692143000,-0.0026961714029312134,0.021346483379602432,0.07783935219049454,9.297616958618164,0.31896400451660156,-3.2205488681793213
1403715524697143000,-0.004091113805770874,0.01785890944302082,0.0771467462182045,9.256865501403809,0.3271443843841553,-3.1715688705444336
1403715524702143000,-0.004096359014511108,0.01855063997209072,0.07434675842523575,9.240449905395508,0.2944882810115814,-3.220508098602295
1403715524707143000,0.00010246038436889648,0.012980960309505463,0.07645178586244583,9.28964900970459,0.335310697555542,-3.163437604904175
1403715524712143000,-0.003395169973373413,0.01925102062523365,0.07295028120279312,9.264986991882324,0.2699619233608246,-3.1959824562072754
1403715524717143000,-0.002695798873901367,0.016462214291095734,0.07714269310235977,9.273194313049316,0.3189757764339447,-3.2042291164398193
1403715524722143000,-0.0034047365188598633,0.020639877766370773,0.08062764257192612,9.215994834899902,0.3026302456855774,-3.195992946624756
1403715524727143000,-0.004795148968696594,0.018550675362348557,0.07714354246854782,9.224117279052734,0.33533674478530884,-3.2123963832855225
1403715524732143000,-0.0013061314821243286,0.02273794636130333,0.07644177228212357,9.24863338470459,0.2944638133049011,-3.1959874629974365
1403715524737143000,0.0008002817630767822,0.015773583203554153,0.07924764603376389,9.305933952331543,0.37615516781806946,-3.179823398590088
1403715524742143000,-0.004100382328033447,0.024130070582032204,0.07992652803659439,9.264906883239746,0.2944542467594147,-3.2286505699157715
1403715524747143000,-0.001299142837524414,0.01995343156158924,0.07714632898569107,9.28133487701416,0.33531442284584045,-3.1960761547088623
1403715524752143000,-0.0006134659051895142,0.0213384460657835,0.07992970198392868,9.216035842895508,0.286286860704422,-3.179628849029541
1403715524757143000,-0.0033866465091705322,0.018561875447630882,0.07575159519910812,9.30588150024414,0.31896159052848816,-3.163409471511841
1403715524762143000,-0.0020003169775009155,0.01855461671948433,0.07714232057332993,9.24875259399414,0.2862791121006012,-3.14699649810791
1403715524767143000,-0.006889402866363525,0.024131450802087784,0.07644306868314743,9.240340232849121,0.3271659314632416,-3.2287042140960693
1403715524772143000,-0.0068856775760650635,0.025532986968755722,0.0778493657708168,9.224119186401367,0.3434832692146301,-3.1307220458984375
1403715524777143000,-0.002690255641937256,0.019952937960624695,0.06945762783288956,9.354689598083496,0.2699725329875946,-3.277663230895996
1403715524782143000,-0.009691998362541199,0.013675158843398094,0.0806867703795433,9.028105735778809,0.621365487575531,-3.122926950454712
1403715524787143000,-0.021507441997528076,0.01717967726290226,0.0841534212231636,9.45246696472168,0.5641045570373535,-3.3108298778533936
1403715524792143000,-0.027834445238113403,0.024814749136567116,0.08689061552286148,9.223965644836426,0.22090531885623932,-3.163228750228882
1403715524797143000,-0.013902023434638977,0.010850435122847557,0.08824411779642105,9.28153133392334,-0.0978102833032608,-3.130155324935913
1403715524802143000,0.018835648894309998,0.036663904786109924,0.06936352699995041,9.387455940246582,-0.6206810474395752,-3.088644027709961
1403715524807143000,0.05586467683315277,0.012239387258887291,0.07222656160593033,9.00451946258545,-0.08135700225830078,-3.0645828247070312
1403715524812143000,0.06152471899986267,0.02416558377444744,0.04433874040842056,9.600069046020508,0.1882060468196869,-3.3264124393463135
1403715524817143000,0.03764018416404724,0.029806500300765038,0.05286899954080582,8.766632080078125,1.3975895643234253,-3.0581119060516357
1403715524822143000,-0.019572362303733826,0.0019678380340337753,0.08229004591703415,9.387849807739258,1.7892889976501465,-3.507937431335449
1403715524827143000,-0.08719325065612793,0.028360294178128242,0.0961306169629097,9.043845176696777,1.1197901964187622,-3.1973297595977783
1403715524832143000,-0.10951314866542816,0.01221134327352047,0.11126141995191574,9.223305702209473,0.09023885428905487,-3.22035813331604
1403715524837143000,-0.07117702066898346,0.018486492335796356,0.10626513510942459,9.385677337646484,-1.200909972190857,-2.9826176166534424
1403715524842143000,0.0020557641983032227,0.02825044095516205,0.08676662296056747,9.297042846679688,-1.1437158584594727,-3.0805132389068604
1403715524847143000,0.06418067216873169,0.0101415254175663,0.08194238692522049,9.233213424682617,-0.5718030333518982,-2.9662396907806396
1403715524852143000,0.08312466740608215,0.01718144677579403,0.057585470378398895,9.535229682922363,0.12279728055000305,-3.3018200397491455
1403715524857143000,0.07679620385169983,0.04371045529842377,0.07445643097162247,9.093365669250488,0.9319325089454651,-3.221234083175659
1403715524862143000,0.03772902488708496,0.016515016555786133,0.07586856931447983,9.109739303588867,1.0463039875030518,-3.2623207569122314
1403715524867143000,0.0043035149574279785,0.03676596283912659,0.08774694055318832,9.615396499633789,1.127855896949768,-3.450197219848633
1403715524872143000,-0.032780811190605164,0.031060708686709404,0.09258108586072922,8.627553939819336,0.8174205422401428,-3.05766224861145
1403715524877143000,-0.046533823013305664,0.010878171771764755,0.09461504966020584,9.974761962890625,0.5477172136306763,-3.474097967147827
1403715524882143000,-0.05997578799724579,0.05541272461414337,0.08761508017778397,8.545629501342773,0.22922326624393463,-2.8360769748687744
1403715524887143000,-0.0445806086063385,-0.005889870226383209,0.08473687618970871,9.56699275970459,-0.08961755782365799,-3.416278839111328
1403715524892143000,-0.016725510358810425,0.05621100962162018,0.07005947083234787,9.427498817443848,-0.5144563913345337,-2.990576982498169
1403715524897143000,0.020243912935256958,0.004505481570959091,0.0749867632985115,8.751154899597168,-0.37534621357917786,-3.056051015853882
1403715524902143000,0.049609243869781494,0.026940878480672836,0.06033656746149063,9.722743034362793,-0.21243053674697876,-3.2606613636016846
1403715524907143000,0.05798439681529999,0.025521542876958847,0.0674060806632042,8.930481910705566,0.4252910017967224,-3.073380470275879
1403715524912143000,0.04405088722705841,0.012320986948907375,0.06396759301424026,9.321859359741211,0.8911035656929016,-3.409064769744873
1403715524917143000,0.011270478367805481,0.03606407716870308,0.07026676088571548,9.321922302246094,0.8500995635986328,-3.1641013622283936
1403715524922143000,-0.01599729061126709,0.030468637123703957,0.07935666292905807,9.174498558044434,1.0625656843185425,-3.3359739780426025
1403715524927143000,-0.043873220682144165,0.02622520551085472,0.08763984590768814,9.15848159790039,0.4905882775783539,-3.114671468734741
1403715524932143000,-0.05086591839790344,0.032481543719768524,0.09526554495096207,9.215478897094727,0.28627774119377136,-3.1878411769866943
1403715524937143000,-0.04183606803417206,0.016388846561312675,0.09731946140527725,8.954550743103027,-0.11401553452014923,-3.0237619876861572
1403715524942143000,-0.013241514563560486,0.011540059000253677,0.09657921642065048,9.387624740600586,-0.3675147593021393,-3.1706759929656982
1403715524947143000,0.013990938663482666,0.022014714777469635,0.07358623296022415,9.240788459777832,-0.2366410791873932,-3.1298696994781494
1403715524952143000,0.036341190338134766,0.002489343285560608,0.07221337407827377,9.208581924438477,-0.07323327660560608,-3.1464641094207764
1403715524957143000,0.04478614032268524,0.025563586503267288,0.06459371000528336,9.600090026855469,0.32701224088668823,-3.2449991703033447
1403715524962143000,0.037056609988212585,0.024149594828486443,0.07161466032266617,9.07713508605957,0.64589524269104,-3.2045295238494873
1403715524967143000,0.019650697708129883,0.02349252812564373,0.07723423093557358,9.436219215393066,0.8664625287055969,-3.327467918395996
1403715524972143000,-0.00829644501209259,0.03045285865664482,0.08909644931554794,9.166802406311035,0.8255974054336548,-3.1477763652801514
1403715524977143000,-0.03202022612094879,0.01577034406363964,0.0869675949215889,9.125787734985352,0.6867160201072693,-3.237480401992798
1403715524982143000,-0.04246222972869873,0.018548671156167984,0.08271532505750656,9.346359252929688,0.27811509370803833,-3.187950849533081
1403715524987143000,-0.03832526504993439,0.01852262020111084,0.07357218116521835,9.313715934753418,-0.19570249319076538,-3.2444188594818115
1403715524992143000,-0.007643595337867737,0.02131613716483116,0.06728451699018478,9.322175025939941,-0.34277305006980896,-3.2360172271728516
1403715524997143000,0.034244418144226074,0.02970978058874607,0.07360418885946274,9.371557235717773,-0.09783671796321869,-3.1790263652801514
1403715525002143000,0.04193441569805145,0.03600108250975609,0.08415967971086502,9.14256763458252,0.5396155118942261,-3.196197032928467
1403715525007143000,0.014688462018966675,0.027018819004297256,0.08847159892320633,9.183361053466797,1.2177941799163818,-3.189114809036255
1403715525012143000,-0.030686289072036743,0.017225729301571846,0.10591845959424973,9.036381721496582,1.1933537721633911,-3.140125036239624
1403715525017143000,-0.07668326795101166,0.015067944303154945,0.08069813996553421,9.157774925231934,0.7848154902458191,-3.352078914642334
1403715525022143000,-0.0697205662727356,0.0094493068754673,0.08821498602628708,9.460494995117188,-0.19583049416542053,-3.1792337894439697
1403715525027143000,-0.03699137270450592,0.03105272352695465,0.0756150558590889,9.23976993560791,-0.8165808320045471,-3.0804247856140137
1403715525032143000,0.036246657371520996,0.01778537780046463,0.05676036328077316,9.362961769104004,-1.2171722650527954,-3.18695330619812
1403715525037143000,0.1012214720249176,0.039499491453170776,0.07152407616376877,9.380377769470215,-0.13885504007339478,-2.941988229751587
1403715525042143000,0.10609644651412964,0.026970157399773598,0.064008928835392,8.938384056091309,1.062857747077942,-3.139572858810425
1403715525047143000,0.06272271275520325,0.000557655468583107,0.06340386718511581,9.077973365783691,1.7404329776763916,-3.2546162605285645
1403715525052143000,-0.020229458808898926,0.008933713659644127,0.07178766280412674,9.297653198242188,1.5852185487747192,-3.385425329208374
1403715525057143000,-0.06687332689762115,0.008816991001367569,0.08001915365457535,9.337634086608887,0.8175280094146729,-3.3521549701690674
1403715525062143000,-0.07458114624023438,0.015738023445010185,0.0938839539885521,9.256020545959473,0.43342727422714233,-3.3270421028137207
1403715525067143000,-0.0634477436542511,0.02758888527750969,0.09241031855344772,9.36241626739502,-0.13863255083560944,-3.1301023960113525
1403715525072143000,-0.034189775586128235,0.01778257265686989,0.09797970205545425,9.052462577819824,-0.44899868965148926,-3.0070533752441406
1403715525077143000,-0.0055614858865737915,0.013623520731925964,0.07845283299684525,9.15904712677002,-0.3100661039352417,-3.195160150527954
1403715525082143000,0.0321308970451355,0.009464379400014877,0.08753437548875809,9.363687515258789,-0.2858714759349823,-2.9910664558410645
1403715525087143000,0.04817913472652435,0.014355596154928207,0.07428625971078873,9.380064010620117,-0.21221886575222015,-3.244274616241455
1403715525092143000,0.061521559953689575,0.014395189471542835,0.06599906831979752,9.518453598022461,0.4578903019428253,-3.3512957096099854
1403715525097143000,0.055193498730659485,0.03463778644800186,0.09328300505876541,9.216248512268066,0.8010674715042114,-3.1394472122192383
1403715525102143000,0.009082794189453125,0.02003950998187065,0.08988245576620102,9.199560165405273,1.3485242128372192,-3.352637767791748
1403715525107143000,-0.03196971118450165,0.02492566406726837,0.08983445912599564,9.444534301757812,0.9972167015075684,-3.156256675720215
1403715525112143000,-0.06137417256832123,0.034553706645965576,0.09745267778635025,8.758179664611816,0.7030998468399048,-2.9840826988220215
1403715525117143000,-0.06829960644245148,0.001778891310095787,0.08338183909654617,9.280940055847168,0.1311120092868805,-3.228677749633789
1403715525122143000,-0.042526692152023315,0.018524784594774246,0.08192142099142075,9.485100746154785,-0.3674224019050598,-3.187098503112793
1403715525127143000,-0.009044691920280457,0.026892997324466705,0.07007711380720139,9.264951705932617,-0.3182307183742523,-3.227799892425537
1403715525132143000,0.02653557062149048,0.02550317347049713,0.06380770355463028,9.257177352905273,-0.35913360118865967,-3.1542258262634277
1403715525137143000,0.04472663998603821,0.03879179805517197,0.07223745435476303,9.338842391967773,0.09008471667766571,-3.130208969116211
1403715525142143000,0.04612600803375244,0.02553565427660942,0.06252375990152359,9.020002365112305,0.5315486192703247,-3.1879560947418213
1403715525147143000,0.0357147753238678,0.0046573542058467865,0.06744501739740372,9.371512413024902,0.6949015259742737,-3.1802330017089844
1403715525152143000,0.010532990097999573,0.01927849091589451,0.07094527035951614,9.027912139892578,0.8256590366363525,-3.204854965209961
1403715525157143000,-0.022211775183677673,0.005348406732082367,0.07444209605455399,9.329987525939941,0.8338310718536377,-3.2949085235595703
1403715525162143000,-0.04104416072368622,0.022748883813619614,0.08483832329511642,9.468524932861328,0.4987412095069885,-3.3352580070495605
1403715525167143000,-0.053652793169021606,0.026899151504039764,0.08689757436513901,9.174646377563477,0.29449811577796936,-3.1878902912139893
1403715525172143000,-0.036940813064575195,0.028275394812226295,0.09522555023431778,9.134112358093262,-0.04872490465641022,-3.0810649394989014
1403715525177143000,-0.013945221900939941,0.019204601645469666,0.09030187875032425,9.248651504516602,-0.43277451395988464,-3.0561673641204834
1403715525182143000,0.014673709869384766,0.016411010175943375,0.08335543423891068,9.07760238647461,-0.26111894845962524,-3.1134297847747803
1403715525187143000,0.0328727662563324,0.011573858559131622,0.0889764204621315,9.396199226379395,0.15542149543762207,-3.2529280185699463
1403715525192143000,0.033591240644454956,0.014384058304131031,0.08344481140375137,9.33067512512207,0.44966450333595276,-3.2206838130950928
1403715525197143000,0.0147562175989151,0.02279277890920639,0.08002150803804398,9.34653377532959,0.8255940675735474,-3.2457737922668457
1403715525202143000,-0.01034003496170044,0.017895959317684174,0.0911518856883049,9.452818870544434,0.6457725763320923,-3.1965997219085693
1403715525207143000,-0.02366332709789276,0.01921616867184639,0.08897293359041214,9.109837532043457,0.09834031015634537,-3.097653388977051
1403715525212143000,-0.002064049243927002,0.01362832635641098,0.08823122829198837,9.20811939239502,-0.27755942940711975,-3.0808424949645996
1403715525217143000,0.03351101279258728,0.011555854231119156,0.07217175513505936,9.404447555541992,-0.39194560050964355,-3.276820659637451
1403715525222143000,0.04754665493965149,0.02485140971839428,0.06388936191797256,9.306292533874512,0.24540983140468597,-3.1059858798980713
1403715525227143000,0.036375418305397034,0.018605874851346016,0.057694293558597565,9.346068382263184,0.9401479363441467,-3.441779136657715
1403715525232143000,-0.0027720630168914795,0.03125707805156708,0.06408611685037613,9.313629150390625,1.4952976703643799,-3.3526313304901123
1403715525237143000,-0.062104836106300354,0.032599080353975296,0.0843128189444542,9.07671070098877,1.3810771703720093,-3.271071434020996
1403715525242143000,-0.10180792212486267,0.0178507249802351,0.0869954451918602,9.060104370117188,0.7521994113922119,-3.1070148944854736
1403715525247143000,-0.09210848808288574,0.020564977079629898,0.11122802644968033,9.060006141662598,-0.32639241218566895,-2.974504232406616
1403715525252143000,-0.05026449263095856,0.005226019769906998,0.09023820608854294,9.296894073486328,-1.0865527391433716,-3.252314805984497
1403715525257143000,0.02231024205684662,0.01781754195690155,0.09025158733129501,9.477045059204102,-0.8822663426399231,-2.8845620155334473
1403715525262143000,0.06283947825431824,0.020642027258872986,0.06662512570619583,9.363662719726562,-0.08956579118967056,-3.317826509475708
1403715525267143000,0.07754607498645782,0.018582554534077644,0.04926513880491257,9.11838436126709,0.48255178332328796,-3.097994565963745
1403715525272143000,0.06217074394226074,0.03119475021958351,0.0751836821436882,9.338561058044434,1.0789169073104858,-3.2214958667755127
1403715525277143000,0.017530739307403564,0.022113800048828125,0.07097838073968887,9.248517036437988,0.9645258188247681,-3.2050838470458984
1403715525282143000,-0.01603621244430542,0.02838512510061264,0.09474534541368484,9.027976989746094,1.1932854652404785,-3.1972925662994385
1403715525287143000,-0.052951499819755554,0.006001906469464302,0.09116613119840622,9.077033042907715,0.6622234582901001,-3.082272529602051
1403715525292143000,-0.05644242465496063,0.012262416072189808,0.10716185718774796,9.19948673248291,0.4660625159740448,-3.106503486633301
1403715525297143000,-0.06132631003856659,-0.004497462883591652,0.07217393070459366,9.509671211242676,-0.20394787192344666,-3.2365639209747314
1403715525302143000,-0.029246851801872253,0.00944998487830162,0.08057663589715958,9.191534996032715,-0.06499820202589035,-3.081209659576416
1403715525307143000,7.68899917602539e-06,0.008744273334741592,0.06586193293333054,9.363059043884277,-0.6369501352310181,-3.0888986587524414
1403715525312143000,0.03494881093502045,0.008784720674157143,0.06451829522848129,9.502372741699219,-0.1549929678440094,-3.2934608459472656
1403715525317143000,0.06217154860496521,0.022044803947210312,0.07014886289834976,9.249394416809082,0.09829408675432205,-3.0893924236297607
1403715525322143000,0.05521368980407715,0.012307049706578255,0.07441937178373337,9.19182014465332,0.7031069993972778,-3.1882987022399902
1403715525327143000,0.028645604848861694,0.0032453052699565887,0.07656916230916977,8.954672813415527,1.070847749710083,-3.2214534282684326
1403715525332143000,-0.017986327409744263,0.0004951674491167068,0.07517354935407639,9.534278869628906,0.9727400541305542,-3.31957745552063
1403715525337143000,-0.04247094690799713,0.021364331245422363,0.08139541000127792,9.304898262023926,0.7929825782775879,-3.4091484546661377
1403715525342143000,-0.05574430525302887,0.006666266359388828,0.08203237503767014,9.084966659545898,0.39259347319602966,-3.1962673664093018
1403715525347143000,-0.0438811331987381,0.025507692247629166,0.09242609888315201,9.542131423950195,0.0329086109995842,-3.375352144241333
1403715525352143000,-0.023006141185760498,0.029655322432518005,0.08683411031961441,9.036225318908691,-0.23653367161750793,-3.1215882301330566
1403715525357143000,0.003517448902130127,0.019909951835870743,0.08404921740293503,9.18359088897705,-0.212106853723526,-3.1707165241241455
1403715525362143000,0.023775652050971985,0.029689325019717216,0.0715271458029747,9.085613250732422,-0.007815673016011715,-3.0892136096954346
1403715525367143000,0.039846569299697876,0.004589758813381195,0.07922663539648056,9.1513090133667,0.20459142327308655,-3.1712758541107178
1403715525372143000,0.02943834662437439,0.017887279391288757,0.06320901960134506,9.52636432647705,0.4251765012741089,-3.302351236343384
1403715525377143000,0.023106932640075684,0.024157749488949776,0.07371611148118973,9.126054763793945,0.686734139919281,-3.2046566009521484
1403715525382143000,0.004312768578529358,0.019998392090201378,0.07442954927682877,9.444331169128418,0.7765854597091675,-3.3192288875579834
1403715525387143000,-0.01803092658519745,0.030450064688920975,0.07232629507780075,9.3297119140625,0.7193998694419861,-3.286513090133667
1403715525392143000,-0.029226243495941162,0.029704974964261055,0.08413494378328323,9.134001731872559,0.41704949736595154,-3.155346155166626
1403715525397143000,-0.018785789608955383,0.017818564549088478,0.09105648845434189,9.11812973022461,-0.016055932268500328,-3.007629632949829
1403715525402143000,-0.007612302899360657,0.01014397107064724,0.08270347863435745,9.012136459350586,0.0657181367278099,-2.991386890411377
1403715525407143000,-0.01106119155883789,-0.007253061980009079,0.07576411217451096,9.256800651550293,0.48246920108795166,-3.3107099533081055
1403715525412143000,-0.021518617868423462,0.011594090610742569,0.0757860466837883,9.411275863647461,0.6540959477424622,-3.4497230052948
1403715525417143000,-0.03619585931301117,0.012258931994438171,0.07153993099927902,9.231976509094238,0.2455226331949234,-3.269541025161743
1403715525422143000,-0.026479780673980713,0.032476432621479034,0.0889185443520546,9.35453987121582,-0.17130759358406067,-3.285114049911499
1403715525427143000,0.011162176728248596,0.0226864293217659,0.07773479074239731,9.19962215423584,-0.6614838242530823,-2.9008030891418457
1403715525432143000,0.060689300298690796,0.021989859640598297,0.08125319331884384,9.118712425231934,-0.5880681872367859,-2.9334330558776855
1403715525437143000,0.09704363346099854,0.01227094978094101,0.06804559379816055,9.20908260345459,-0.05697669833898544,-3.064661979675293
1403715525442143000,0.08448979258537292,-0.00580291822552681,0.06053214520215988,9.0774564743042,1.1772109270095825,-3.23781681060791
1403715525447143000,0.023653104901313782,0.008971720933914185,0.06483230739831924,9.379986763000488,1.8868799209594727,-3.450601577758789
1403715525452143000,-0.04742202162742615,0.011006414890289307,0.07247521728277206,9.289083480834961,1.4954679012298584,-3.409928798675537
1403715525457143000,-0.08568868041038513,0.01997535303235054,0.08210519701242447,9.435470581054688,0.7440271973609924,-3.311267614364624
1403715525462143000,-0.08439692854881287,0.021269522607326508,0.09591919928789139,9.00302791595459,0.00044948459253646433,-3.1138908863067627
1403715525467143000,-0.06556707620620728,0.02060023695230484,0.07911508530378342,9.321390151977539,-0.506142795085907,-3.0480573177337646
1403715525472143000,-0.013244524598121643,0.012230604887008667,0.0909942016005516,9.305838584899902,-0.4573269784450531,-2.9827146530151367
1403715525477143000,0.020948335528373718,0.015042953193187714,0.060299865901470184,9.396010398864746,-0.46536922454833984,-3.2277891635894775
1403715525482143000,0.05171316862106323,0.016460513696074486,0.05620143562555313,9.10217571258545,0.18018154799938202,-3.0813167095184326
1403715525487143000,0.05800288915634155,0.017169227823615074,0.0652693584561348,9.428631782531738,0.2781740725040436,-3.383662462234497
1403715525492143000,0.04197444021701813,0.029756031930446625,0.055556245148181915,9.305770874023438,0.5559895634651184,-3.2044262886047363
1403715525497143000,0.020271509885787964,0.020706819370388985,0.06889495998620987,9.036030769348145,1.1034568548202515,-3.24605393409729
1403715525502143000,-0.012514710426330566,0.01864747703075409,0.07870423048734665,9.240129470825195,1.2668014764785767,-3.3362181186676025
1403715525507143000,-0.04945848882198334,0.03253299370408058,0.09257286041975021,9.207246780395508,0.792930006980896,-3.196845531463623
1403715525512143000,-0.06758919358253479,0.0192435160279274,0.09250687807798386,9.280787467956543,0.4497608244419098,-3.1882400512695312
1403715525517143000,-0.060665011405944824,0.018498985096812248,0.08683899790048599,9.11760139465332,-0.13847900927066803,-3.0810611248016357
1403715525522143000,-0.02930837869644165,0.012203142046928406,0.08959736675024033,9.077095031738281,-0.5061495304107666,-3.1132731437683105
1403715525527143000,0.013271167874336243,0.0059650130569934845,0.08471927791833878,9.412431716918945,-0.44105851650238037,-3.138002872467041
1403715525532143000,0.044023334980010986,0.014365294948220253,0.057558558881282806,9.322675704956055,-0.04865816608071327,-3.2444756031036377
1403715525537143000,0.05660964548587799,0.017871461808681488,0.07088404148817062,9.30608081817627,0.4661225974559784,-3.302279233932495
1403715525542143000,0.040590494871139526,0.025584375485777855,0.06745155900716782,9.469002723693848,0.7765843272209167,-3.310946226119995
1403715525547143000,0.016798168420791626,0.030469277873635292,0.07935335487127304,9.150335311889648,1.0217289924621582,-3.262349843978882
1403715525552143000,-0.020177200436592102,0.017191503196954727,0.08213437348604202,9.011614799499512,0.9073514938354492,-3.139700174331665
1403715525557143000,-0.038284048438072205,0.015778737142682076,0.09184924513101578,9.232028007507324,0.6540176868438721,-3.2048120498657227
1403715525562143000,-0.043896451592445374,0.012238062918186188,0.09664296358823776,9.174994468688965,0.1637216955423355,-3.1876864433288574
1403715525567143000,-0.03481212258338928,0.008067525923252106,0.07638359814882278,9.387353897094727,-0.04052348807454109,-3.26104736328125
1403715525572143000,-0.02156156301498413,0.012253351509571075,0.06522008031606674,9.289454460144043,-0.10582901537418365,-3.1792211532592773
1403715525577143000,0.0007686018943786621,0.017145097255706787,0.051966361701488495,9.265066146850586,-0.12213108688592911,-3.1546292304992676
1403715525582143000,0.02033345401287079,0.017866063863039017,0.06456554681062698,9.387706756591797,0.1718815714120865,-3.212172508239746
1403715525587143000,0.025211602449417114,0.02484630048274994,0.07507019490003586,9.25693416595459,0.43337345123291016,-3.196131706237793
1403715525592143000,0.02099931240081787,0.015753434970974922,0.09045342355966568,8.938644409179688,0.5396189093589783,-3.024627923965454
1403715525597143000,0.0035821497440338135,0.008123226463794708,0.08489295095205307,9.224191665649414,0.7602577209472656,-3.2212090492248535
1403715525602143000,-0.018009081482887268,0.008821199648082256,0.08837559074163437,9.525836944580078,0.7929610013961792,-3.4172801971435547
1403715525607143000,-0.047343283891677856,0.019268888980150223,0.07091660052537918,9.23167610168457,0.6377322673797607,-3.245652437210083
1403715525612143000,-0.05154189467430115,0.020631806924939156,0.05964545160531998,9.395084381103516,-0.03227315470576286,-3.2365617752075195
1403715525617143000,-0.020936042070388794,0.02267538011074066,0.06446803361177444,9.11784553527832,-0.6612494587898254,-3.1703732013702393
1403715525622143000,0.029303908348083496,0.026875387877225876,0.06938184052705765,9.142827987670898,-0.5470507144927979,-3.0233256816864014
1403715525627143000,0.07399560511112213,0.015744943171739578,0.08128676563501358,9.225221633911133,-0.14687083661556244,-3.1380631923675537
1403715525632143000,0.07541334629058838,0.020659154281020164,0.08141150325536728,9.069092750549316,0.8339603543281555,-3.3109183311462402
1403715525637143000,0.03765733540058136,0.014481235295534134,0.07873982936143875,9.150887489318848,1.511894702911377,-3.328204393386841
1403715525642143000,-0.039073094725608826,0.008251991122961044,0.09137839823961258,9.51015567779541,1.7893123626708984,-3.5324032306671143
1403715525647143000,-0.10461992025375366,0.019277291372418404,0.08983688801527023,9.141393661499023,1.0708060264587402,-3.3362009525299072
1403715525652143000,-0.1220424473285675,0.021992947906255722,0.08964533358812332,9.329148292541504,0.08216755092144012,-3.20412015914917
1403715525657143000,-0.07538270950317383,0.01568910852074623,0.10210489481687546,9.239322662353516,-0.955653190612793,-3.1050307750701904
1403715525662143000,-0.008380457758903503,0.0324179008603096,0.08536598831415176,9.116811752319336,-1.2825109958648682,-2.8437979221343994
1403715525667143000,0.06137819588184357,0.009454496204853058,0.08053354173898697,9.396537780761719,-0.6208575963973999,-3.14597749710083
1403715525672143000,0.08519783616065979,0.01926279626786709,0.0554933026432991,9.314681053161621,0.13928072154521942,-3.2690889835357666
1403715525677143000,0.07406064867973328,0.036748096346855164,0.050700657069683075,9.395359992980957,0.7848321795463562,-3.327146530151367
1403715525682143000,0.04467080533504486,0.024934755638241768,0.0549631342291832,9.060617446899414,1.2913318872451782,-3.2053134441375732
1403715525687143000,-0.005538284778594971,0.02840881235897541,0.05844350904226303,9.14998722076416,1.1932271718978882,-3.30338191986084
1403715525692143000,-0.038293153047561646,0.024880673736333847,0.08283161371946335,9.223587989807129,0.9236615896224976,-3.254192590713501
1403715525697143000,-0.06129865348339081,0.012264185585081577,0.08132629841566086,9.346040725708008,0.35987478494644165,-3.302476167678833
1403715525702143000,-0.05853824317455292,0.026195861399173737,0.07921520620584488,9.133796691894531,0.2128455638885498,-3.146942377090454
1403715525707143000,-0.04668261110782623,0.014345206320285797,0.07287495583295822,9.46875,-0.16306908428668976,-3.318075180053711
1403715525712143000,-0.020203396677970886,0.02269197627902031,0.06240273267030716,9.125968933105469,-0.41619396209716797,-2.990854501724243
1403715525717143000,0.021638289093971252,0.026891760528087616,0.06170066446065903,9.265227317810059,-0.4980136752128601,-3.121448278427124
1403715525722143000,0.04888556897640228,0.015049528330564499,0.06732024997472763,9.241219520568848,-0.16311508417129517,-3.1544511318206787
1403715525727143000,0.06009204685688019,0.022053422406315804,0.07157992571592331,9.183869361877441,0.35165196657180786,-3.1142380237579346
1403715525732143000,0.05382545292377472,0.013715926557779312,0.08210980147123337,9.265464782714844,0.7520784735679626,-3.1393914222717285
1403715525737143000,0.020314350724220276,0.011628859676420689,0.07794884592294693,9.297356605529785,1.005453109741211,-3.392988443374634
1403715525742143000,-0.006886079907417297,0.024200445041060448,0.07935058325529099,9.264741897583008,0.9481818675994873,-3.213315486907959
1403715525747143000,-0.042476341128349304,0.02415049448609352,0.0904603824019432,9.207355499267578,0.6948743462562561,-3.2130274772644043
1403715525752143000,-0.05853000283241272,0.02481156587600708,0.08272718638181686,9.150181770324707,0.33537817001342773,-3.122638463973999
1403715525757143000,-0.04252685606479645,0.02270464226603508,0.09938148409128189,9.370888710021973,-0.20408454537391663,-3.105478286743164
1403715525762143000,-0.011163756251335144,0.027571875602006912,0.09798035770654678,9.191495895385742,-0.39191704988479614,-3.1214160919189453
1403715525767143000,0.009801164269447327,0.014306379482150078,0.07848691195249557,8.92240047454834,-0.15482181310653687,-3.0808377265930176
1403715525772143000,0.03287796676158905,0.015070421621203423,0.07012603431940079,9.485934257507324,0.024712232872843742,-3.260972738265991
1403715525777143000,0.04125000536441803,0.013673605397343636,0.06246303766965866,9.314496994018555,0.08201706409454346,-3.203819990158081
1403715525782143000,0.035694897174835205,0.013008084148168564,0.051368407905101776,9.264817237854004,0.6214516758918762,-3.3025553226470947
1403715525787143000,0.014765143394470215,0.024233656004071236,0.06680866330862045,9.379263877868652,1.013518214225769,-3.1724698543548584
1403715525792143000,-0.013186424970626831,0.03182676434516907,0.07511436194181442,9.125539779663086,0.7602495551109314,-3.2865114212036133
1403715525797143000,-0.02013276517391205,0.017857326194643974,0.07571244984865189,9.469171524047852,0.06555436551570892,-3.114143133163452
1403715525802143000,-0.014587163925170898,0.03387735038995743,0.08339806646108627,9.158618927001953,0.18825401365756989,-3.1957554817199707
1403715525807143000,-0.0187530517578125,0.016446605324745178,0.06248980015516281,9.068772315979004,0.3272644281387329,-3.1797075271606445
1403715525812143000,-0.019402608275413513,0.010903852060437202,0.06810050457715988,9.444350242614746,0.48243972659111023,-3.2944252490997314
1403715525817143000,-0.03272499144077301,0.03181474655866623,0.07230792194604874,9.108999252319336,0.7030861377716064,-3.302795648574829
1403715525822143000,-0.04596810042858124,0.006675301119685173,0.08480895310640335,9.191412925720215,0.2536410391330719,-3.0980615615844727
1403715525827143000,-0.03762808442115784,0.02410563826560974,0.09101984649896622,9.378989219665527,-0.06510203331708908,-3.301673412322998
1403715525832143000,0.002068847417831421,0.01636543869972229,0.09169339388608932,8.970842361450195,-0.8167183995246887,-2.8924880027770996
1403715525837143000,0.05368627607822418,0.001077607274055481,0.06792914122343063,9.608445167541504,-1.029462456703186,-3.2523481845855713
1403715525842143000,0.09983289241790771,0.03321145474910736,0.06386100500822067,9.339432716369629,-0.016139095649123192,-3.1789939403533936
1403715525847143000,0.09282711148262024,0.015861190855503082,0.050782181322574615,9.25676155090332,1.397633671760559,-3.385056734085083
1403715525852143000,0.04178696870803833,0.03761115297675133,0.055750198662281036,9.330982208251953,1.813184380531311,-3.2136778831481934
1403715525857143000,-0.04691575467586517,0.016555648297071457,0.089939646422863,8.743036270141602,1.756738543510437,-3.238420009613037
1403715525862143000,-0.09889352321624756,0.017877550795674324,0.06814924627542496,9.623042106628418,0.6378819346427917,-3.3520193099975586
1403715525867143000,-0.08790971338748932,0.019148750230669975,0.10706792026758194,8.864200592041016,-0.08940807729959488,-3.121829032897949
1403715525872143000,-0.0634697824716568,0.014337629079818726,0.07072430104017258,9.615303039550781,-0.6533170342445374,-3.244189500808716
1403715525877143000,-0.0035017579793930054,0.030383367091417313,0.09028493613004684,9.444581031799316,-0.5553956627845764,-3.252052068710327
1403715525882143000,0.019581839442253113,0.027601545676589012,0.055451400578022,9.18352222442627,-0.16296394169330597,-3.1789276599884033
1403715525887143000,0.049616605043411255,0.03111973963677883,0.07082559913396835,9.608296394348145,0.024680545553565025,-3.3588318824768066
1403715525892143000,0.05029483139514923,0.03946221247315407,0.06388559192419052,8.94668960571289,0.24553461372852325,-3.1139490604400635
1403715525897143000,0.04192619025707245,0.02906528301537037,0.07445461302995682,9.085281372070312,0.8991972208023071,-3.1559040546417236
1403715525902143000,0.016162067651748657,0.020702529698610306,0.08211419731378555,9.395635604858398,0.8092228770256042,-3.237593173980713
1403715525907143000,-0.010430410504341125,0.029719926416873932,0.08907290548086166,9.068300247192383,0.8583329916000366,-3.4009318351745605
1403715525912143000,-0.04105164110660553,0.029756195843219757,0.0807100161910057,9.354178428649902,0.760258138179779,-3.2539799213409424
1403715525917143000,-0.05851283669471741,0.03531160205602646,0.08138365298509598,9.247883796691895,0.6377121210098267,-3.2048120498657227
1403715525922143000,-0.05648009479045868,0.031044354662299156,0.08126840740442276,8.962347984313965,-0.07306315004825592,-3.0891902446746826
1403715525927143000,-0.02300393581390381,0.02899499237537384,0.09099201112985611,9.526054382324219,-0.3757016658782959,-3.227783441543579
1403715525932143000,0.006964370608329773,0.04360869526863098,0.08682502061128616,9.060750961303711,-0.5307296514511108,-2.9986324310302734
1403715525937143000,0.03215682506561279,0.020624181255698204,0.07922367006540298,9.045005798339844,0.09835199266672134,-3.0240111351013184
1403715525942143000,0.04125942289829254,0.01647408865392208,0.07504675537347794,9.306449890136719,0.20448161661624908,-3.0732967853546143
1403715525947143000,0.027995958924293518,0.016479026526212692,0.059735871851444244,9.142256736755371,0.6132747530937195,-3.3025119304656982
1403715525952143000,0.013395547866821289,0.006058546714484692,0.058384306728839874,9.403696060180664,0.7684664130210876,-3.2702133655548096
1403715525957143000,-0.00688740611076355,0.025582943111658096,0.06956364959478378,9.207415580749512,0.8664849996566772,-3.2213473320007324
1403715525962143000,-0.02992120385169983,0.020634818822145462,0.07925819605588913,9.068831443786621,0.4088940918445587,-3.081817626953125
1403715525967143000,-0.03201635181903839,0.019932707771658897,0.09247683733701706,9.2647705078125,0.28626108169555664,-3.220531702041626
1403715525972143000,-0.029927417635917664,0.03319152817130089,0.09943587332963943,9.370928764343262,0.17992672324180603,-3.14680814743042
1403715525977143000,-0.024371087551116943,0.016410553827881813,0.09176468104124069,8.995491027832031,0.13107827305793762,-3.1303210258483887
1403715525982143000,-0.018058404326438904,0.007380187511444092,0.07778709381818771,9.444758415222168,-0.016116315498948097,-3.2039027214050293
1403715525987143000,0.0014344751834869385,0.01851874217391014,0.06101994961500168,9.167154312133789,-0.26917707920074463,-3.154371976852417
1403715525992143000,0.027985960245132446,0.015763429924845695,0.06174524873495102,9.412331581115723,-0.02421528846025467,-3.269059419631958
1403715525997143000,0.03776787221431732,0.01926182210445404,0.07158879190683365,9.11025619506836,0.384364515542984,-3.0326197147369385
1403715526002143000,0.02383674681186676,0.017876483500003815,0.06390763074159622,9.419899940490723,0.5069868564605713,-3.4004011154174805
1403715526007143000,0.01894739270210266,0.024867301806807518,0.07859621196985245,9.362865447998047,0.6703388690948486,-3.270026445388794
1403715526012143000,0.00150299072265625,0.03186094015836716,0.08839774876832962,9.436097145080566,0.8746078610420227,-3.311190605163574
1403715526017143000,-0.03694187104701996,0.03599401190876961,0.08421296626329422,8.872511863708496,0.8419650197029114,-3.0823795795440674
1403715526022143000,-0.057119905948638916,0.011565892957150936,0.07854097336530685,9.231976509094238,0.3272066116333008,-3.1553966999053955
1403715526027143000,-0.03552500903606415,0.02341645210981369,0.08055496960878372,9.436197280883789,-0.16316728293895721,-3.17911696434021
1403715526032143000,-0.004865571856498718,0.01988048106431961,0.086842842400074,8.94671630859375,-0.22017991542816162,-3.1297478675842285
1403715526037143000,0.016128405928611755,0.011575069278478622,0.07850130647420883,9.363493919372559,0.024700989946722984,-3.0894899368286133
1403715526042143000,0.023114964365959167,0.022046320140361786,0.06944478303194046,9.395830154418945,0.1555275171995163,-3.2692668437957764
1403715526047143000,0.0314980149269104,0.03252130001783371,0.0694737359881401,9.411918640136719,0.3598327934741974,-3.3103160858154297
1403715526052143000,0.02520965039730072,0.03461792692542076,0.07787477225065231,9.297508239746094,0.5395988821983337,-3.2616026401519775
1403715526057143000,7.043778896331787e-05,0.032556578516960144,0.06468639522790909,9.011609077453613,0.8665346503257751,-3.0333125591278076
1403715526062143000,-0.012485623359680176,0.013669658452272415,0.0869632139801979,9.036283493041992,0.6049901247024536,-3.1392524242401123
1403715526067143000,-0.015944108366966248,0.016461586579680443,0.08409994095563889,9.452815055847168,0.21265725791454315,-3.2204861640930176
1403715526072143000,-0.01668737828731537,0.008749157190322876,0.09109292179346085,8.995433807373047,0.3680531084537506,-3.2450249195098877
1403715526077143000,-0.022217243909835815,0.0066961441189050674,0.07155034691095352,9.379231452941895,0.2617989182472229,-3.2532877922058105
1403715526082143000,-0.011776626110076904,0.0227332916110754,0.08411552757024765,9.248584747314453,0.30261972546577454,-3.187852144241333
1403715526087143000,-0.006911680102348328,0.015040526166558266,0.0645327940583229,9.175296783447266,-0.08948606252670288,-3.0811290740966797
1403715526092143000,0.01265937089920044,0.014374945312738419,0.070134736597538,9.4775972366333,0.09010099619626999,-3.2039620876312256
1403715526097143000,0.018912509083747864,0.02202766202390194,0.06735380738973618,9.126412391662598,0.12291337549686432,-3.1221351623535156
1403715526102143000,0.02938041090965271,0.015061354264616966,0.08763811737298965,9.110069274902344,0.4987632632255554,-3.212510824203491
1403715526107143000,0.0196397602558136,0.021357066929340363,0.08902425318956375,9.412035942077637,0.4905102252960205,-3.3024139404296875
1403715526112143000,-0.0020170509815216064,0.026263652369379997,0.0849042609333992,9.183046340942383,0.8337956070899963,-3.229465961456299
1403715526117143000,-0.021527960896492004,0.017861781641840935,0.08064772933721542,9.305549621582031,0.4497215449810028,-3.261641263961792
1403715526122143000,-0.028521880507469177,0.02202538028359413,0.062485553324222565,9.09312915802002,0.2945901155471802,-3.1796817779541016
1403715526127143000,-0.025065124034881592,0.0052463598549366,0.06661675125360489,9.011908531188965,-0.1138988584280014,-3.1382696628570557
1403715526132143000,-0.008983850479125977,0.0171505156904459,0.0743008628487587,9.509889602661133,0.02477385848760605,-3.3508613109588623
1403715526137143000,0.006334781646728516,0.029698902741074562,0.08546227961778641,9.338628768920898,-0.04883873462677002,-3.1872639656066895
1403715526142143000,0.01681414246559143,0.023420866578817368,0.08203550428152084,9.060922622680664,0.36803537607192993,-3.187802314758301
1403715526147143000,0.01824679970741272,0.02694619633257389,0.08414328843355179,9.395747184753418,0.45780661702156067,-3.21254825592041
1403715526152143000,0.009878724813461304,0.036018386483192444,0.07855948060750961,9.42005729675293,0.42511677742004395,-3.1961634159088135
1403715526157143000,0.003572627902030945,0.02692611701786518,0.07228884845972061,9.060799598693848,0.44158992171287537,-3.0817694664001465
1403715526162143000,-0.006896942853927612,0.01225813664495945,0.0722728744149208,9.003703117370605,0.3680732548236847,-3.114367723464966
1403715526167143000,-0.013146966695785522,0.01158825308084488,0.07785911113023758,9.37086296081543,0.49060383439064026,-3.3433566093444824
1403715526172143000,-0.014563769102096558,0.016452740877866745,0.0903857871890068,9.346522331237793,0.31893494725227356,-3.3022289276123047
1403715526177143000,-0.012448921799659729,0.024839181452989578,0.07782851904630661,9.477141380310059,0.25354209542274475,-3.2531776428222656
1403715526182143000,-0.009705513715744019,0.025494303554296494,0.07783437520265579,8.962749481201172,0.2618506848812103,-3.122312068939209
1403715526187143000,-0.003372892737388611,0.02065993659198284,0.0722590759396553,9.452681541442871,0.3271286189556122,-3.277778387069702
1403715526192143000,0.0028679221868515015,0.035288259387016296,0.0680561289191246,9.166938781738281,0.1474091112613678,-3.0895016193389893
1403715526197143000,0.005656778812408447,0.010155299678444862,0.0701601579785347,8.979394912719727,0.2291887402534485,-3.0977871417999268
1403715526202143000,0.014049649238586426,0.008091960102319717,0.07922693341970444,9.298121452331543,0.2126927375793457,-3.1224114894866943
1403715526207143000,0.009160652756690979,0.014369593001902103,0.08203721791505814,9.256860733032227,0.425214022397995,-3.27783465385437
1403715526212143000,-0.0019785910844802856,0.00811292976140976,0.08066745847463608,9.3304443359375,0.523249626159668,-3.1964123249053955
1403715526217143000,-0.010346457362174988,0.014377723447978497,0.07365673035383224,9.460753440856934,0.36800602078437805,-3.3350281715393066
1403715526222143000,-0.008278027176856995,0.03042256459593773,0.08274280279874802,9.273018836975098,0.4251770079135895,-3.1635186672210693
1403715526227143000,-0.015274688601493835,0.02272063121199608,0.07572595030069351,9.175012588500977,0.2046263962984085,-3.2121851444244385
1403715526232143000,-0.009672552347183228,0.02413835935294628,0.07295282930135727,9.256851196289062,0.23725959658622742,-3.073413848876953
1403715526237143000,0.002141714096069336,0.016426457092165947,0.07708635181188583,9.150903701782227,-0.08134641498327255,-3.195403575897217
1403715526242143000,0.014056563377380371,0.015770185738801956,0.08899933844804764,9.436727523803711,0.3270483911037445,-3.2532248497009277
1403715526247143000,0.006353229284286499,0.019936587661504745,0.09040931612253189,9.126313209533691,0.3679700195789337,-3.155186414718628
1403715526252143000,-0.0012855976819992065,0.016482021659612656,0.08206271380186081,9.370993614196777,0.5722890496253967,-3.2944493293762207
1403715526257143000,-0.004087045788764954,0.020649364218115807,0.07783219963312149,9.371076583862305,0.2862599194049835,-3.2613539695739746
1403715526262143000,-0.00616881251335144,0.029725227504968643,0.06737137585878372,9.436102867126465,0.31082582473754883,-3.3185324668884277
1403715526267143000,-0.0006260126829147339,0.028994474560022354,0.07156244665384293,8.98730754852295,0.2618410587310791,-3.06512188911438
1403715526272143000,-0.007571116089820862,0.015775354579091072,0.06600271910429001,9.175204277038574,0.39258038997650146,-3.0818169116973877
1403715526277143000,-0.0013126879930496216,0.018544331192970276,0.07921481877565384,9.28946304321289,0.2291036695241928,-3.2857236862182617
1403715526282143000,0.0028605908155441284,0.02481590211391449,0.0889875665307045,9.207877159118652,0.24541296064853668,-3.2203426361083984
1403715526287143000,9.056925773620605e-05,0.020655356347560883,0.0897284522652626,9.26496410369873,0.5068902373313904,-3.2208120822906494
1403715526292143000,-0.01178307831287384,0.020646609365940094,0.08973663300275803,9.126096725463867,0.5232531428337097,-3.1473169326782227
1403715526297143000,-0.018726900219917297,0.01228700578212738,0.0743618980050087,9.330330848693848,0.34348976612091064,-3.1471915245056152
1403715526302143000,-0.008996978402137756,0.018539652228355408,0.0673239454627037,9.313980102539062,-0.024163154885172844,-3.220093011856079
1403715526307143000,0.003572136163711548,0.015054561197757721,0.06386356800794601,9.167136192321777,0.1392960548400879,-3.1467552185058594
1403715526312143000,0.01055610179901123,0.019253376871347427,0.07645054906606674,9.208035469055176,0.302621990442276,-3.122467517852783
1403715526317143000,0.013356626033782959,0.01716776192188263,0.07436040788888931,9.297760963439941,0.3680097460746765,-3.228766679763794
1403715526322143000,0.01056736707687378,0.018563587218523026,0.0827317014336586,9.354965209960938,0.3679550588130951,-3.220613479614258
1403715526327143000,8.560717105865479e-05,0.0227520652115345,0.07997388392686844,9.223833084106445,0.6213628649711609,-3.3026273250579834
1403715526332143000,-0.008975043892860413,0.022064216434955597,0.08765903860330582,9.264847755432129,0.629478394985199,-3.2046942710876465
1403715526337143000,-0.02921682596206665,0.015752647072076797,0.08132200688123703,9.240296363830566,0.30264565348625183,-3.2124252319335938
1403715526342143000,-0.02644440531730652,0.014341933652758598,0.07151173800230026,9.215928077697754,-0.015968386083841324,-3.154790163040161
1403715526347143000,-0.0013520866632461548,0.010844556614756584,0.07567832618951797,9.199949264526367,-0.19574514031410217,-3.162665367126465
1403715526352143000,0.021002650260925293,0.0220334492623806,0.0784987136721611,9.363245964050293,0.06562504172325134,-3.2772772312164307
1403715526357143000,0.02659757435321808,0.015759557485580444,0.07784182578325272,9.19180679321289,0.3026370406150818,-3.1959304809570312
1403715526362143000,0.02172471582889557,0.02624031901359558,0.07088682800531387,9.354423522949219,0.5478672981262207,-3.416747570037842
1403715526367143000,0.008473113179206848,0.024862373247742653,0.07789529114961624,9.24862289428711,0.6131532788276672,-3.163785696029663
1403715526372143000,-0.00688539445400238,0.03322234004735947,0.07858388870954514,9.313352584838867,0.6622028946876526,-3.3598530292510986
1403715526377143000,-0.025746405124664307,0.03249513357877731,0.08694810420274734,9.01977825164795,0.4905906021595001,-3.0410263538360596
1403715526382143000,-0.03341375291347504,0.015740979462862015,0.07501741498708725,9.223840713500977,0.18014350533485413,-3.2857394218444824
1403715526387143000,-0.019478633999824524,0.017824675887823105,0.08128143101930618,9.167057991027832,-0.05688287317752838,-3.0402987003326416
1403715526392143000,4.565715789794922e-05,0.012251166626811028,0.082648865878582,9.371365547180176,-0.13860780000686646,-3.342419147491455
1403715526397143000,0.020316079258918762,0.024832941591739655,0.07293196767568588,9.314274787902832,0.09829481691122055,-3.1303300857543945
1403715526402143000,0.027292221784591675,0.012268600054085255,0.07434270530939102,9.216195106506348,0.302702397108078,-3.310255765914917
1403715526407143000,0.018264800310134888,0.026266325265169144,0.07300760596990585,9.452644348144531,0.6213027238845825,-3.286290168762207
1403715526412143000,0.0014875829219818115,0.031826701015233994,0.07997509092092514,9.24026870727539,0.5641035437583923,-3.2045435905456543
1403715526417143000,-0.011766940355300903,0.028359057381749153,0.07372979074716568,9.183074951171875,0.7194105386734009,-3.1312906742095947
1403715526422143000,-0.02782261371612549,0.017150862142443657,0.07855590432882309,9.109785079956055,0.35987046360969543,-3.0490922927856445
1403715526427143000,-0.028535932302474976,0.008758638054132462,0.08199330419301987,9.175091743469238,0.15560147166252136,-3.228520393371582
1403715526432143000,-0.010416179895401001,0.014337219297885895,0.09033649414777756,9.273310661315918,-0.05693420395255089,-3.228156089782715
1403715526437143000,0.007049292325973511,0.014355160295963287,0.0805872306227684,9.346915245056152,0.04111739993095398,-3.2446532249450684
1403715526442143000,0.018223822116851807,0.02064252458512783,0.0750572457909584,9.11827278137207,0.28630971908569336,-3.073371171951294
1403715526447143000,0.017543479800224304,0.009489988908171654,0.07714206725358963,9.363099098205566,0.3680269122123718,-3.334933280944824
1403715526452143000,0.009212404489517212,0.022081859409809113,0.06952106207609177,9.542312622070312,0.6376684308052063,-3.3434970378875732
1403715526457143000,-0.006194591522216797,0.027631491422653198,0.06810755282640457,9.133914947509766,0.5641804933547974,-3.237203598022461
1403715526462143000,-0.01316329836845398,0.025541864335536957,0.07857260853052139,9.207618713378906,0.5151051878929138,-3.171844244003296
1403715526467143000,-0.018074706196784973,0.019918303936719894,0.08760689944028854,9.020073890686035,0.22910389304161072,-3.0161185264587402
1403715526472143000,-0.011074617505073547,0.012265864759683609,0.08478965610265732,9.37932014465332,0.2045467346906662,-3.293931484222412
1403715526477143000,-0.002722635865211487,0.021328706294298172,0.08686912804841995,9.314153671264648,0.041065704077482224,-3.154782772064209
1403715526482143000,0.008450254797935486,0.017844803631305695,0.0771174356341362,9.256951332092285,0.18009503185749054,-3.2611310482025146
1403715526487143000,0.01682707667350769,0.02622382715344429,0.074348084628582,9.175361633300781,0.22909455001354218,-3.105966806411743
1403715526492143000,0.010583281517028809,0.016482623293995857,0.07089293748140335,9.428038597106934,0.5478307008743286,-3.3760266304016113
1403715526497143000,0.000814095139503479,0.029049266129732132,0.07020815461874008,9.370833396911621,0.5641244053840637,-3.253573179244995
1403715526502143000,-0.011072278022766113,0.023437105119228363,0.07017522305250168,9.191254615783691,0.3844000995159149,-3.212472915649414
1403715526507143000,-0.011769771575927734,0.028320705518126488,0.07434920221567154,9.248539924621582,0.2699473202228546,-3.1387929916381836
1403715526512143000,-0.009705409407615662,0.017127493396401405,0.08898622542619705,9.085391998291016,0.22092802822589874,-3.17948317527771
1403715526517143000,-0.004789143800735474,0.019951706752181053,0.08550938218832016,9.338591575622559,0.2780419886112213,-3.163337469100952
1403715526522143000,-0.0027237385511398315,0.017135346308350563,0.08339234441518784,9.175337791442871,0.10651630908250809,-3.15484881401062
1403715526527143000,0.007763519883155823,0.018551094457507133,0.07571715861558914,9.403912544250488,0.1473563313484192,-3.293797492980957
1403715526532143000,0.010549277067184448,0.019245661795139313,0.0764533057808876,9.118209838867188,0.30265113711357117,-3.089754581451416
1403715526537143000,0.005697861313819885,0.012991231866180897,0.07298053056001663,9.411778450012207,0.5151253342628479,-3.3596746921539307
1403715526542143000,-0.005496367812156677,0.031810808926820755,0.07228166610002518,9.13408374786377,0.4415751099586487,-3.155325412750244
1403715526547143000,-0.014567196369171143,0.019240835681557655,0.07364960759878159,9.166885375976562,0.2863355576992035,-3.1796634197235107
1403715526552143000,-0.008290082216262817,0.02482525259256363,0.08899342268705368,9.289433479309082,0.2862307131290436,-3.2123029232025146
1403715526557143000,-0.002028822898864746,0.017133748158812523,0.08897297829389572,9.191624641418457,0.15553343296051025,-3.2284042835235596
1403715526562143000,-0.0006100237369537354,0.027624163776636124,0.08830706030130386,9.297675132751465,0.3270719647407532,-3.1715171337127686
1403715526567143000,0.0014558732509613037,0.01782340556383133,0.08619045466184616,9.069230079650879,0.12286876142024994,-3.113966464996338
1403715526572143000,0.0077852606773376465,0.012981291860342026,0.07504143565893173,9.452895164489746,0.28626254200935364,-3.302210569381714
1403715526577143000,0.0021926462650299072,0.022050706669688225,0.07366307824850082,9.281311988830566,0.35165509581565857,-3.187920093536377
1403715526582143000,-0.006159678101539612,0.014390110038220882,0.06810183078050613,9.387163162231445,0.5233112573623657,-3.3270673751831055
1403715526587143000,-0.00967976450920105,0.027622858062386513,0.07506158202886581,9.175033569335938,0.3598458468914032,-3.1307342052459717
1403715526592143000,-0.008977547287940979,0.014364342205226421,0.07016661018133163,9.167082786560059,0.26999741792678833,-3.097975254058838
1403715526597143000,0.0014885962009429932,0.020646896213293076,0.08202149718999863,9.346579551696777,0.335303395986557,-3.294048547744751
1403715526602143000,-0.0006335079669952393,0.0248069167137146,0.08619903773069382,9.101696968078613,0.23726966977119446,-3.179469347000122
1403715526607143000,0.0021752119064331055,0.02412879839539528,0.08550532907247543,9.265081405639648,0.253555029630661,-3.1795685291290283
1403715526612143000,0.004950374364852905,0.015734486281871796,0.08410864323377609,9.044797897338867,0.16373133659362793,-3.065014123916626
1403715526617143000,0.005001530051231384,0.013684217818081379,0.07156952470541,9.444503784179688,0.40888750553131104,-3.351367950439453
1403715526622143000,0.0014835894107818604,0.027623167261481285,0.07017486542463303,9.166881561279297,0.3516983985900879,-3.163356304168701
1403715526627143000,-0.006861671805381775,0.014391841366887093,0.06671080738306046,9.297503471374512,0.5069693922996521,-3.2208845615386963
1403715526632143000,-0.008993715047836304,0.022024156525731087,0.07433771342039108,9.13428020477295,0.21279335021972656,-3.16317081451416
1403715526637143000,-0.0054737478494644165,0.01158407237380743,0.07085791975259781,9.362993240356445,0.2863035202026367,-3.2450833320617676
1403715526642143000,-0.0047893524169921875,0.026230579242110252,0.08690992742776871,9.362874984741211,0.35159048438072205,-3.2450809478759766
1403715526647143000,-0.006903991103172302,0.022023100405931473,0.08131854981184006,9.134321212768555,0.25362393260002136,-3.1713850498199463
1403715526652143000,0.0028729289770126343,0.02273457869887352,0.09108882397413254,9.281485557556152,0.26986438035964966,-3.1632626056671143
1403715526657143000,0.004960373044013977,0.01714354380965233,0.07992357760667801,9.150811195373535,0.2454564869403839,-3.1795361042022705
1403715526662143000,0.0015074312686920166,0.012286284938454628,0.07226672023534775,9.403648376464844,0.4170711636543274,-3.35138201713562
1403715526667143000,-0.002014949917793274,0.01993390917778015,0.07434719055891037,9.109829902648926,0.2781656086444855,-3.1714179515838623
1403715526672143000,-0.006878063082695007,0.01506892405450344,0.07714707404375076,9.313858985900879,0.3843657672405243,-3.2860121726989746
1403715526677143000,-0.004098579287528992,0.019248293712735176,0.07784845679998398,9.16707992553711,0.31898343563079834,-3.106175422668457
1403715526682143000,-0.0054776668548583984,0.01785930059850216,0.07503882795572281,9.411848068237305,0.2862851023674011,-3.310373544692993
1403715526687143000,-0.0020154714584350586,0.023425370454788208,0.08271203190088272,9.232239723205566,0.28629496693611145,-3.2612719535827637
1403715526692143000,9.077787399291992e-05,0.02413739264011383,0.07854600995779037,9.232345581054688,0.3434826135635376,-3.1552212238311768
1403715526697143000,0.004964128136634827,0.026222731918096542,0.08830156177282333,9.24065113067627,0.26170575618743896,-3.122386932373047
1403715526702143000,0.00078544020652771,0.016456639394164085,0.07714007049798965,9.224198341369629,0.31082648038864136,-3.2205190658569336
1403715526707143000,0.0007995665073394775,0.019261641427874565,0.08343667536973953,9.346616744995117,0.43334805965423584,-3.2533905506134033
1403715526712143000,-0.004115089774131775,0.024113427847623825,0.07364039868116379,9.093401908874512,0.24550583958625793,-3.204012393951416
1403715526717143000,-0.0033804774284362793,0.010889356955885887,0.06947367638349533,9.313983917236328,0.35169702768325806,-3.2369959354400635
1403715526722143000,-0.0026853978633880615,0.012980425730347633,0.07365051656961441,9.338638305664062,0.26175183057785034,-3.163365125656128
1403715526727143000,-0.004093378782272339,0.01785256341099739,0.07643180340528488,9.354592323303223,0.3190195858478546,-3.367527723312378
1403715526732143000,-0.001999899744987488,0.031117798760533333,0.08203177899122238,9.297630310058594,0.3270873725414276,-3.138852834701538
1403715526737143000,-0.0012986063957214355,0.029029127210378647,0.08203845471143723,9.297679901123047,0.35978174209594727,-3.1225805282592773
1403715526742143000,-0.0013225078582763672,0.02551349066197872,0.080621637403965,9.134357452392578,0.23727238178253174,-3.1468329429626465
1403715526747143000,0.0007969141006469727,0.015071330592036247,0.07435653358697891,9.27323055267334,0.33533063530921936,-3.1960906982421875
1403715526752143000,-0.0026977062225341797,0.021345462650060654,0.07714145630598068,9.281275749206543,0.3189719617366791,-3.2205402851104736
1403715526757143000,-0.00131303071975708,0.012961424887180328,0.07643862813711166,9.1670503616333,0.29450666904449463,-3.220484733581543
1403715526762143000,-0.0019936859607696533,0.014370564371347427,0.07643621414899826,9.346713066101074,0.26993024349212646,-3.2368550300598145
1403715526767143000,8.130073547363281e-05,0.017147716134786606,0.07713600248098373,9.17519474029541,0.2863251268863678,-3.212289333343506
1403715526772143000,0.002888724207878113,0.021350035443902016,0.07505019754171371,9.305845260620117,0.31079259514808655,-3.2041990756988525
1403715526777143000,-0.0006177127361297607,0.022031906992197037,0.08202140778303146,9.199666023254395,0.2944578230381012,-3.2041256427764893
1403715526782143000,-0.0006129145622253418,0.028319433331489563,0.08482398837804794,9.248566627502441,0.37614691257476807,-3.2124130725860596
1403715526787143000,-0.0020172446966171265,0.02551911026239395,0.08482678979635239,9.126152038574219,0.3598266541957855,-3.147022247314453
1403715526792143000,-0.005487009882926941,0.0220453143119812,0.07645081728696823,9.264904975891113,0.35166606307029724,-3.2042648792266846
1403715526797143000,-0.005511954426765442,0.017133671790361404,0.08201251178979874,9.093613624572754,0.1964273303747177,-3.1304538249969482
1403715526802143000,-0.005497068166732788,0.017847485840320587,0.07921583205461502,9.289475440979004,0.2209199219942093,-3.2530717849731445
1403715526807143000,-0.0013060569763183594,0.01506117545068264,0.07712876051664352,9.27329158782959,0.21273179352283478,-3.179572582244873
1403715526812143000,0.0008008182048797607,0.012977806851267815,0.07015923410654068,9.338500022888184,0.28631001710891724,-3.2613770961761475
1403715526817143000,0.004284366965293884,0.019954264163970947,0.07574475556612015,9.3222074508667,0.2944391965866089,-3.212345600128174
1403715526822143000,0.0035829097032546997,0.024139534682035446,0.07994025200605392,9.313882827758789,0.3925084173679352,-3.269627094268799
1403715526827143000,0.0014988183975219727,0.0290383230894804,0.07787144929170609,9.313838005065918,0.498728483915329,-3.2044661045074463
1403715526832143000,-0.004102811217308044,0.02482844516634941,0.0820344015955925,9.191447257995605,0.3598262071609497,-3.1715636253356934
1403715526837143000,-0.009680718183517456,0.02483225055038929,0.0778563991189003,9.166899681091309,0.3925371766090393,-3.1389575004577637
1403715526842143000,-0.0082978755235672,0.013651472516357899,0.08550312370061874,9.158917427062988,0.2536097764968872,-3.1877543926239014
1403715526847143000,-0.011073634028434753,0.017153412103652954,0.07504219561815262,9.24854850769043,0.2944970428943634,-3.2368650436401367
1403715526852143000,-0.005495578050613403,0.010871168226003647,0.08270291239023209,9.297835350036621,0.18819743394851685,-3.195899248123169
1403715526857143000,0.0015056580305099487,0.01367410458624363,0.06734351068735123,9.558941841125488,0.13100533187389374,-3.359192371368408
1403715526862143000,0.007068723440170288,0.02064330130815506,0.07294217497110367,9.41158390045166,0.35994529724121094,-3.4818055629730225
1403715526867143000,0.00707581639289856,0.02274806797504425,0.07994376868009567,9.33842945098877,0.4088422954082489,-3.2696590423583984
1403715526872143000,0.0036069899797439575,0.033224523067474365,0.0827452763915062,9.501583099365234,0.4659730792045593,-3.2860770225524902
1403715526877143000,-0.00479462742805481,0.026925984770059586,0.08412214368581772,9.281272888183594,0.33527490496635437,-3.187887191772461
1403715526882143000,-0.0012799054384231567,0.02135181985795498,0.07712984830141068,9.542534828186035,0.2617024779319763,-3.3266711235046387
1403715526887143000,-0.004112154245376587,0.021327247843146324,0.0792168602347374,9.167098999023438,0.16372476518154144,-3.1304304599761963
1403715526892143000,-0.00478498637676239,0.0052971746772527695,0.07293345779180527,9.363173484802246,0.17188024520874023,-3.236788511276245
1403715526897143000,0.009204834699630737,0.01089941244572401,0.09737477451562881,9.657394409179688,0.36776551604270935,-3.212543249130249
1403715526902143000,0.0029679685831069946,0.015103355050086975,0.09394102543592453,9.787562370300293,0.6947571039199829,-3.3517513275146484
1403715526907143000,-0.01666659116744995,0.06180807575583458,0.0904180184006691,9.35390567779541,0.5477167963981628,-3.3514151573181152
1403715526912143000,-0.03901970386505127,0.0261076670140028,0.0659928098320961,8.366395950317383,0.13944368064403534,-2.6724205017089844
1403715526917143000,-0.019491180777549744,0.00662991963326931,0.06661789864301682,8.93031120300293,-0.2364465743303299,-2.9746885299682617
1403715526922143000,0.018878459930419922,0.0010033287107944489,0.08690271526575089,8.506082534790039,-0.032332077622413635,-2.925551176071167
1403715526927143000,0.03780828416347504,0.0074129533022642136,0.0792374387383461,9.616615295410156,0.3433491289615631,-3.3022654056549072
1403715526932143000,0.023063406348228455,0.03380589932203293,0.07649516314268112,8.325538635253906,0.6132172346115112,-2.950751543045044
1403715526937143000,-0.004098832607269287,-0.006538845598697662,0.04511656612157822,8.881019592285156,0.7604054808616638,-3.065774440765381
1403715526942143000,-0.018758535385131836,0.015061331912875175,0.06115580350160599,8.85653018951416,0.5806118249893188,-2.951157808303833
1403715526947143000,-0.014590069651603699,-0.016361448913812637,0.09182151407003403,8.922119140625,0.5232911109924316,-3.228916883468628
1403715526952143000,-0.011028364300727844,0.019937818869948387,0.09455328434705734,9.844518661499023,0.2206614464521408,-3.4408841133117676
1403715526957143000,-0.011126697063446045,0.049192123115062714,0.09110821038484573,8.823554039001465,0.43339961767196655,-3.155127763748169
1403715526962143000,-0.01876428723335266,-0.001011652871966362,0.07362986356019974,9.069119453430176,0.1638253778219223,-3.179516553878784
1403715526967143000,-0.021551057696342468,0.014345480129122734,0.05337480455636978,9.158651351928711,0.008662581443786621,-3.179312229156494
1403715526972143000,0.009123936295509338,-0.003103259950876236,0.08126822859048843,9.216444969177246,-0.024142345413565636,-3.31805419921875
1403715526977143000,0.021051883697509766,0.010169899091124535,0.08477260917425156,9.934718132019043,0.07356228679418564,-3.5468199253082275
1403715526982143000,0.022380635142326355,0.05132877826690674,0.07508022338151932,8.97877025604248,0.5396428108215332,-3.212496280670166
1403715526987143000,-0.0040617436170578,0.012291813269257545,0.05690418928861618,9.428271293640137,0.24544808268547058,-3.23690128326416
1403715526992143000,-0.011042684316635132,0.02624187432229519,0.04851747304201126,9.460637092590332,0.13107091188430786,-3.236690044403076
1403715526997143000,0.003561943769454956,0.013652633875608444,0.08412153273820877,9.10174560546875,0.35984694957733154,-3.2286946773529053
1403715527002143000,-0.008188456296920776,0.03458630293607712,0.08621495217084885,10.031938552856445,0.3513995409011841,-3.5225539207458496
1403715527007143000,-0.013201788067817688,0.06179128959774971,0.09321572631597519,9.060322761535645,0.4823280870914459,-3.1144611835479736
1403715527012143000,-0.02088022232055664,0.022004088386893272,0.0749947652220726,9.117966651916504,-0.08950643241405487,-3.1137444972991943
1403715527017143000,-0.011101588606834412,0.032494544982910156,0.0687091276049614,9.330185890197754,-0.163156196475029,-3.0483193397521973
1403715527022143000,0.011925414204597473,0.004568267613649368,0.08829905837774277,9.0040922164917,0.22908665239810944,-3.138603687286377
1403715527027143000,0.02105484902858734,0.011582119390368462,0.10014466196298599,9.730850219726562,0.27781009674072266,-3.3348257541656494
1403715527032143000,0.01889149844646454,0.045053545385599136,0.10300032049417496,9.052618980407715,0.5477056503295898,-3.1226913928985596
1403715527037143000,0.00988037884235382,0.008810128085315228,0.08066418021917343,9.330561637878418,0.49873340129852295,-3.1963486671447754
1403715527042143000,-0.008962750434875488,0.017876438796520233,0.06252669543027878,9.183219909667969,0.474309504032135,-3.1146063804626465
1403715527047143000,-0.015257000923156738,-0.010051324963569641,0.05972989648580551,9.0117769241333,0.5233784317970276,-3.188178062438965
1403715527052143000,-0.00263117253780365,0.002540372312068939,0.08694139868021011,9.657163619995117,0.5313453078269958,-3.2781612873077393
1403715527057143000,-0.00551094114780426,0.03250596672296524,0.0904337540268898,9.158524513244629,0.5804694294929504,-3.237210750579834
1403715527062143000,-0.014571055769920349,0.013678869232535362,0.0834728255867958,9.109716415405273,0.6213744282722473,-3.1719932556152344
1403715527067143000,-0.015939176082611084,0.02554098144173622,0.06667988747358322,9.330100059509277,0.3026790916919708,-3.171574115753174
1403715527072143000,-0.01596692204475403,0.008752528578042984,0.04151568561792374,8.970946311950684,0.025109730660915375,-3.081237554550171
1403715527077143000,0.002880960702896118,-0.0002912338823080063,0.06386063247919083,9.216197967529297,0.1801818460226059,-3.2448978424072266
1403715527082143000,0.01614856719970703,0.022051524370908737,0.07783547788858414,9.395816802978516,0.28623488545417786,-3.22048020362854
1403715527087143000,0.023078888654708862,0.025514280423521996,0.09461618214845657,9.060747146606445,0.5805152654647827,-3.302422046661377
1403715527092143000,0.0035868585109710693,0.024862969294190407,0.07580522447824478,9.215910911560059,0.6295230984687805,-3.1474757194519043
1403715527097143000,-0.01596565544605255,0.024817664176225662,0.06807117909193039,9.085150718688965,0.27820533514022827,-3.122431993484497
1403715527102143000,-0.020174935460090637,0.016406912356615067,0.055460937321186066,8.921942710876465,-0.06482267379760742,-3.0973904132843018
1403715527107143000,-0.001988127827644348,0.012982586398720741,0.08342427760362625,9.355080604553223,0.3025561273097992,-3.1225762367248535
1403715527112143000,0.003550708293914795,0.033886559307575226,0.0980396494269371,9.305938720703125,0.10634896159172058,-3.1384310722351074
1403715527117143000,0.005648821592330933,0.03040187433362007,0.10297098010778427,9.158926010131836,0.40060219168663025,-3.1306965351104736
1403715527122143000,0.0007848292589187622,0.02832312323153019,0.09039252251386642,9.322300910949707,0.2534824311733246,-3.0978927612304688
1403715527127143000,-0.0075834691524505615,0.03390396758913994,0.06874576956033707,9.362809181213379,0.12283327430486679,-3.163066864013672
1403715527132143000,-0.006908312439918518,0.017128143459558487,0.05476992577314377,9.06090259552002,-0.08943509310483932,-3.015714406967163
1403715527137143000,0.01060427725315094,0.013697514310479164,0.0673765018582344,9.575521469116211,0.2861776351928711,-3.212433099746704
1403715527142143000,0.017508044838905334,0.02760661393404007,0.09876025468111038,9.248729705810547,0.3270750939846039,-3.3020479679107666
1403715527147143000,0.008482933044433594,0.021371260285377502,0.09463400393724442,9.444550514221191,0.6702979803085327,-3.3108794689178467
1403715527152143000,-0.014534682035446167,0.029054991900920868,0.08556351810693741,9.38740348815918,0.5722424387931824,-3.122952938079834
1403715527157143000,-0.02852870523929596,0.0157344751060009,0.060371629893779755,9.052491188049316,0.13119225203990936,-3.1222660541534424
1403715527162143000,-0.020828917622566223,0.00041204318404197693,0.05756223946809769,9.412068367004395,-0.007846777327358723,-3.163163185119629
1403715527167143000,-0.0005989819765090942,0.007391350343823433,0.06804510205984116,9.371309280395508,0.14738327264785767,-3.2448947429656982
1403715527172143000,0.009152412414550781,0.01017263624817133,0.08480554074048996,9.224515914916992,0.22905036807060242,-3.1632208824157715
1403715527177143000,0.010587990283966064,0.012983622029423714,0.09319984167814255,9.567178726196289,0.4741402566432953,-3.3677637577056885
1403715527182143000,0.002172231674194336,0.02555110864341259,0.090464286506176,9.126239776611328,0.6540157794952393,-3.0739502906799316
1403715527187143000,-0.013178080320358276,0.010861909948289394,0.07644709199666977,9.077156066894531,0.33537793159484863,-3.1715455055236816
1403715527192143000,-0.013133972883224487,0.0074001457542181015,0.05619069188833237,9.477166175842285,0.18011386692523956,-3.3021833896636963
1403715527197143000,-0.00131244957447052,0.012263075448572636,0.07154551893472672,9.183367729187012,0.24550271034240723,-3.2367589473724365
1403715527202143000,0.011238545179367065,0.016451265662908554,0.08204176276922226,9.109846115112305,0.44976627826690674,-3.2451417446136475
1403715527207143000,0.007052406668663025,0.01854957640171051,0.1050732210278511,9.256834983825684,0.5477350354194641,-3.2943148612976074
1403715527212143000,-0.005512148141860962,0.02622009627521038,0.09670678526163101,9.126087188720703,0.5068989396095276,-3.171753406524658
1403715527217143000,-0.012474238872528076,0.01994241774082184,0.07784811407327652,9.166864395141602,0.3680490255355835,-3.1879453659057617
1403715527222143000,-0.011784344911575317,0.015048075467348099,0.06314649432897568,9.224080085754395,0.06579560786485672,-3.2528769969940186
1403715527227143000,-0.004117861390113831,0.010854184627532959,0.05336713045835495,9.117953300476074,0.04139792546629906,-3.3017847537994385
1403715527232143000,0.007781773805618286,0.015075117349624634,0.061789728701114655,9.330265998840332,0.30269867181777954,-3.277709484100342
1403715527237143000,0.01055055856704712,0.0318099670112133,0.08622252196073532,9.305655479431152,0.4251754879951477,-3.294116258621216
1403715527242143000,0.004942864179611206,0.027590293437242508,0.09111452847719193,8.9384126663208,0.35983335971832275,-3.0733907222747803
1403715527247143000,-0.002000659704208374,0.02344859018921852,0.08694186061620712,9.273021697998047,0.5314168930053711,-3.2371883392333984
1403715527252143000,-0.015262246131896973,0.02203349769115448,0.07363631576299667,9.305460929870605,0.2781761884689331,-3.342982053756714
1403715527257143000,-0.01317189633846283,0.024824755266308784,0.05547028034925461,9.297466278076172,-0.007787853479385376,-3.1792778968811035
1403715527262143000,-0.001995101571083069,0.01786012016236782,0.06877260655164719,9.289260864257812,0.37623921036720276,-3.310467481613159
1403715527267143000,-0.013151511549949646,0.03042576275765896,0.07506746798753738,9.362536430358887,0.45788782835006714,-3.294264316558838
1403715527272143000,-0.00901755690574646,0.038763031363487244,0.0959247425198555,9.370941162109375,0.04922126606106758,-3.3098318576812744
1403715527277143000,0.004230916500091553,0.0331774465739727,0.10011934489011765,9.24880599975586,0.008334740996360779,-3.1545863151550293
1403715527282143000,0.014037370681762695,0.02413209341466427,0.1015312448143959,9.4939546585083,0.1716412752866745,-3.220282554626465
1403715527287143000,0.014005079865455627,0.029018506407737732,0.07007669657468796,9.738664627075195,-0.38406676054000854,-3.2033674716949463
1403715527292143000,0.036341890692710876,0.023445088416337967,0.047058768570423126,9.649083137512207,-0.38390395045280457,-3.17073130607605
1403715527297143000,0.05590616166591644,0.032546304166316986,0.06395869702100754,9.093674659729004,0.6786144971847534,-3.0493063926696777
1403715527302143000,0.037748247385025024,0.009606638923287392,0.08221083134412766,9.355362892150879,1.2913073301315308,-3.172773599624634
1403715527307143000,-0.013167127966880798,0.023571087047457695,0.09199463576078415,9.50993824005127,1.3647526502609253,-3.3036136627197266
1403715527312143000,-0.07598711550235748,0.015800712630152702,0.08633648604154587,9.068726539611816,0.9074550271034241,-3.041768789291382
1403715527317143000,-0.0878497064113617,0.015019962564110756,0.07989595085382462,9.150010108947754,0.1148548498749733,-3.122403621673584
1403715527322143000,-0.07043567299842834,0.00941367819905281,0.06588124483823776,9.027552604675293,-0.4487225413322449,-2.8847153186798096
1403715527327143000,-0.008378878235816956,0.00942688062787056,0.071415476500988,9.387083053588867,-0.906572699546814,-2.999002695083618
1403715527332143000,0.05021043121814728,0.021979209035634995,0.07705637067556381,9.094106674194336,-0.6451389789581299,-3.023221969604492
1403715527337143000,0.0803070068359375,0.01854720152914524,0.07645773142576218,9.126708030700684,0.3844575583934784,-3.269355535507202
1403715527342143000,0.05723874270915985,0.02347370609641075,0.06609230488538742,8.840137481689453,1.0627304315567017,-3.147759199142456
1403715527347143000,0.014005810022354126,0.01452280580997467,0.06897453218698502,9.330657958984375,1.4137052297592163,-3.172834873199463
1403715527352143000,-0.014603942632675171,0.029047727584838867,0.09329735487699509,9.019787788391113,0.8991566300392151,-3.1151649951934814
1403715527357143000,-0.03552037477493286,-0.0037951134145259857,0.08974159508943558,8.954598426818848,0.5559808015823364,-3.1555426120758057
1403715527362143000,-0.047377437353134155,0.018525175750255585,0.07079879194498062,9.321441650390625,0.08220938593149185,-3.48156476020813
1403715527367143000,-0.03550788760185242,-0.001012822613120079,0.07222715765237808,9.11799430847168,0.10664577037096024,-3.155014753341675
1403715527372143000,-0.010380953550338745,0.02413034439086914,0.06730367988348007,9.7792329788208,-0.21233707666397095,-3.3587918281555176
1403715527377143000,0.023763000965118408,0.022664036601781845,0.08759864419698715,8.718240737915039,0.057578567415475845,-2.982923746109009
1403715527382143000,0.023155614733695984,0.0046044159680604935,0.07573626190423965,9.69776725769043,0.34349682927131653,-3.5226762294769287
1403715527387143000,0.004974767565727234,0.03181464225053787,0.06669076532125473,9.166887283325195,0.35169583559036255,-3.114332437515259
1403715527392143000,0.007769376039505005,0.010181954130530357,0.0638611689209938,9.297938346862793,0.10652704536914825,-3.1549668312072754
1403715527397143000,0.030063211917877197,0.022714901715517044,0.09598357230424881,9.069393157958984,0.27806520462036133,-3.138608694076538
1403715527402143000,0.018213793635368347,-0.001694709062576294,0.08200816065073013,9.207932472229004,0.3681237995624542,-3.4491469860076904
1403715527407143000,-0.013139680027961731,0.009541129693388939,0.06118481606245041,9.24029541015625,0.784818708896637,-3.172267436981201
1403715527412143000,-0.02776363492012024,0.014410307630896568,0.06741856783628464,9.428372383117676,0.46609121561050415,-3.049394369125366
1403715527417143000,-0.0216074138879776,0.019885290414094925,0.09800339490175247,9.028212547302246,-0.1385488063097,-3.1788899898529053
1403715527422143000,-0.016709089279174805,0.004571113735437393,0.0937904343008995,9.510178565979004,-0.3022400438785553,-3.1872079372406006
1403715527427143000,-0.01805177330970764,0.034600161015987396,0.07081145793199539,9.542353630065918,-0.04888831451535225,-3.1710546016693115
1403715527432143000,-0.004160061478614807,0.019906848669052124,0.08194147795438766,9.191529273986816,-0.4082722067832947,-2.876474142074585
1403715527437143000,0.03351837396621704,0.024111058562994003,0.10010195523500443,9.347254753112793,-0.1796991378068924,-3.178856134414673
1403715527442143000,0.041233405470848083,0.011569008231163025,0.08616846054792404,9.42890453338623,0.0655575767159462,-3.350743532180786
1403715527447143000,0.010580912232398987,0.018641315400600433,0.06611175090074539,9.46053409576416,1.0788788795471191,-3.360393762588501
1403715527452143000,-0.013861462473869324,0.033914364874362946,0.060435570776462555,9.12566089630127,0.5396293997764587,-3.179995059967041
1403715527457143000,-0.001350119709968567,0.013591724447906017,0.09041134268045425,8.65259075164795,0.3516906499862671,-3.0977396965026855
1403715527462143000,0.006428807973861694,0.0038790423423051834,0.0910671278834343,9.97523307800293,0.25342628359794617,-3.6367979049682617
1403715527467143000,-0.018754184246063232,0.02561848983168602,0.05913626402616501,9.199193954467773,1.0544073581695557,-3.180736780166626
1403715527472143000,-0.04249541461467743,0.033153340220451355,0.05064437538385391,8.741700172424316,0.4416965842247009,-3.0326850414276123
1403715527477143000,-0.013217166066169739,0.001718919724225998,0.09247144311666489,8.710003852844238,-0.04861355572938919,-2.925717353820801
1403715527482143000,-0.006144493818283081,0.018524056300520897,0.08337797969579697,10.048443794250488,0.0654696673154831,-3.661046266555786
1403715527487143000,-0.008303940296173096,0.03878089040517807,0.07509539276361465,8.970693588256836,0.5478284955024719,-3.049212694168091
1403715527492143000,-0.0027439892292022705,0.03590966388583183,0.07643846422433853,8.627988815307617,0.08210643380880356,-2.893080234527588
1403715527497143000,0.04604850709438324,0.006620772182941437,0.10709504038095474,8.922929763793945,-0.3020724952220917,-3.0642199516296387
1403715527502143000,0.04272782802581787,0.022050058469176292,0.08483806997537613,9.918212890625,0.49859291315078735,-3.4982175827026367
1403715527507143000,0.007027611136436462,0.05213506519794464,0.051459185779094696,9.125432014465332,1.1278371810913086,-3.1725306510925293
1403715527512143000,-0.014617323875427246,0.03170619159936905,0.07577940076589584,8.415260314941406,0.5559778809547424,-3.024397850036621
1403715527517143000,-0.004082575440406799,0.0059814974665641785,0.09452343732118607,9.853123664855957,-0.008215433917939663,-3.4243924617767334
1403715527522143000,-0.014513000845909119,0.03673221170902252,0.07091330736875534,9.501300811767578,0.5722776651382446,-3.2454514503479004
1403715527527143000,-0.038986936211586,0.03808142617344856,0.05136098712682724,8.978456497192383,0.5070341229438782,-3.0819098949432373
1403715527532143000,-0.009744763374328613,0.005925670266151428,0.09522447735071182,8.963116645812988,-0.301990270614624,-2.884679079055786
1403715527537143000,0.009879827499389648,0.01924135908484459,0.08336193114519119,10.081704139709473,-0.12278085201978683,-3.4323692321777344
1403715527542143000,9.830296039581299e-05,0.03881077840924263,0.05136915296316147,9.084988594055176,0.5152024626731873,-3.0328209400177
1403715527547143000,-0.0069131553173065186,0.019218653440475464,0.07227907329797745,8.85654067993164,0.441604882478714,-3.1143736839294434
1403715527552143000,0.013310030102729797,0.008769117295742035,0.10637418180704117,9.543209075927734,-0.09809504449367523,-3.228151321411133
1403715527557143000,0.015458360314369202,0.04018744081258774,0.09454569965600967,9.804012298583984,0.10607989877462387,-3.2609846591949463
1403715527562143000,-0.006910160183906555,0.031098905950784683,0.05555317550897598,8.83985424041748,0.6050679683685303,-3.0982418060302734
1403715527567143000,-0.002732783555984497,-0.00942530483007431,0.08621910959482193,8.69374942779541,0.23728618025779724,-3.048628807067871
1403715527572143000,0.009922638535499573,0.008762003853917122,0.09732791036367416,10.286041259765625,0.02409444749355316,-3.4407620429992676
1403715527577143000,-0.00549788773059845,0.029689963907003403,0.033873312175273895,8.831672668457031,0.3437289595603943,-3.089658737182617
1403715527582143000,-0.013903692364692688,-0.0024171192198991776,0.06603836268186569,8.627838134765625,0.6949461698532104,-3.0492172241210938
1403715527587143000,-0.001257389783859253,-0.005851771682500839,0.10224994271993637,9.682015419006348,0.35141006112098694,-3.2371134757995605
1403715527592143000,-0.005466386675834656,0.03321134299039841,0.07918936759233475,9.795674324035645,0.008118030615150928,-3.220167398452759
1403715527597143000,-0.011797666549682617,0.014309573918581009,0.059015534818172455,8.660453796386719,0.4335230588912964,-3.0488901138305664
1403715527602143000,0.002174869179725647,-0.008644228801131248,0.09395066648721695,9.101991653442383,0.6785429120063782,-3.1802165508270264
1403715527607143000,0.00846034288406372,0.028992552310228348,0.11683685332536697,9.99995231628418,-0.008458137512207031,-3.4730618000030518
1403715527612143000,-0.0034020990133285522,0.03808567672967911,0.04710172861814499,9.305435180664062,0.033130284398794174,-3.228231430053711
1403715527617143000,0.004230484366416931,0.0024738777428865433,0.06884484738111496,8.595202445983887,0.7766983509063721,-3.024728775024414
1403715527622143000,0.003635719418525696,0.013684661127626896,0.09320121258497238,9.714118957519531,0.47408175468444824,-3.3759522438049316
1403715527627143000,-0.011102646589279175,0.038041967898607254,0.05687540024518967,8.905461311340332,0.0004807353252544999,-2.991161584854126
1403715527632143000,-0.011798307299613953,-0.017760038375854492,0.0555582270026207,8.652362823486328,0.67048579454422,-3.0900380611419678
1403715527637143000,0.0002311617136001587,0.005299758166074753,0.09671206027269363,10.114066123962402,0.6129777431488037,-3.4984896183013916
1403715527642143000,-0.016018450260162354,0.028901901096105576,0.08128444105386734,8.57083797454834,-0.01588558591902256,-3.089000940322876
1403715527647143000,-0.0013199150562286377,-0.003094501793384552,0.06314247101545334,9.17529296875,0.11488720029592514,-3.342778444290161
1403715527652143000,0.016850590705871582,0.001120738685131073,0.09946707636117935,9.437125205993652,0.32699382305145264,-3.163452386856079
1403715527657143000,0.012651383876800537,0.03600475937128067,0.07293366640806198,9.420248985290527,0.10638481378555298,-3.105842351913452
1403715527662143000,0.014009371399879456,0.0059706177562475204,0.07289687544107437,9.224226951599121,0.11492056399583817,-3.4977469444274902
1403715527667143000,0.010612070560455322,0.018640995025634766,0.08495055884122849,9.632347106933594,1.0625406503677368,-3.327720880508423
1403715527672143000,-0.016667813062667847,0.059731513261795044,0.07225129753351212,9.093194007873535,0.1556507647037506,-2.582594156265259
1403715527677143000,-0.01874120533466339,-0.0016842260956764221,0.06596901267766953,9.151079177856445,0.10661926120519638,-2.844538927078247
1403715527682143000,-0.008853688836097717,-0.00167074054479599,0.09527667611837387,10.14731216430664,0.3594226539134979,-3.2861783504486084
1403715527687143000,-0.02508947253227234,0.044962525367736816,0.06172429770231247,8.676759719848633,-0.17100012302398682,-3.072479248046875
1403715527692143000,-0.010406509041786194,-0.005911312997341156,0.058942265808582306,8.954840660095215,0.0413958802819252,-3.2854206562042236
1403715527697143000,0.006421878933906555,0.01437688060104847,0.08760922402143478,9.72222900390625,0.4005451798439026,-3.408487558364868
1403715527702143000,0.004174396395683289,0.05680520087480545,0.07355376332998276,8.595415115356445,-0.17912991344928741,-3.3581137657165527
1403715527707143000,0.013985350728034973,-0.009442105889320374,0.06659800559282303,8.644752502441406,0.03328610211610794,-3.3830628395080566
1403715527712143000,0.025323137640953064,0.012288791127502918,0.08975700289011002,9.991535186767578,0.7192731499671936,-3.5230257511138916
1403715527717143000,0.001440003514289856,0.055425722151994705,0.06876017898321152,8.497121810913086,-0.04043842479586601,-2.770244836807251
1403715527722143000,0.006373465061187744,-0.026106346398591995,0.0709247812628746,8.840999603271484,0.49068376421928406,-2.9101672172546387
1403715527727143000,-0.0018066316843032837,0.023449741303920746,0.10515611618757248,10.28494930267334,1.0134490728378296,-3.5556912422180176
1403715527732143000,-0.030742347240447998,0.05947287380695343,0.08883772045373917,8.04835033416748,-0.31825947761535645,-3.4886648654937744
1403715527737143000,-0.017315641045570374,-0.009341960772871971,0.09246800094842911,9.624950408935547,0.1880137324333191,-3.0491673946380615
1403715527742143000,-0.006139770150184631,0.06049347668886185,0.11068274825811386,9.706010818481445,0.7110208868980408,-2.935056209564209
1403715527747143000,-0.010497167706489563,0.037896960973739624,0.07352253049612045,8.269200325012207,-0.49789297580718994,-3.3579037189483643
1403715527752143000,0.019650086760520935,-0.015626534819602966,0.08618275076150894,9.576048851013184,0.17173436284065247,-3.2940285205841064
1403715527757143000,0.02114512026309967,0.06539241969585419,0.08347641676664352,10.081682205200195,0.6617352962493896,-2.893907308578491
1403715527762143000,0.010488107800483704,0.007129453122615814,0.04492124170064926,7.779570579528809,-0.40020322799682617,-3.1539664268493652
1403715527767143000,0.022631153464317322,-0.0413128063082695,0.05704537779092789,10.050294876098633,0.9645750522613525,-3.147840976715088
1403715527772143000,-0.0004608035087585449,0.06050439924001694,0.07309509068727493,10.007431030273438,0.9805933833122253,-3.2782630920410156
1403715527777143000,-0.027167484164237976,0.003715597093105316,0.04703735560178757,8.162747383117676,-0.09743674099445343,-3.15419602394104
1403715527782143000,-0.017844051122665405,-0.01620972901582718,0.08289066702127457,10.073958396911621,1.1198147535324097,-3.270505428314209
1403715527787143000,-0.026506498456001282,0.08333981782197952,0.09663090854883194,8.749855995178223,-0.07320210337638855,-2.9907331466674805
1403715527792143000,-0.014632835984230042,-0.016427084803581238,0.08613809198141098,8.791866302490234,-0.3018040060997009,-3.154282331466675
1403715527797143000,0.02058398723602295,0.017176184803247452,0.10650017112493515,10.702400207519531,0.8004878759384155,-3.2779507637023926
1403715527802143000,-0.005563750863075256,0.07078342884778976,0.0812850221991539,8.709327697753906,0.03311758115887642,-3.1216602325439453
1403715527807143000,0.009133860468864441,-0.0478399321436882,0.06734170764684677,8.416488647460938,0.04130022972822189,-3.113569498062134
1403715527812143000,0.015117809176445007,0.009532812982797623,0.07661216706037521,10.890161514282227,1.110978603363037,-3.334869384765625
1403715527817143000,-0.020895063877105713,0.045530881732702255,0.06590332835912704,7.925575256347656,0.09836586564779282,-3.056298017501831
1403715527822143000,-0.002714008092880249,-0.061049915850162506,0.07154897600412369,8.685956001281738,0.19649770855903625,-3.146690607070923
1403715527827143000,0.008745208382606506,0.02765311300754547,0.09536737948656082,10.685877799987793,0.8495650887489319,-3.2534525394439697
1403715527832143000,-0.010447114706039429,0.02460072748363018,0.08405005186796188,7.966914176940918,-0.22032390534877777,-3.0722858905792236
1403715527837143000,0.011542946100234985,-0.06441530585289001,0.0960942730307579,10.47470760345459,1.0381890535354614,-3.4336326122283936
1403715527842143000,-0.017988190054893494,0.05975902080535889,0.06951060146093369,9.615490913391113,0.4986373782157898,-3.171750783920288
1403715527847143000,-0.029242008924484253,-0.012391950935125351,0.044949792325496674,7.78733491897583,-0.13843759894371033,-2.9826457500457764
1403715527852143000,0.0101529061794281,-0.029614053666591644,0.07858655601739883,10.90713882446289,0.522750198841095,-3.4414761066436768
1403715527857143000,-0.008349597454071045,0.10502344369888306,0.07639376074075699,9.133393287658691,0.0003139674663543701,-3.2277445793151855
1403715527862143000,0.007011830806732178,-0.037522539496421814,0.08755937963724136,7.559140682220459,-0.17170779407024384,-2.9989523887634277
1403715527867143000,0.020738571882247925,-0.0024543162435293198,0.09470806270837784,11.257328033447266,1.0213048458099365,-3.709913492202759
1403715527872143000,-0.009743750095367432,0.08455678820610046,0.09523523598909378,7.713225841522217,0.008192725479602814,-2.9500317573547363
1403715527877143000,0.006346285343170166,-0.07225348055362701,0.08763467520475388,8.367671012878418,0.17999835312366486,-2.982987642288208
1403715527882143000,-0.00508745014667511,0.04426998645067215,0.0717247948050499,11.052075386047363,0.9315769076347351,-3.7505407333374023
1403715527887143000,-0.02366216480731964,0.05734392628073692,0.04846508055925369,7.460247039794922,-0.1795867681503296,-2.6804397106170654
1403715527892143000,0.003834560513496399,-0.0721442848443985,0.0820549800992012,10.638203620910645,0.5311538577079773,-3.392867088317871
1403715527897143000,-0.012530982494354248,0.10294583439826965,0.06592049449682236,9.198622703552246,-0.19583019614219666,-3.0641069412231445
1403715527902143000,0.01610468327999115,-0.03677159547805786,0.0799080953001976,7.746686935424805,0.17985735833644867,-3.007167100906372
1403715527907143000,0.009507715702056885,0.024152889847755432,0.07868269830942154,10.799959182739258,0.9885172843933105,-3.408360481262207
1403715527912143000,-0.009037405252456665,0.09236537665128708,0.08133991807699203,8.259795188903809,0.06577837467193604,-2.606779098510742
1403715527917143000,0.006334558129310608,-0.056873008608818054,0.10996899753808975,8.620781898498535,0.31071212887763977,-3.0568008422851562
1403715527922143000,-0.004626289010047913,0.06379622220993042,0.09669848531484604,10.881082534790039,0.1710052341222763,-3.693237543106079
1403715527927143000,0.002136215567588806,0.02671191096305847,0.08690474182367325,7.852366924285889,0.07370174676179886,-2.8274452686309814
1403715527932143000,0.008611977100372314,-0.03162551671266556,0.0716460719704628,9.902215003967285,0.801162838935852,-3.4499828815460205
1403715527937143000,-0.010346531867980957,0.08207686245441437,0.07850237935781479,9.778679847717285,0.08969415724277496,-2.9912428855895996
1403715527942143000,0.005579143762588501,-0.020670592784881592,0.07355525344610214,8.162358283996582,0.38462263345718384,-3.546457052230835
1403715527947143000,-0.010208964347839355,-0.0031398236751556396,0.05901416391134262,10.783920288085938,-0.008583432994782925,-3.612372875213623
1403715527952143000,-0.0027503371238708496,0.03376311808824539,0.06946409493684769,8.252058029174805,0.4089113771915436,-3.0322422981262207
1403715527957143000,-0.007526025176048279,-0.012800503522157669,0.052064575254917145,9.387540817260742,0.5315245389938354,-3.253716468811035
1403715527962143000,0.002201288938522339,0.05065184831619263,0.07989869266748428,9.746451377868652,0.0653490424156189,-3.285405397415161
1403715527967143000,0.005642101168632507,0.01996196247637272,0.07579647749662399,9.2723388671875,0.8258059620857239,-3.547762393951416
1403715527972143000,-0.03193843364715576,0.04644431546330452,0.0485200360417366,9.924982070922852,0.07393539696931839,-3.6691524982452393
1403715527977143000,-0.002054378390312195,0.058967508375644684,0.08205682784318924,8.766362190246582,0.5069449543952942,-3.0898916721343994
1403715527982143000,-0.01806764304637909,0.041552573442459106,0.06389414519071579,8.913602828979492,0.2292027473449707,-2.868929386138916
1403715527987143000,-0.0006842315196990967,0.04428378865122795,0.08406466990709305,8.80766773223877,-0.23652198910713196,-3.0397069454193115
1403715527992143000,0.018227458000183105,0.008116100914776325,0.09046884626150131,9.207985877990723,0.7357478141784668,-3.229295015335083
1403715527997143000,-0.011819913983345032,0.04987877979874611,0.05686073750257492,8.782797813415527,-0.25276193022727966,-2.819148063659668
1403715528002143000,0.025888636708259583,-0.01003255695104599,0.09956861287355423,9.00425910949707,0.7848242521286011,-3.074047327041626
1403715528007143000,-0.004692405462265015,0.02480858564376831,0.04718010872602463,9.965396881103516,0.5317953824996948,-3.8490195274353027
1403715528012143000,0.011892735958099365,0.019167333841323853,0.07090640813112259,8.382611274719238,0.7113196849822998,-3.073495864868164
1403715528017143000,-0.0060083866119384766,-0.003033723682165146,0.04646577686071396,10.196295738220215,0.28598901629447937,-3.1473989486694336
1403715528022143000,-0.01949271559715271,0.023342575877904892,0.05336116999387741,8.693276405334473,-0.27715981006622314,-2.9336140155792236
1403715528027143000,-0.008283227682113647,-0.047706492245197296,0.07933510094881058,8.930933952331543,0.7439940571784973,-3.0004491806030273
1403715528032143000,-0.043634966015815735,0.03041144832968712,0.055572278797626495,10.40759563446045,0.36773455142974854,-3.351407289505005
1403715528037143000,-0.0006696730852127075,0.02195940911769867,0.11415522545576096,8.652572631835938,0.4496942162513733,-3.0406556129455566
1403715528042143000,-0.019465401768684387,0.019228637218475342,0.06798230856657028,9.90933609008789,-0.21198002994060516,-3.88936448097229
1403715528047143000,0.011180326342582703,0.06315584480762482,0.079172782599926,8.954314231872559,-0.3836210072040558,-2.72090482711792
1403715528052143000,0.02172960340976715,0.02903880923986435,0.05550170689821243,9.248952865600586,0.1228564977645874,-2.9015820026397705
1403715528057143000,-0.004873529076576233,0.049873411655426025,0.047053225338459015,8.929818153381348,-0.5958089828491211,-2.974104166030884
1403715528062143000,0.023801296949386597,-0.008664369583129883,0.07508151978254318,8.963117599487305,0.5478565096855164,-3.220717668533325
1403715528067143000,-0.020140498876571655,0.04436008632183075,0.0701545849442482,9.435430526733398,0.3680579364299774,-3.4980945587158203
1403715528072143000,0.009057149291038513,0.007978777401149273,0.13102254271507263,8.048029899597168,0.6134144067764282,-2.279812812805176
1403715528077143000,-0.02215135097503662,-0.005208795890212059,0.08478797227144241,10.162816047668457,0.14709098637104034,-3.6939895153045654
1403715528082143000,-0.004130497574806213,0.030388198792934418,0.10780464857816696,9.281333923339844,0.16357266902923584,-3.211977481842041
1403715528087143000,-0.0026646405458450317,0.01722671650350094,0.08980246633291245,9.477283477783203,0.8909519910812378,-3.2377564907073975
1403715528092143000,-0.014626339077949524,0.06806410104036331,0.08613999933004379,9.215346336364746,-0.2612723410129547,-2.884460687637329
1403715528097143000,0.018184959888458252,0.003110608085989952,0.09739983826875687,8.530559539794922,0.12287700921297073,-2.8358795642852783
1403715528102143000,-0.009609133005142212,0.019934460520744324,0.05338618904352188,10.228128433227539,-0.15533483028411865,-3.5385286808013916
1403715528107143000,0.02168227732181549,0.03661767393350601,0.07859659940004349,8.374794960021973,0.3028467297554016,-2.5170841217041016
1403715528112143000,0.0008784979581832886,-0.010739341378211975,0.027590371668338776,9.852326393127441,0.19657540321350098,-3.653280735015869
1403715528117143000,-0.004116430878639221,0.010142857208848,0.05552617460489273,8.750282287597656,0.46620920300483704,-3.1224935054779053
1403715528122143000,-0.013124123215675354,-0.003740783780813217,0.04578154534101486,9.394906997680664,0.629673957824707,-3.46604585647583
1403715528127143000,-0.020904943346977234,0.03737369552254677,0.06027344614267349,9.607168197631836,-0.6615574359893799,-3.0968921184539795
1403715528132143000,-0.002689570188522339,-0.01214144378900528,0.07507509738206863,9.102235794067383,0.3680424690246582,-3.016453504562378
1403715528137143000,-0.03824315965175629,0.01644180901348591,0.05760035663843155,9.679821014404297,0.42550331354141235,-3.7757508754730225
1403715528142143000,-0.0027705878019332886,0.009386524558067322,0.09608300775289536,8.284893989562988,0.7194664478302002,-2.803701400756836
1403715528147143000,-0.009658381342887878,-0.0016883648931980133,0.08336056023836136,9.828690528869629,-0.04089360684156418,-3.3591766357421875
1403715528152143000,0.006252855062484741,0.03944097086787224,0.08470556885004044,9.289501190185547,-0.620629072189331,-3.2763795852661133
1403715528157143000,0.03149819374084473,-0.01212180033326149,0.09673377126455307,9.192403793334961,0.564088761806488,-3.0493273735046387
1403715528162143000,0.022314593195915222,0.024101924151182175,0.11820533126592636,9.444998741149902,-0.4822254776954651,-3.064176559448242
1403715528167143000,0.05102723836898804,-0.032352644950151443,0.11213108152151108,9.119220733642578,0.7848175764083862,-3.0577051639556885
1403715528172143000,0.005678609013557434,0.006683210842311382,0.0953136458992958,9.558222770690918,0.7440999150276184,-3.6863183975219727
1403715528177143000,0.01048368215560913,0.010818268172442913,0.10867442935705185,8.415804862976074,0.7604463696479797,-2.681110143661499
1403715528182143000,-0.0311785489320755,-0.006593586876988411,0.0680733248591423,10.179086685180664,0.21255554258823395,-3.6207427978515625
1403715528187143000,-0.022140800952911377,0.04787075147032738,0.06040578335523605,9.917494773864746,0.22890126705169678,-3.3265607357025146
1403715528192143000,-0.02015291154384613,0.02142137475311756,0.05703211575746536,9.247882843017578,1.0707619190216064,-3.3277976512908936
1403715528197143000,-0.027889609336853027,0.026862816885113716,0.05820246785879135,8.995357513427734,-0.33432045578956604,-3.2848942279815674
1403715528202143000,-0.0012897998094558716,-0.017027966678142548,0.06525907665491104,9.290102005004883,0.12292206287384033,-3.1061525344848633
1403715528207143000,-0.013847172260284424,0.005996633321046829,0.04221031814813614,9.468692779541016,0.08223392069339752,-3.473484754562378
1403715528212143000,0.028635099530220032,0.023363031446933746,0.10084693878889084,8.791869163513184,-0.007889345288276672,-2.9991636276245117
1403715528217143000,0.005670338869094849,0.0004129558801651001,0.0659707710146904,9.256606101989746,0.42534545063972473,-3.4493165016174316
1403715528222143000,0.0314176082611084,0.04428482428193092,0.11561710387468338,8.39932918548584,0.5478798747062683,-2.648226022720337
