#timestamp [ns],w_RS_S_x [rad s^-1],w_RS_S_y [rad s^-1],w_RS_S_z [rad s^-1],a_RS_S_x [m s^-2],a_RS_S_y [m s^-2],a_RS_S_z [m s^-2]
1403715523912143000,-0.0006981317007977319,0.019547687622336492,0.0767944870877505,9.218250999999999,0.3023717083333333,-3.1544724166666662
1403715523917143000,-0.0006981317007977319,0.020943951023931952,0.07260569688296412,9.316317499999998,0.29419949999999995,-3.2525389166666665
1403715523922143000,-0.003490658503988659,0.023038346126325153,0.0747000919853573,9.210078791666666,0.29419949999999995,-3.178989041666666
1403715523927143000,-0.0027925268031909274,0.017453292519943295,0.07819075048934597,9.324489708333333,0.3023717083333333,-3.260711125
1403715523932143000,-0.003490658503988659,0.02234021442552742,0.08028514559173915,9.226423208333333,0.269682875,-3.195333458333333
1403715523937143000,-0.0027925268031909274,0.021642082724729686,0.08098327729253688,9.324489708333333,0.34323275000000003,-3.219850083333333
1403715523942143000,-0.0006981317007977319,0.024434609527920613,0.07749261878854824,9.226423208333333,0.34323275000000003,-3.178989041666666
1403715523947143000,0.0,0.01884955592153876,0.07819075048934597,9.299973083333333,0.35957716666666667,-3.178989041666666
1403715523952143000,0.0,0.020943951023931952,0.07888888219014369,9.234595416666666,0.3350605416666666,-3.211677875
1403715523957143000,-0.0020943951023931952,0.02024581932313422,0.07749261878854824,9.308145291666667,0.367749375,-3.2035056666666666
1403715523962143000,-0.0027925268031909274,0.024434609527920613,0.07958701389094143,9.201906583333333,0.3023717083333333,-3.138128
1403715523967143000,-0.0013962634015954637,0.02024581932313422,0.0767944870877505,9.291800875,0.34323275000000003,-3.170816833333333
1403715523972143000,-0.0013962634015954637,0.021642082724729686,0.07609635538695278,9.234595416666666,0.3105439166666667,-3.2035056666666666
1403715523977143000,-0.003490658503988659,0.02024581932313422,0.07539822368615504,9.291800875,0.35140495833333335,-3.219850083333333
1403715523982143000,-0.004886921905584123,0.023736477827122883,0.0767944870877505,9.259112041666667,0.3105439166666667,-3.18716125
1403715523987143000,-0.0027925268031909274,0.019547687622336492,0.07539822368615504,9.275456458333332,0.34323275000000003,-3.195333458333333
1403715523992143000,-0.003490658503988659,0.020943951023931952,0.07609635538695278,9.226423208333333,0.318716125,-3.211677875
1403715523997143000,-0.003490658503988659,0.017453292519943295,0.0747000919853573,9.242767624999999,0.35140495833333335,-3.219850083333333
1403715524002143000,-0.003490658503988659,0.01884955592153876,0.08028514559173915,9.226423208333333,0.29419949999999995,-3.170816833333333
1403715524007143000,-0.004886921905584123,0.01884955592153876,0.07819075048934597,9.283628666666665,0.35957716666666667,-3.211677875
1403715524012143000,-0.003490658503988659,0.023736477827122883,0.07539822368615504,9.226423208333333,0.3350605416666666,-3.2035056666666666
1403715524017143000,0.0006981317007977319,0.016755160819145562,0.07888888219014369,9.26728425,0.3350605416666666,-3.2035056666666666
1403715524022143000,-0.0027925268031909274,0.016755160819145562,0.07888888219014369,9.242767624999999,0.3023717083333333,-3.2035056666666666
1403715524027143000,-0.0013962634015954637,0.016755160819145562,0.07819075048934597,9.275456458333332,0.35140495833333335,-3.18716125
1403715524032143000,-0.0006981317007977319,0.02234021442552742,0.07819075048934597,9.259112041666667,0.318716125,-3.18716125
1403715524037143000,-0.0013962634015954637,0.023038346126325153,0.07609635538695278,9.283628666666665,0.318716125,-3.2035056666666666
1403715524042143000,0.0020943951023931952,0.023736477827122883,0.08377580409572781,9.242767624999999,0.3023717083333333,-3.170816833333333
1403715524047143000,-0.0013962634015954637,0.01815142422074103,0.0767944870877505,9.324489708333333,0.3350605416666666,-3.211677875
1403715524052143000,-0.0027925268031909274,0.021642082724729686,0.0767944870877505,9.26728425,0.3023717083333333,-3.195333458333333
1403715524057143000,-0.005461675114929676,0.021169066429138184,0.07875493168830872,9.263885498046875,0.34870120882987976,-3.1903183460235596
1403715524062143000,-0.0008381428197026253,0.020499765872955322,0.07870926707983017,9.231139183044434,0.31565460562705994,-3.158205270767212
1403715524067143000,-0.0006534876301884651,0.01624538004398346,0.0740252211689949,9.2638578414917,0.3484923839569092,-3.182370185852051
1403715524072143000,-0.0048912884667515755,0.019762039184570312,0.07945116609334946,9.214717864990234,0.2757033407688141,-3.190579414367676
1403715524077143000,-0.00576628465205431,0.01491767168045044,0.07461463660001755,9.288243293762207,0.33214038610458374,-3.1826491355895996
1403715524082143000,-0.003897381015121937,0.01908715069293976,0.07528635114431381,9.166107177734375,0.3320416808128357,-3.1824300289154053
1403715524087143000,-0.0036328257992863655,0.01760423183441162,0.07597693055868149,9.263812065124512,0.3566622734069824,-3.1740212440490723
1403715524092143000,-0.004196536727249622,0.01908104121685028,0.07885755598545074,9.190457344055176,0.28369125723838806,-3.149961233139038
1403715524097143000,-0.004147988744080067,0.01904621720314026,0.07813584804534912,9.247662544250488,0.32434728741645813,-3.166335344314575
1403715524102143000,-0.00502247828990221,0.02319978177547455,0.07791565358638763,9.182106018066406,0.2831783890724182,-3.1581225395202637
1403715524107143000,-0.006065947003662586,0.019032463431358337,0.07611249387264252,9.223193168640137,0.3644486665725708,-3.198521375656128
1403715524112143000,-0.006363135762512684,0.021889761090278625,0.07878124713897705,9.20666790008545,0.3483603894710541,-3.2065370082855225
1403715524117143000,-0.006921333260834217,0.019103750586509705,0.08011504262685776,9.174030303955078,0.3403012156486511,-3.1664083003997803
1403715524122143000,-0.006384623236954212,0.025372520089149475,0.07957196235656738,9.182295799255371,0.30766814947128296,-3.190664768218994
1403715524127143000,-0.004184556193649769,0.022528663277626038,0.07601822912693024,9.247584342956543,0.3407612144947052,-3.182159423828125
1403715524132143000,-0.006207865662872791,0.019053101539611816,0.08068577945232391,9.206708908081055,0.3321806788444519,-3.1745803356170654
1403715524137143000,-0.005681526847183704,0.01972830295562744,0.08166494965553284,9.255334854125977,0.3075218200683594,-3.2150330543518066
1403715524142143000,-0.004883718676865101,0.023996204137802124,0.07954996079206467,9.206674575805664,0.3322329819202423,-3.198698043823242
1403715524147143000,-0.0049066366627812386,0.020480364561080933,0.07526672631502151,9.271785736083984,0.3486822247505188,-3.2394278049468994
1403715524152143000,-0.004150462336838245,0.023247942328453064,0.07734560966491699,9.255681991577148,0.29974332451820374,-3.19858980178833
1403715524157143000,-0.0042251767590641975,0.02042315900325775,0.07879140228033066,9.239496231079102,0.38073787093162537,-3.1662535667419434
1403715524162143000,-0.005618584342300892,0.021174758672714233,0.07879585772752762,9.214725494384766,0.29989752173423767,-3.2069296836853027
1403715524167143000,-0.005552810616791248,0.019121959805488586,0.07611607015132904,9.207043647766113,0.3242754340171814,-3.1335721015930176
1403715524172143000,-0.006323588080704212,0.021833151578903198,0.07798076421022415,9.231036186218262,0.26716721057891846,-3.182729959487915
1403715524177143000,-0.006206941790878773,0.02108544111251831,0.076604463160038,9.247613906860352,0.3562600910663605,-3.2067861557006836
1403715524182143000,-0.0055758776143193245,0.020543411374092102,0.07817752659320831,9.263965606689453,0.29993200302124023,-3.166275978088379
1403715524187143000,-0.006363254971802235,0.02185910940170288,0.07682452350854874,9.239542007446289,0.33230161666870117,-3.158015727996826
1403715524192143000,-0.003432554192841053,0.021813198924064636,0.07798364013433456,9.206878662109375,0.32365888357162476,-3.1906511783599854
1403715524197143000,-0.001469743438065052,0.02046319842338562,0.07663850486278534,9.263777732849121,0.3247435986995697,-3.1662211418151855
1403715524202143000,-0.0014397623017430305,0.021195754408836365,0.07739315927028656,9.19853401184082,0.29960429668426514,-3.182461977005005
1403715524207143000,-0.002758038230240345,0.017681986093521118,0.0802287608385086,9.263540267944336,0.33999133110046387,-3.182356834411621
1403715524212143000,-0.0042070867493748665,0.019741475582122803,0.08227329701185226,9.206897735595703,0.3565118610858917,-3.157905340194702
1403715524217143000,-0.004170280881226063,0.02111169695854187,0.0787762999534607,9.247841835021973,0.3323042392730713,-3.166231155395508
1403715524222143000,-0.005486798472702503,0.02330675721168518,0.07597904652357101,9.255562782287598,0.2915722727775574,-3.1744470596313477
1403715524227143000,-0.004943353123962879,0.019751116633415222,0.07947615534067154,9.263860702514648,0.31611549854278564,-3.1824493408203125
1403715524232143000,-0.00895924586802721,0.02109675109386444,0.0788460224866867,9.231317520141602,0.2675095200538635,-3.1502158641815186
1403715524237143000,-0.006321770139038563,0.01766587793827057,0.07538224756717682,9.28034496307373,0.3232637345790863,-3.1660208702087402
1403715524242143000,-0.005563330836594105,0.02463008463382721,0.07939086854457855,9.223341941833496,0.30786120891571045,-3.1741456985473633
1403715524247143000,-0.0055512310937047005,0.017682552337646484,0.07254821062088013,9.280196189880371,0.3487094044685364,-3.182659149169922
1403715524252143000,-0.00221214909106493,0.02184535562992096,0.07730487734079361,9.26363468170166,0.3152028024196625,-3.2311618328094482
1403715524257143000,-0.00479320902377367,0.018345609307289124,0.07535877823829651,9.321026802062988,0.36478015780448914,-3.2233316898345947
1403715524262143000,-0.004277867265045643,0.022584617137908936,0.07606102526187897,9.247478485107422,0.29181790351867676,-3.182385206222534
1403715524267143000,-0.005458635278046131,0.0218525230884552,0.07591547071933746,9.256000518798828,0.3560013175010681,-3.182145118713379
1403715524272143000,-0.005652976222336292,0.023239687085151672,0.07794031500816345,9.206708908081055,0.31575244665145874,-3.190723180770874
1403715524277143000,-0.006284368224442005,0.01831895112991333,0.0761205181479454,9.239294052124023,0.33297568559646606,-3.1660337448120117
1403715524282143000,-0.006215435452759266,0.019782036542892456,0.073928102850914,9.190356254577637,0.2754095196723938,-3.207066535949707
1403715524287143000,-0.005082768388092518,0.01980625092983246,0.0717865452170372,9.20722484588623,0.324156254529953,-3.1504297256469727
1403715524292143000,-0.003965568728744984,0.022567957639694214,0.0801834911108017,9.182219505310059,0.3162054419517517,-3.1499404907226562
1403715524297143000,-0.005767089314758778,0.021861925721168518,0.07465141266584396,9.280303955078125,0.34832942485809326,-3.2069215774536133
1403715524302143000,-0.006891113705933094,0.019812598824501038,0.07658816874027252,9.223050117492676,0.2830750048160553,-3.182675361633301
1403715524307143000,-0.005519968457520008,0.016918674111366272,0.0718843936920166,9.26372241973877,0.33210620284080505,-3.22318434715271
1403715524312143000,-0.0057114483788609505,0.021144315600395203,0.0786532312631607,9.231220245361328,0.3242494463920593,-3.190253257751465
1403715524317143000,-0.006144058890640736,0.017663732171058655,0.07678549736738205,9.20682430267334,0.34024950861930847,-3.1744439601898193
1403715524322143000,-0.007137489505112171,0.018376082181930542,0.08091942965984344,9.214485168457031,0.2915985584259033,-3.2067205905914307
1403715524327143000,-0.006215197034180164,0.019737422466278076,0.08015692979097366,9.26406478881836,0.3570103943347931,-3.1578707695007324
1403715524332143000,-0.0035687508061528206,0.020486801862716675,0.07729991525411606,9.20667552947998,0.2757048010826111,-3.16644024848938
1403715524337143000,-0.004170161671936512,0.018374547362327576,0.07533469051122665,9.28033447265625,0.364475816488266,-3.1580393314361572
1403715524342143000,-0.004902583546936512,0.021840721368789673,0.07679401338100433,9.223190307617188,0.25158217549324036,-3.1904358863830566
1403715524347143000,-0.009004843421280384,0.016229495406150818,0.07818062603473663,9.279942512512207,0.30767107009887695,-3.1906816959381104
1403715524352143000,-0.008349877782166004,0.021162718534469604,0.0821242406964302,9.214488983154297,0.30714449286460876,-3.206878900527954
1403715524357143000,-0.007575732655823231,0.02184194326400757,0.07531218230724335,9.264018058776855,0.35682815313339233,-3.2066421508789062
1403715524362143000,-0.009727847762405872,0.025324955582618713,0.07801133394241333,9.190645217895508,0.291150838136673,-3.1500461101531982
1403715524367143000,-0.007122945971786976,0.0183849036693573,0.0746876671910286,9.223240852355957,0.3402249813079834,-3.182476758956909
1403715524372143000,-0.004861426539719105,0.021875008940696716,0.07884334772825241,9.20675277709961,0.3161674737930298,-3.15767765045166
1403715524377143000,-0.002903473563492298,0.019082456827163696,0.07681045681238174,9.214856147766113,0.3241022229194641,-3.182680606842041
1403715524382143000,-0.00347138661891222,0.023987606167793274,0.07799575477838516,9.174088478088379,0.2833854854106903,-3.1661264896392822
1403715524387143000,-0.0021355273202061653,0.0176466703414917,0.07522059231996536,9.280028343200684,0.3242573142051697,-3.2228758335113525
1403715524392143000,-0.004222852177917957,0.02184024453163147,0.07738669961690903,9.19064712524414,0.29973018169403076,-3.125784397125244
1403715524397143000,-0.004755538888275623,0.019785940647125244,0.0781516581773758,9.280007362365723,0.31617623567581177,-3.198990821838379
1403715524402143000,-0.004288387484848499,0.02259509265422821,0.08231138437986374,9.20677375793457,0.275320440530777,-3.166130542755127
1403715524407143000,-0.00540433544665575,0.018346622586250305,0.07739545404911041,9.247419357299805,0.3318383991718292,-3.207416534423828
1403715524412143000,-0.006415319629013538,0.020454153418540955,0.07592301070690155,9.215348243713379,0.32433587312698364,-3.125209093093872
1403715524417143000,-0.006934774108231068,0.021097704768180847,0.07811422646045685,9.304917335510254,0.3074307143688202,-3.1828067302703857
1403715524422143000,-0.0034360410645604134,0.019838377833366394,0.07604610174894333,9.25570297241211,0.3317425847053528,-3.1905357837677
1403715524427143000,-0.006287139840424061,0.0197342187166214,0.07399605959653854,9.264179229736328,0.3408420979976654,-3.1661977767944336
1403715524432143000,-0.00559882540255785,0.021794065833091736,0.07801578938961029,9.247598648071289,0.3075060546398163,-3.158158540725708
1403715524437143000,-0.00559042114764452,0.021902188658714294,0.07183787226676941,9.296573638916016,0.308084636926651,-3.1905786991119385
1403715524442143000,-0.006182861514389515,0.02055637538433075,0.08078720420598984,9.223249435424805,0.34041598439216614,-3.141669273376465
1403715524447143000,-0.008435559459030628,0.02245180308818817,0.07122167199850082,9.272262573242188,0.27519166469573975,-3.191004753112793
1403715524452143000,-0.0069206478074193,0.021121427416801453,0.07809115946292877,9.239675521850586,0.2998046576976776,-3.1419355869293213
1403715524457143000,-0.007684660144150257,0.023253798484802246,0.07803559303283691,9.280129432678223,0.3078886568546295,-3.1989681720733643
1403715524462143000,-0.004226964898407459,0.021212279796600342,0.07940240204334259,9.239295959472656,0.3151937425136566,-3.182359218597412
1403715524467143000,-0.004148763604462147,0.023220017552375793,0.07403542846441269,9.255762100219727,0.30780863761901855,-3.190887451171875
1403715524472143000,-0.002185237593948841,0.023245304822921753,0.08007564395666122,9.231233596801758,0.34046095609664917,-3.149726629257202
1403715524477143000,-0.004735124297440052,0.019790589809417725,0.08223626762628555,9.271930694580078,0.33983537554740906,-3.17417573928833
1403715524482143000,-0.005038243718445301,0.02115429937839508,0.08163875341415405,9.198395729064941,0.33205947279930115,-3.1905014514923096
1403715524487143000,-0.004693818278610706,0.02319703996181488,0.08219821006059647,9.271657943725586,0.32435867190361023,-3.214926242828369
1403715524492143000,-0.00424001831561327,0.019765108823776245,0.0836106613278389,9.239150047302246,0.3078860342502594,-3.198875904083252
1403715524497143000,-0.007663768716156483,0.020464390516281128,0.07749269902706146,9.255608558654785,0.307969868183136,-3.1989569664001465
1403715524502143000,-0.006993395276367664,0.01835976541042328,0.07592342793941498,9.255939483642578,0.2916540503501892,-3.1743226051330566
1403715524507143000,-0.008299452252686024,0.023239493370056152,0.07478395849466324,9.239779472351074,0.3321961760520935,-3.1987125873565674
1403715524512143000,-0.004286241717636585,0.017021149396896362,0.0766977071762085,9.23923110961914,0.3567309081554413,-3.198683023452759
1403715524517143000,-0.004095745272934437,0.02046169340610504,0.07517291605472565,9.222941398620605,0.3401060998439789,-3.206777811050415
1403715524522143000,-0.007105153985321522,0.019684448838233948,0.07461763918399811,9.24779987335205,0.348338782787323,-3.18241024017334
1403715524527143000,-0.008250248618423939,0.021893084049224854,0.07601683586835861,9.214717864990234,0.3003496527671814,-3.214913845062256
1403715524532143000,-0.005634319968521595,0.019085004925727844,0.0731528103351593,9.288393020629883,0.33980587124824524,-3.1907105445861816
1403715524537143000,-0.006863069720566273,0.022494986653327942,0.07600822299718857,9.263914108276367,0.29946792125701904,-3.1982955932617188
1403715524542143000,-0.0077111246064305305,0.019747480750083923,0.07815476506948471,9.223243713378906,0.32492557168006897,-3.1745598316192627
1403715524547143000,-0.008372914977371693,0.02188415825366974,0.08006998896598816,9.23086929321289,0.3237505853176117,-3.198753833770752
1403715524552143000,-0.006303024478256702,0.021854057908058167,0.07937055081129074,9.247488975524902,0.34831658005714417,-3.214625835418701
1403715524557143000,-0.00476760882884264,0.025309383869171143,0.08155116438865662,9.230879783630371,0.30849266052246094,-3.182272434234619
1403715524562143000,-0.004344058223068714,0.020435810089111328,0.07881893217563629,9.21484661102295,0.316001296043396,-3.182526111602783
1403715524567143000,-0.005472105927765369,0.020525500178337097,0.07534125447273254,9.174077033996582,0.33155420422554016,-3.231030225753784
1403715524572143000,-0.00909475702792406,0.016943126916885376,0.07806320488452911,9.279812812805176,0.348588764667511,-3.2229161262512207
1403715524577143000,-0.0042002322152256966,0.021843403577804565,0.07741809636354446,9.231317520141602,0.29989373683929443,-3.182321786880493
1403715524582143000,-0.0033810557797551155,0.02118740975856781,0.07321276515722275,9.280360221862793,0.31593558192253113,-3.1987879276275635
1403715524587143000,-0.004232448525726795,0.023265406489372253,0.07933283597230911,9.296062469482422,0.2836568057537079,-3.2065811157226562
1403715524592143000,-0.006334823556244373,0.01482953131198883,0.07607491314411163,9.312984466552734,0.3484222888946533,-3.2149033546447754
1403715524597143000,-0.002054852433502674,0.022503748536109924,0.0794609785079956,9.27983570098877,0.30794620513916016,-3.206599712371826
1403715524602143000,-0.004804146476089954,0.02115871012210846,0.08082353323698044,9.304347038269043,0.29128196835517883,-3.223186492919922
1403715524607143000,-0.006234270520508289,0.022601529955863953,0.077462337911129,9.223353385925293,0.3238458037376404,-3.174184799194336
1403715524612143000,-0.007683617062866688,0.021760284900665283,0.07456467300653458,9.312744140625,0.34004858136177063,-3.231067657470703
1403715524617143000,-0.005486649461090565,0.02394041419029236,0.08069194108247757,9.23119831085205,0.3155117928981781,-3.2063746452331543
1403715524622143000,-0.005522054620087147,0.02606351673603058,0.07750282436609268,9.2639741897583,0.348093718290329,-3.231266498565674
1403715524627143000,-0.004909318871796131,0.019811853766441345,0.08017823100090027,9.238866806030273,0.2996925115585327,-3.1902847290039062
1403715524632143000,-0.003416699357330799,0.019697874784469604,0.07518386095762253,9.312679290771484,0.3322329819202423,-3.2150449752807617
1403715524637143000,-0.005696815438568592,0.02255810797214508,0.07880192995071411,9.19865894317627,0.2835901975631714,-3.1660585403442383
1403715524642143000,-0.00691832322627306,0.018443241715431213,0.07746607065200806,9.272003173828125,0.3319803476333618,-3.182344913482666
1403715524647143000,-0.004221213050186634,0.02186080813407898,0.0814887285232544,9.214665412902832,0.259164422750473,-3.1660819053649902
1403715524652143000,-0.0033627869561314583,0.018972262740135193,0.07893727719783783,9.279964447021484,0.3403114378452301,-3.2070329189300537
1403715524657143000,-0.004379254765808582,0.020469054579734802,0.08145830035209656,9.214770317077637,0.34001031517982483,-3.149667739868164
1403715524662143000,-0.006126624532043934,0.019811004400253296,0.07660295814275742,9.239546775817871,0.30777591466903687,-3.2070600986480713
1403715524667143000,-0.00564990658313036,0.02187708020210266,0.08029872179031372,9.239219665527344,0.34826692938804626,-3.1577377319335938
1403715524672143000,-0.005478602834045887,0.021034076809883118,0.0809374749660492,9.231074333190918,0.3322715163230896,-3.1744768619537354
1403715524677143000,-0.003624451346695423,0.020437508821487427,0.07737364619970322,9.272393226623535,0.32390013337135315,-3.1418685913085938
1403715524682143000,-0.004862797446548939,0.024014145135879517,0.07738475501537323,9.263566017150879,0.2839260697364807,-3.198801279067993
1403715524687143000,-0.00559003371745348,0.02048969268798828,0.07732609659433365,9.206886291503906,0.29986831545829773,-3.1497950553894043
1403715524692143000,-0.006303173489868641,0.021813616156578064,0.07743839174509048,9.28006362915039,0.3240084946155548,-3.207223653793335
1403715524697143000,-0.007592332549393177,0.018389195203781128,0.07676976174116135,9.239618301391602,0.3326602578163147,-3.15812611579895
1403715524702143000,-0.007676434703171253,0.019089102745056152,0.0739176794886589,9.223134994506836,0.2994860112667084,-3.2068581581115723
1403715524707143000,-0.0036132754758000374,0.013502329587936401,0.07598357647657394,9.27189826965332,0.34066686034202576,-3.149836778640747
1403715524712143000,-0.0069474102929234505,0.019699543714523315,0.07253482937812805,9.247618675231934,0.275735467672348,-3.1829397678375244
1403715524717143000,-0.006353420205414295,0.016986370086669922,0.07665906846523285,9.255778312683105,0.3234891891479492,-3.1905813217163086
1403715524722143000,-0.006883156485855579,0.021182924509048462,0.08021273463964462,9.198298454284668,0.30777066946029663,-3.1825029850006104
1403715524727143000,-0.008425784297287464,0.019033044576644897,0.07664227485656738,9.206814765930176,0.3405909240245819,-3.198899269104004
1403715524732143000,-0.004848283715546131,0.023227378726005554,0.07591430842876434,9.231228828430176,0.2997307777404785,-3.1825551986694336
1403715524737143000,-0.002858203835785389,0.016239553689956665,0.07881731539964676,9.288525581359863,0.38096481561660767,-3.1663365364074707
1403715524742143000,-0.0076177241280674934,0.02459535002708435,0.07951024919748306,9.247486114501953,0.3004136085510254,-3.2150702476501465
1403715524747143000,-0.004903924651443958,0.02048461139202118,0.07673641294240952,9.263962745666504,0.33977752923965454,-3.1825597286224365
1403715524752143000,-0.004239034838974476,0.021888792514801025,0.07941656559705734,9.19851303100586,0.29171714186668396,-3.166222333908081
1403715524757143000,-0.00693888682872057,0.019042447209358215,0.07532800734043121,9.288670539855957,0.324588805437088,-3.150207042694092
1403715524762143000,-0.005570542998611927,0.019122213125228882,0.07670142501592636,9.231297492980957,0.291085422039032,-3.1338136196136475
1403715524767143000,-0.010525536723434925,0.024634405970573425,0.07599791884422302,9.22347640991211,0.3320726156234741,-3.215292453765869
1403715524772143000,-0.010307562537491322,0.02607838809490204,0.07753381133079529,9.207270622253418,0.3485954999923706,-3.1175098419189453
1403715524777143000,-0.006278258748352528,0.02042180299758911,0.06900740414857864,9.337120056152344,0.2752778232097626,-3.264410972595215
1403715524782143000,-0.013269436545670033,0.014125704765319824,0.08005700260400772,9.012115478515625,0.6236055493354797,-3.1081652641296387
1403715524787143000,-0.024805258959531784,0.017514705657958984,0.083741195499897,9.43489933013916,0.5669717192649841,-3.295980930328369
1403715524792143000,-0.03129386529326439,0.025395482778549194,0.08644235134124756,9.207119941711426,0.2279691845178604,-3.1494030952453613
1403715524797143000,-0.017637204378843307,0.011392593383789062,0.08778023719787598,9.263700485229492,-0.08848636597394943,-3.117943286895752
1403715524802143000,0.015280860476195812,0.03680804371833801,0.06927251070737839,9.369318962097168,-0.6082760095596313,-3.0767364501953125
1403715524807143000,0.051442716270685196,0.012927636504173279,0.07204442471265793,8.987187385559082,-0.07387037575244904,-3.052854299545288
1403715524812143000,0.057654786854982376,0.024763837456703186,0.04428962990641594,9.581172943115234,0.19311967492103577,-3.313781499862671
1403715524817143000,0.03437786176800728,0.029887273907661438,0.05285733565688133,8.75233268737793,1.3903783559799194,-3.040861129760742
1403715524822143000,-0.02197546884417534,0.0013269484043121338,0.08240107446908951,9.373137474060059,1.7821637392044067,-3.489882469177246
1403715524827143000,-0.08915260434150696,0.028309792280197144,0.09579536318778992,9.030951499938965,1.1229342222213745,-3.1802077293395996
1403715524832143000,-0.11200399696826935,0.012688830494880676,0.1104438379406929,9.207426071166992,0.10153959691524506,-3.2069878578186035
1403715524837143000,-0.07464635372161865,0.018615663051605225,0.10561373829841614,9.368346214294434,-1.1802825927734375,-2.9720451831817627
1403715524842143000,-0.0020090313628315926,0.028271690011024475,0.08657010644674301,9.283177375793457,-1.1313233375549316,-3.0688538551330566
1403715524847143000,0.059499625116586685,0.01068529486656189,0.08229439705610275,9.21658706665039,-0.5638545751571655,-2.954601526260376
1403715524852143000,0.0787847638130188,0.017820701003074646,0.057921674102544785,9.517319679260254,0.13040708005428314,-3.2912495136260986
1403715524857143000,0.07290622591972351,0.04418472945690155,0.07399668544530869,9.076796531677246,0.9335349798202515,-3.205925464630127
1403715524862143000,0.03472386673092842,0.016929656267166138,0.0751386433839798,9.091713905334473,1.046379804611206,-3.2471675872802734
1403715524867143000,0.001291799359023571,0.0363556444644928,0.08665519952774048,9.59831714630127,1.122979998588562,-3.4306952953338623
1403715524872143000,-0.03526584431529045,0.031492799520492554,0.09244807064533234,8.613839149475098,0.8143205046653748,-3.0422518253326416
1403715524877143000,-0.04955418035387993,0.011206984519958496,0.09411373734474182,9.954477310180664,0.541571319103241,-3.4560728073120117
1403715524882143000,-0.0627574622631073,0.05597217381000519,0.08747731149196625,8.535006523132324,0.23588380217552185,-2.824153423309326
1403715524887143000,-0.0475032739341259,-0.005043625831604004,0.084629587829113,9.548148155212402,-0.07456256449222565,-3.4042470455169678
1403715524892143000,-0.020306285470724106,0.05614157021045685,0.0697452574968338,9.410367965698242,-0.4945068955421448,-2.9794840812683105
1403715524897143000,0.016249973326921463,0.005482569336891174,0.07476458698511124,8.737852096557617,-0.35528409481048584,-3.0453364849090576
1403715524902143000,0.04541023448109627,0.02754814922809601,0.06019588187336922,9.701153755187988,-0.20401792228221893,-3.248093605041504
1403715524907143000,0.054073918610811234,0.02579730749130249,0.06688128411769867,8.913037300109863,0.42508819699287415,-3.0604801177978516
1403715524912143000,0.04076426103711128,0.013015031814575195,0.06371298432350159,9.30467414855957,0.878309965133667,-3.3933234214782715
1403715524917143000,0.007855015806853771,0.03617691993713379,0.0697411522269249,9.30462646484375,0.8402991890907288,-3.147111415863037
1403715524922143000,-0.018849294632673264,0.03048345446586609,0.07892841845750809,9.161176681518555,1.0576668977737427,-3.319401502609253
1403715524927143000,-0.04729316756129265,0.026847034692764282,0.08705133199691772,9.142254829406738,0.49390724301338196,-3.100069522857666
1403715524932143000,-0.05379387363791466,0.03251330554485321,0.09451135993003845,9.199234962463379,0.29768750071525574,-3.1762304306030273
1403715524937143000,-0.04567394778132439,0.017122015357017517,0.09694330394268036,8.938611030578613,-0.09670004993677139,-3.0131280422210693
1403715524942143000,-0.016339879482984543,0.012203291058540344,0.09634703397750854,9.369158744812012,-0.3498406410217285,-3.158092737197876
1403715524947143000,0.010306227020919323,0.022088229656219482,0.07368430495262146,9.221403121948242,-0.2219131886959076,-3.1180777549743652
1403715524952143000,0.03286584094166756,0.003602921962738037,0.07217040657997131,9.191412925720215,-0.06484943628311157,-3.1340267658233643
1403715524957143000,0.04126923158764839,0.025718286633491516,0.06419415771961212,9.581785202026367,0.3279837369918823,-3.230494260787964
1403715524962143000,0.03327308967709541,0.0247562974691391,0.07120125740766525,9.058405876159668,0.6435838341712952,-3.191282272338867
1403715524967143000,0.01587023213505745,0.02382601797580719,0.07644864171743393,9.420480728149414,0.8588594794273376,-3.311445713043213
1403715524972143000,-0.012158048339188099,0.03036494553089142,0.0884781926870346,9.148486137390137,0.8219181895256042,-3.13295578956604
1403715524977143000,-0.0355764739215374,0.01619003713130951,0.08652767539024353,9.11068344116211,0.6881388425827026,-3.2228240966796875
1403715524982143000,-0.045925404876470566,0.01889917254447937,0.08226042985916138,9.330466270446777,0.2859521210193634,-3.1722660064697266
1403715524987143000,-0.04118795320391655,0.018882587552070618,0.07353448122739792,9.29426097869873,-0.17905941605567932,-3.232692241668701
1403715524992143000,-0.011053544469177723,0.02209271490573883,0.06726564466953278,9.307144165039062,-0.32923924922943115,-3.2222087383270264
1403715524997143000,0.030922193080186844,0.030066102743148804,0.07313695549964905,9.352643013000488,-0.08434725552797318,-3.1681787967681885
1403715525002143000,0.038223881274461746,0.03683319687843323,0.08344350755214691,9.123255729675293,0.5425663590431213,-3.1825644969940186
1403715525007143000,0.01156471949070692,0.02716025710105896,0.08815457671880722,9.169177055358887,1.211620569229126,-3.17110013961792
1403715525012143000,-0.03372223302721977,0.016915053129196167,0.10538995265960693,9.017898559570312,1.1907129287719727,-3.125096082687378
1403715525017143000,-0.07960419356822968,0.015366524457931519,0.08054685592651367,9.143807411193848,0.7814561128616333,-3.3349626064300537
1403715525022143000,-0.07307139039039612,0.009631916880607605,0.08790840953588486,9.443190574645996,-0.18603327870368958,-3.1667871475219727
1403715525027143000,-0.04096866771578789,0.03141351044178009,0.07557271420955658,9.222217559814453,-0.8028882741928101,-3.069544553756714
1403715525032143000,0.03167322650551796,0.018412619829177856,0.05675939470529556,9.35091495513916,-1.2055237293243408,-3.174645185470581
1403715525037143000,0.0967637151479721,0.039931997656822205,0.07125502824783325,9.361977577209473,-0.12804977595806122,-2.9307687282562256
1403715525042143000,0.10215723514556885,0.027801647782325745,0.06331399083137512,8.919942855834961,1.0638822317123413,-3.1253867149353027
1403715525047143000,0.06008409336209297,0.0004169642925262451,0.06337933242321014,9.060833930969238,1.7367010116577148,-3.236593723297119
1403715525052143000,-0.021911006420850754,0.008040651679039001,0.07180485129356384,9.281341552734375,1.5840842723846436,-3.366847038269043
1403715525057143000,-0.06964412331581116,0.008970126509666443,0.07960924506187439,9.322698593139648,0.8190467953681946,-3.335566520690918
1403715525062143000,-0.07651185989379883,0.016124308109283447,0.09346722811460495,9.239429473876953,0.4337347149848938,-3.3106439113616943
1403715525067143000,-0.0668090432882309,0.027978718280792236,0.09174466878175735,9.34483528137207,-0.13299833238124847,-3.1182987689971924
1403715525072143000,-0.03841249272227287,0.0182744562625885,0.09735776484012604,9.037853240966797,-0.4394107162952423,-2.9953742027282715
1403715525077143000,-0.009136301465332508,0.014052823185920715,0.0785491093993187,9.141030311584473,-0.29679399728775024,-3.183276414871216
1403715525082143000,0.02694280818104744,0.01005697250366211,0.0870661661028862,9.345483779907227,-0.26720190048217773,-2.9798991680145264
1403715525087143000,0.045032937079668045,0.01483955979347229,0.0745893269777298,9.362502098083496,-0.19800931215286255,-3.2332956790924072
1403715525092143000,0.05718480423092842,0.014560118317604065,0.06602752208709717,9.498063087463379,0.4600498676300049,-3.336594343185425
1403715525097143000,0.05164637044072151,0.0350494384765625,0.09209668636322021,9.197613716125488,0.792841911315918,-3.123457670211792
1403715525102143000,0.006969141773879528,0.019946515560150146,0.08966731280088425,9.182398796081543,1.3319776058197021,-3.334355354309082
1403715525107143000,-0.03519565984606743,0.025046810507774353,0.0897357314825058,9.427691459655762,0.9907636642456055,-3.137542963027954
1403715525112143000,-0.06313619017601013,0.03501492738723755,0.09679500758647919,8.747640609741211,0.707725465297699,-2.9720468521118164
1403715525117143000,-0.07193617522716522,0.00227944552898407,0.08327601850032806,9.26256275177002,0.1444789618253708,-3.2154054641723633
1403715525122143000,-0.046181779354810715,0.018776357173919678,0.08180614560842514,9.467501640319824,-0.34640786051750183,-3.1751673221588135
1403715525127143000,-0.012807887978851795,0.027178257703781128,0.06984332948923111,9.248774528503418,-0.2993755340576172,-3.218270778656006
1403715525132143000,0.022227931767702103,0.026001110672950745,0.06382299214601517,9.236797332763672,-0.34834805130958557,-3.1419527530670166
1403715525137143000,0.041546691209077835,0.039626553654670715,0.07187051326036453,9.321874618530273,0.09551259130239487,-3.1171600818634033
1403715525142143000,0.04194261506199837,0.02626359462738037,0.06171702221035957,9.003700256347656,0.5303011536598206,-3.1749725341796875
1403715525147143000,0.03264464810490608,0.0050566792488098145,0.06726635992527008,9.351645469665527,0.6888015270233154,-3.163774013519287
1403715525152143000,0.006803977303206921,0.019654348492622375,0.07064145058393478,9.012551307678223,0.8190516233444214,-3.189375877380371
1403715525157143000,-0.026277851313352585,0.005493566393852234,0.0736151859164238,9.313297271728516,0.8292612433433533,-3.2800655364990234
1403715525162143000,-0.04408935829997063,0.022867202758789062,0.08448366820812225,9.44967269897461,0.5015528798103333,-3.319645643234253
1403715525167143000,-0.05729268118739128,0.02748270332813263,0.08636240661144257,9.16134262084961,0.30414703488349915,-3.1747515201568604
1403715525172143000,-0.040103327482938766,0.028891757130622864,0.0944417417049408,9.117838859558105,-0.037309374660253525,-3.0699055194854736
1403715525177143000,-0.016898568719625473,0.019656270742416382,0.09020092338323593,9.230998039245605,-0.4118347465991974,-3.0437428951263428
1403715525182143000,0.01098774652928114,0.017030447721481323,0.0830693244934082,9.061026573181152,-0.24573996663093567,-3.0999786853790283
1403715525187143000,0.029669512063264847,0.011814787983894348,0.08870091289281845,9.374691009521484,0.1586536467075348,-3.241107225418091
1403715525192143000,0.0296797938644886,0.014945730566978455,0.08323127031326294,9.311853408813477,0.4522184729576111,-3.2060444355010986
1403715525197143000,0.011107790283858776,0.023180559277534485,0.07944038510322571,9.330554962158203,0.8196918368339539,-3.2313921451568604
1403715525202143000,-0.013812226243317127,0.018008708953857422,0.09062105417251587,9.43327808380127,0.6423378586769104,-3.1823415756225586
1403715525207143000,-0.02761627361178398,0.01987193524837494,0.08855700492858887,9.094797134399414,0.10193008929491043,-3.0832266807556152
1403715525212143000,-0.005881142802536488,0.014211475849151611,0.08793520927429199,9.191161155700684,-0.2688080966472626,-3.069636583328247
1403715525217143000,0.029705125838518143,0.011763155460357666,0.07219385355710983,9.382850646972656,-0.37948164343833923,-3.26412034034729
1403715525222143000,0.043380994349718094,0.025505930185317993,0.06369871646165848,9.290519714355469,0.2515871226787567,-3.0926966667175293
1403715525227143000,0.03349306061863899,0.018694892525672913,0.057271506637334824,9.330288887023926,0.9428091049194336,-3.4275338649749756
1403715525232143000,-0.005287152715027332,0.03086504340171814,0.06396223604679108,9.300101280212402,1.4938969612121582,-3.3334834575653076
1403715525237143000,-0.0637197196483612,0.032694101333618164,0.08437956124544144,9.066524505615234,1.3781523704528809,-3.2532215118408203
1403715525242143000,-0.10408297181129456,0.018197104334831238,0.0866207629442215,9.046903610229492,0.7579001188278198,-3.0927679538726807
1403715525247143000,-0.09514693915843964,0.020895108580589294,0.11016535758972168,9.043883323669434,-0.3158973753452301,-2.9630539417266846
1403715525252143000,-0.05413886532187462,0.005568966269493103,0.09000962972640991,9.281150817871094,-1.0763496160507202,-3.241213798522949
1403715525257143000,0.017346370965242386,0.017849668860435486,0.09027593582868576,9.459137916564941,-0.8719164133071899,-2.8717830181121826
1403715525262143000,0.05813774839043617,0.021251320838928223,0.06678216904401779,9.346817970275879,-0.08371581137180328,-3.3074045181274414
1403715525267143000,0.0730169415473938,0.019490018486976624,0.049264077097177505,9.102677345275879,0.4889398217201233,-3.0861196517944336
1403715525272143000,0.058615196496248245,0.03132699429988861,0.07450147718191147,9.320165634155273,1.0838232040405273,-3.206639051437378
1403715525277143000,0.014464008621871471,0.02255253493785858,0.07044441252946854,9.2334566116333,0.9641254544258118,-3.188284158706665
1403715525282143000,-0.01842315122485161,0.028471216559410095,0.09421497583389282,9.01194953918457,1.1871588230133057,-3.179837465286255
1403715525287143000,-0.05522018298506737,0.006115853786468506,0.09063524007797241,9.059967041015625,0.6641286611557007,-3.067401170730591
1403715525292143000,-0.05964356288313866,0.012524187564849854,0.1065465584397316,9.18323802947998,0.46602779626846313,-3.0921595096588135
1403715525297143000,-0.06390009820461273,-0.004067212343215942,0.07236694544553757,9.490113258361816,-0.19170281291007996,-3.2243165969848633
1403715525302143000,-0.03321101889014244,0.010159894824028015,0.08034729212522507,9.175862312316895,-0.04714225232601166,-3.070753574371338
1403715525307143000,-0.0041520120576024055,0.009356901049613953,0.06584977358579636,9.348614692687988,-0.6177114248275757,-3.0792510509490967
1403715525312143000,0.031041104346513748,0.009268969297409058,0.06440825015306473,9.48282241821289,-0.14145807921886444,-3.2825565338134766
1403715525317143000,0.057133499532938004,0.02258877456188202,0.06945019960403442,9.231122970581055,0.1034301221370697,-3.0760297775268555
1403715525322143000,0.05212267115712166,0.012685582041740417,0.07394847273826599,9.172538757324219,0.697060227394104,-3.1735377311706543
1403715525327143000,0.02488728240132332,0.0031699687242507935,0.07645261287689209,8.935364723205566,1.0590364933013916,-3.2044692039489746
1403715525332143000,-0.020659934729337692,0.0003787130117416382,0.07451434433460236,9.517861366271973,0.9664059281349182,-3.301576852798462
1403715525337143000,-0.04519854113459587,0.02157345414161682,0.08113034814596176,9.290117263793945,0.7901929020881653,-3.393148899078369
1403715525342143000,-0.059089239686727524,0.007477238774299622,0.08168154954910278,9.071016311645508,0.4011732041835785,-3.1822867393493652
1403715525347143000,-0.04670112952589989,0.02594435214996338,0.09155269712209702,9.523860931396484,0.0477159358561039,-3.362318754196167
1403715525352143000,-0.02719905599951744,0.02996523678302765,0.08643714338541031,9.019170761108398,-0.2216237634420395,-3.1085026264190674
1403715525357143000,0.0006777225062251091,0.02041172981262207,0.08397918194532394,9.164387702941895,-0.19603264331817627,-3.1582539081573486
1403715525362143000,0.019633699208498,0.0302516371011734,0.07110904902219772,9.068251609802246,0.0032268918585032225,-3.0773870944976807
1403715525367143000,0.036674994975328445,0.005063310265541077,0.07909346371889114,9.132898330688477,0.20846465229988098,-3.15750789642334
1403715525372143000,0.025834757834672928,0.018236100673675537,0.06317832320928574,9.507128715515137,0.424721360206604,-3.2894818782806396
1403715525377143000,0.018998045474290848,0.02481791377067566,0.07291906327009201,9.110845565795898,0.6821825504302979,-3.1910691261291504
1403715525382143000,0.0008647618815302849,0.020634248852729797,0.07378940284252167,9.427570343017578,0.7707490921020508,-3.3023974895477295
1403715525387143000,-0.02209634706377983,0.030765995383262634,0.07179331034421921,9.313020706176758,0.717670202255249,-3.2706737518310547
1403715525392143000,-0.0324232392013073,0.030090361833572388,0.08351297676563263,9.118135452270508,0.42254170775413513,-3.140587329864502
1403715525397143000,-0.022682320326566696,0.01835617423057556,0.09083990752696991,9.10068416595459,-0.004171642009168863,-2.9955694675445557
1403715525402143000,-0.010797661729156971,0.01066868007183075,0.08272268623113632,8.996256828308105,0.08220592141151428,-2.978264808654785
1403715525407143000,-0.014216911979019642,-0.00687803328037262,0.07512582838535309,9.238344192504883,0.4887526035308838,-3.2974905967712402
1403715525412143000,-0.02449534460902214,0.01182730495929718,0.07514280825853348,9.394485473632812,0.6579570770263672,-3.4330945014953613
1403715525417143000,-0.03914916142821312,0.013212159276008606,0.07130708545446396,9.216511726379395,0.2531660199165344,-3.255918025970459
1403715525422143000,-0.029730435460805893,0.03305192291736603,0.08828732371330261,9.336265563964844,-0.16566862165927887,-3.2726941108703613
1403715525427143000,0.006820964626967907,0.022784575819969177,0.07751604914665222,9.182381629943848,-0.6537811756134033,-2.8863391876220703
1403715525432143000,0.0562559999525547,0.02237352728843689,0.0812285989522934,9.100666046142578,-0.5814775228500366,-2.92120361328125
1403715525437143000,0.09182336926460266,0.012767255306243896,0.06771150231361389,9.191056251525879,-0.054640378803014755,-3.05362868309021
1403715525442143000,0.08057631552219391,-0.005542665719985962,0.06024321913719177,9.059074401855469,1.1725431680679321,-3.224008798599243
1403715525447143000,0.021145571023225784,0.008255153894424438,0.06556228548288345,9.364582061767578,1.8802142143249512,-3.4331893920898438
1403715525452143000,-0.04920298978686333,0.010626927018165588,0.07242158055305481,9.277549743652344,1.4964040517807007,-3.390730142593384
1403715525457143000,-0.08773216605186462,0.020513534545898438,0.08150675147771835,9.421276092529297,0.7522962689399719,-3.2954416275024414
1403715525462143000,-0.08663378655910492,0.02188532054424286,0.09516908973455429,8.987781524658203,0.012357357889413834,-3.099684953689575
1403715525467143000,-0.06838352978229523,0.020581290125846863,0.07867518812417984,9.303723335266113,-0.4944438338279724,-3.036773204803467
1403715525472143000,-0.017638038843870163,0.012530237436294556,0.0907839760184288,9.288432121276855,-0.44886407256126404,-2.9723355770111084
1403715525477143000,0.017050612717866898,0.015355795621871948,0.06069699302315712,9.380064964294434,-0.4538913369178772,-3.217054605484009
1403715525482143000,0.04685239866375923,0.017060235142707825,0.05601651966571808,9.083853721618652,0.1884031593799591,-3.070631265640259
1403715525487143000,0.05386175587773323,0.017791301012039185,0.06496314704418182,9.410931587219238,0.2848171591758728,-3.3712234497070312
1403715525492143000,0.03803442791104317,0.030456647276878357,0.05501643940806389,9.289178848266602,0.5576145648956299,-3.190886974334717
1403715525497143000,0.016654808074235916,0.021208465099334717,0.0682498961687088,9.019527435302734,1.092373013496399,-3.2294819355010986
1403715525502143000,-0.015015495009720325,0.018601879477500916,0.07823103666305542,9.224625587463379,1.254193902015686,-3.316657543182373
1403715525507143000,-0.052244704216718674,0.03259947896003723,0.09216783195734024,9.191306114196777,0.7930670976638794,-3.1808438301086426
1403715525512143000,-0.06995248794555664,0.019509434700012207,0.09219437837600708,9.265016555786133,0.45836523175239563,-3.1739001274108887
1403715525517143000,-0.0638338178396225,0.018854796886444092,0.08640624582767487,9.101594924926758,-0.1206817552447319,-3.070605754852295
1403715525522143000,-0.03300103172659874,0.01250515878200531,0.08934216946363449,9.060870170593262,-0.48289623856544495,-3.1024086475372314
1403715525527143000,0.009799140505492687,0.00653250515460968,0.08465513586997986,9.394740104675293,-0.42370840907096863,-3.1274302005767822
1403715525532143000,0.03923102095723152,0.015379533171653748,0.057326190173625946,9.305237770080566,-0.039656974375247955,-3.2342188358306885
1403715525537143000,0.05313466861844063,0.01872536540031433,0.07069351524114609,9.287785530090332,0.4639147222042084,-3.2877418994903564
1403715525542143000,0.03676833584904671,0.025738418102264404,0.06705717742443085,9.451415061950684,0.7708542346954346,-3.2935333251953125
1403715525547143000,0.013363468460738659,0.030468493700027466,0.07870867848396301,9.132966041564941,1.0154650211334229,-3.244384288787842
1403715525552143000,-0.023259978741407394,0.017238691449165344,0.08198054879903793,8.99552059173584,0.899764895439148,-3.1237566471099854
1403715525557143000,-0.04212045297026634,0.01587352156639099,0.09116186946630478,9.215919494628906,0.6547011733055115,-3.191389322280884
1403715525562143000,-0.04728090390563011,0.012742668390274048,0.09606315940618515,9.158936500549316,0.1751934438943863,-3.1754250526428223
1403715525567143000,-0.038095083087682724,0.00876396894454956,0.07614631950855255,9.369037628173828,-0.028357358649373055,-3.2482669353485107
1403715525572143000,-0.024859469383955002,0.012973666191101074,0.06521381437778473,9.27270221710205,-0.09016134589910507,-3.166048526763916
1403715525577143000,-0.002353590913116932,0.017895743250846863,0.05206320434808731,9.248710632324219,-0.10842315107584,-3.1406068801879883
1403715525582143000,0.01696290448307991,0.018283352255821228,0.06395240128040314,9.367910385131836,0.1809450387954712,-3.19826602935791
1403715525587143000,0.02175857499241829,0.02529256045818329,0.07453237473964691,9.238544464111328,0.437112420797348,-3.1829402446746826
1403715525592143000,0.017109502106904984,0.016277089715003967,0.0900043323636055,8.92177677154541,0.5350399017333984,-3.0114951133728027
1403715525597143000,-0.0003534974530339241,0.008142158389091492,0.08402479439973831,9.206071853637695,0.7558793425559998,-3.207350730895996
1403715525602143000,-0.021509449928998947,0.008951723575592041,0.0876995250582695,9.508248329162598,0.7916097044944763,-3.400172710418701
1403715525607143000,-0.05100787803530693,0.019738078117370605,0.07085908204317093,9.217199325561523,0.6342611908912659,-3.2296645641326904
1403715525612143000,-0.054742466658353806,0.02113291621208191,0.059720080345869064,9.377960205078125,-0.020420845597982407,-3.224181890487671
1403715525617143000,-0.024603616446256638,0.02325916290283203,0.06430282443761826,9.103025436401367,-0.6406954526901245,-3.156747579574585
1403715525622143000,0.02563856914639473,0.02728496491909027,0.0689506009221077,9.125770568847656,-0.5340672731399536,-3.0114941596984863
1403715525627143000,0.06984826922416687,0.016319289803504944,0.08082783967256546,9.205078125,-0.1357637345790863,-3.126523971557617
1403715525632143000,0.07208581268787384,0.021187320351600647,0.08060331642627716,9.051941871643066,0.8348443508148193,-3.296760320663452
1403715525637143000,0.034677792340517044,0.014080792665481567,0.07863188534975052,9.13155460357666,1.5024433135986328,-3.3104584217071533
1403715525642143000,-0.04092923924326897,0.007390409708023071,0.09192821383476257,9.49426555633545,1.7809656858444214,-3.5132832527160645
1403715525647143000,-0.10680456459522247,0.01937699317932129,0.08993806689977646,9.131221771240234,1.0703059434890747,-3.3185207843780518
1403715525652143000,-0.12482459843158722,0.022494062781333923,0.0893087089061737,9.31279468536377,0.09036849439144135,-3.191375970840454
1403715525657143000,-0.0789809376001358,0.015994593501091003,0.10139717906713486,9.223251342773438,-0.938601553440094,-3.0936028957366943
1403715525662143000,-0.013192755170166492,0.0325324684381485,0.0847400352358818,9.10464859008789,-1.2662510871887207,-2.830336332321167
1403715525667143000,0.0568867065012455,0.009861767292022705,0.08065200597047806,9.377938270568848,-0.6088637709617615,-3.1351139545440674
1403715525672143000,0.08089245855808258,0.019981905817985535,0.055732596665620804,9.29855728149414,0.15148992836475372,-3.257047653198242
1403715525677143000,0.07052688300609589,0.037120044231414795,0.05048405006527901,9.37940788269043,0.787510871887207,-3.3135604858398438
1403715525682143000,0.04183017089962959,0.025149300694465637,0.05482904613018036,9.043867111206055,1.2864346504211426,-3.1889688968658447
1403715525687143000,-0.008147967047989368,0.02848963439464569,0.057982053607702255,9.13802433013916,1.187281608581543,-3.2850098609924316
1403715525692143000,-0.04088292643427849,0.025108426809310913,0.08216982334852219,9.207442283630371,0.9146424531936646,-3.2363858222961426
1403715525697143000,-0.06423470377922058,0.012655451893806458,0.08061005920171738,9.32763957977295,0.35924234986305237,-3.2873785495758057
1403715525702143000,-0.06178414449095726,0.026693403720855713,0.07849076390266418,9.119224548339844,0.21908113360404968,-3.1333413124084473
1403715525707143000,-0.049927618354558945,0.014807730913162231,0.07277735322713852,9.450943946838379,-0.1472812294960022,-3.3065028190612793
1403715525712143000,-0.024016913026571274,0.02306722104549408,0.06258045881986618,9.110336303710938,-0.39432206749916077,-2.9806456565856934
1403715525717143000,0.01724402979016304,0.02742840349674225,0.06158504635095596,9.249074935913086,-0.479684442281723,-3.1096713542938232
1403715525722143000,0.04544218257069588,0.015847891569137573,0.06702204048633575,9.221953392028809,-0.1521817445755005,-3.142714738845825
1403715525727143000,0.055730778723955154,0.022506743669509888,0.07087863981723785,9.166095733642578,0.34979528188705444,-3.1025660037994385
1403715525732143000,0.050734926015138626,0.014263778924942017,0.08142939954996109,9.2462797164917,0.7404835224151611,-3.1228153705596924
1403715525737143000,0.017190326005220413,0.011701583862304688,0.07744072377681732,9.278106689453125,0.9932841658592224,-3.3755099773406982
1403715525742143000,-0.010469627566635609,0.024246156215667725,0.07917558401823044,9.249302864074707,0.943432092666626,-3.196892261505127
1403715525747143000,-0.04511454328894615,0.024570435285568237,0.0902174562215805,9.191932678222656,0.6962724924087524,-3.198572874069214
1403715525752143000,-0.06239243969321251,0.02508009970188141,0.08228268474340439,9.1350736618042,0.34697219729423523,-3.111518144607544
1403715525757143000,-0.04548722133040428,0.023162126541137695,0.09888169914484024,9.354501724243164,-0.18500566482543945,-3.0945279598236084
1403715525762143000,-0.014809397049248219,0.028136268258094788,0.09751994162797928,9.173933029174805,-0.37581348419189453,-3.108922004699707
1403715525767143000,0.00652466993778944,0.01474905014038086,0.07832084596157074,8.904363632202148,-0.14082342386245728,-3.068115234375
1403715525772143000,0.029753047972917557,0.015683457255363464,0.0700758621096611,9.466097831726074,0.033276937901973724,-3.2475595474243164
1403715525777143000,0.03734137490391731,0.014217913150787354,0.06241096928715706,9.295392990112305,0.08396559953689575,-3.1914072036743164
1403715525782143000,0.03223862126469612,0.013484165072441101,0.05131658539175987,9.248739242553711,0.618233323097229,-3.2892041206359863
1403715525787143000,0.010851669125258923,0.02464190125465393,0.06634071469306946,9.363792419433594,1.0063468217849731,-3.1564598083496094
1403715525792143000,-0.017332803457975388,0.03206805884838104,0.07427530735731125,9.110808372497559,0.7563145160675049,-3.2725086212158203
1403715525797143000,-0.023703616112470627,0.018184855580329895,0.07527995109558105,9.450867652893066,0.07156899571418762,-3.1006662845611572
1403715525802143000,-0.018421988934278488,0.034290388226509094,0.08260820060968399,9.141122817993164,0.19662560522556305,-3.182556629180908
1403715525807143000,-0.021827947348356247,0.01690495014190674,0.062319379299879074,9.053625106811523,0.3366343677043915,-3.164783000946045
1403715525812143000,-0.022416573017835617,0.011442825198173523,0.06809522956609726,9.427665710449219,0.49092236161231995,-3.280043840408325
1403715525817143000,-0.03555161878466606,0.03220583498477936,0.07163508236408234,9.095715522766113,0.7086775898933411,-3.2890915870666504
1403715525822143000,-0.049074288457632065,0.007412344217300415,0.08426528424024582,9.174983978271484,0.2641373574733734,-3.084890842437744
1403715525827143000,-0.04046204313635826,0.02465979754924774,0.09044790267944336,9.359638214111328,-0.05728471651673317,-3.2876970767974854
1403715525832143000,-0.0023309113457798958,0.016665101051330566,0.09084678441286087,8.955221176147461,-0.8064075112342834,-2.880398750305176
1403715525837143000,0.04937276616692543,0.001271754503250122,0.0679631382226944,9.590686798095703,-1.0239267349243164,-3.240354061126709
1403715525842143000,0.09498709440231323,0.033631980419158936,0.06408585608005524,9.321172714233398,-0.016758086159825325,-3.1675567626953125
1403715525847143000,0.08882088959217072,0.016041651368141174,0.05055738613009453,9.242053031921387,1.3875807523727417,-3.3710014820098877
1403715525852143000,0.03917311504483223,0.03702846169471741,0.05638347193598747,9.31485366821289,1.8085145950317383,-3.19351863861084
1403715525857143000,-0.04905436560511589,0.016214191913604736,0.08990327268838882,8.73084831237793,1.7546861171722412,-3.219294309616089
1403715525862143000,-0.10109327733516693,0.018220052123069763,0.06735638529062271,9.608699798583984,0.6460082530975342,-3.335437774658203
1403715525867143000,-0.08967362344264984,0.019515976309776306,0.1062002182006836,8.847716331481934,-0.07429547607898712,-3.107783317565918
1403715525872143000,-0.06639657914638519,0.014875665307044983,0.07066862285137177,9.597034454345703,-0.6394087672233582,-3.233419895172119
1403715525877143000,-0.007412356324493885,0.030501022934913635,0.09013067930936813,9.42711353302002,-0.5480629205703735,-3.240084409713745
1403715525882143000,0.01585431769490242,0.028063923120498657,0.05595511943101883,9.16787052154541,-0.15507112443447113,-3.1680262088775635
1403715525887143000,0.045050788670778275,0.03186170756816864,0.07029850780963898,9.588706970214844,0.03789620101451874,-3.3464584350585938
1403715525892143000,0.04640411213040352,0.0399976521730423,0.06350456923246384,8.929923057556152,0.2541140615940094,-3.101128339767456
1403715525897143000,0.03786047175526619,0.029526785016059875,0.0736783817410469,9.066835403442383,0.891669511795044,-3.141319513320923
1403715525902143000,0.012217151932418346,0.02114059031009674,0.08141355961561203,9.378138542175293,0.8047484159469604,-3.220250129699707
1403715525907143000,-0.012962055392563343,0.029705360531806946,0.08874519914388657,9.051386833190918,0.8503078818321228,-3.3828506469726562
1403715525912143000,-0.04446573182940483,0.030315548181533813,0.08045312762260437,9.336981773376465,0.7524113655090332,-3.237926721572876
1403715525917143000,-0.0602928064763546,0.035728126764297485,0.08081480860710144,9.235454559326172,0.6451811194419861,-3.1900672912597656
1403715525922143000,-0.059636931866407394,0.031523823738098145,0.08123373240232468,8.946880340576172,-0.053429488092660904,-3.0781915187835693
1403715525927143000,-0.026791270822286606,0.029491543769836426,0.09025895595550537,9.50787353515625,-0.35568946599960327,-3.2168526649475098
1403715525932143000,0.003934073261916637,0.04389992356300354,0.08669822663068771,9.045145988464355,-0.5097686648368835,-2.98695969581604
1403715525937143000,0.027095098048448563,0.02137373387813568,0.07885102927684784,9.026100158691406,0.10305044054985046,-3.0140466690063477
1403715525942143000,0.03824375942349434,0.01692378520965576,0.07488759607076645,9.286967277526855,0.2054596245288849,-3.059540033340454
1403715525947143000,0.023719865828752518,0.01677541434764862,0.05953240767121315,9.12536907196045,0.6117983460426331,-3.2877037525177
1403715525952143000,0.010104971937835217,0.0067178308963775635,0.05822860449552536,9.386877059936523,0.7574275135993958,-3.254096269607544
1403715525957143000,-0.010439974255859852,0.02596554160118103,0.06920522451400757,9.192541122436523,0.8623794317245483,-3.2060229778289795
1403715525962143000,-0.03368331119418144,0.02112622559070587,0.07856092602014542,9.0540132522583,0.4143954813480377,-3.0690603256225586
1403715525967143000,-0.035664480179548264,0.02021956443786621,0.09157123416662216,9.247057914733887,0.29185178875923157,-3.2063751220703125
1403715525972143000,-0.033324968069791794,0.033429428935050964,0.09883558005094528,9.351888656616211,0.19041839241981506,-3.1349809169769287
1403715525977143000,-0.027630966156721115,0.01708376407623291,0.09151630848646164,8.979751586914062,0.14280690252780914,-3.115689992904663
1403715525982143000,-0.020726513117551804,0.0075339823961257935,0.07777310162782669,9.425230979919434,-0.0018065177137032151,-3.1918885707855225
1403715525987143000,-0.0021278681233525276,0.018914103507995605,0.06098652631044388,9.150365829467773,-0.2554752826690674,-3.142765522003174
1403715525992143000,0.02478640154004097,0.016708672046661377,0.06161300837993622,9.39631175994873,-0.02150585874915123,-3.2560067176818848
1403715525997143000,0.03376530483365059,0.02000175416469574,0.07107895612716675,9.0899019241333,0.38641294836997986,-3.020244598388672
1403715526002143000,0.019590158015489578,0.018320605158805847,0.06315156072378159,9.403303146362305,0.5052410364151001,-3.3865551948547363
1403715526007143000,0.015178698115050793,0.02499130368232727,0.07780709862709045,9.345202445983887,0.662850022315979,-3.2541279792785645
1403715526012143000,-0.002202075906097889,0.03195801377296448,0.08774253726005554,9.417810440063477,0.8742602467536926,-3.295806407928467
1403715526017143000,-0.04008203372359276,0.03648194670677185,0.08406423032283783,8.861898422241211,0.8459517955780029,-3.066702365875244
1403715526022143000,-0.059996347874403,0.011698365211486816,0.07845016568899155,9.21493911743164,0.3348191976547241,-3.142340660095215
1403715526027143000,-0.03892206773161888,0.02364860475063324,0.08012694865465164,9.417713165283203,-0.14860719442367554,-3.16715145111084
1403715526032143000,-0.007961046881973743,0.020768389105796814,0.08638685941696167,8.932411193847656,-0.20767776668071747,-3.1180686950683594
1403715526037143000,0.012466478161513805,0.012416273355484009,0.0781129002571106,9.342971801757812,0.034184668213129044,-3.076908588409424
1403715526042143000,0.019440699368715286,0.0226576030254364,0.06905665248632431,9.378262519836426,0.161533385515213,-3.2558789253234863
1403715526047143000,0.027818042784929276,0.03286217153072357,0.0691380575299263,9.39494514465332,0.3614564836025238,-3.296128034591675
1403715526052143000,0.021533478051424026,0.03506913781166077,0.07723701745271683,9.277374267578125,0.5403119325637817,-3.2485480308532715
1403715526057143000,-0.0036778273060917854,0.03305649757385254,0.06454796344041824,8.999855995178223,0.865380048751831,-3.018361806869507
1403715526062143000,-0.015973728150129318,0.01367214322090149,0.08659696578979492,9.018200874328613,0.6034780740737915,-3.1248581409454346
1403715526067143000,-0.01971105858683586,0.01671275496482849,0.0834488645195961,9.433191299438477,0.218577042222023,-3.2062599658966064
1403715526072143000,-0.0202626995742321,0.009774729609489441,0.09031162410974503,8.980907440185547,0.37450146675109863,-3.2310078144073486
1403715526077143000,-0.025144916027784348,0.007432401180267334,0.07137192785739899,9.360579490661621,0.26996108889579773,-3.2393546104431152
1403715526082143000,-0.01513685006648302,0.023142635822296143,0.08374255895614624,9.230515480041504,0.3133201599121094,-3.1733810901641846
1403715526087143000,-0.01050789374858141,0.015711426734924316,0.06462718546390533,9.159846305847168,-0.07622674107551575,-3.068941831588745
1403715526092143000,0.009048032574355602,0.014828130602836609,0.06958708167076111,9.457688331604004,0.09810464829206467,-3.191474437713623
1403715526097143000,0.01516865473240614,0.022497564554214478,0.06701090186834335,9.110170364379883,0.1300998330116272,-3.1098177433013916
1403715526102143000,0.02567373588681221,0.015343070030212402,0.08696196228265762,9.090592384338379,0.4983343183994293,-3.1990368366241455
1403715526107143000,0.015786517411470413,0.021524578332901,0.08826413005590439,9.39140510559082,0.488018661737442,-3.2870712280273438
1403715526112143000,-0.005655956454575062,0.026787295937538147,0.08441063016653061,9.169171333312988,0.8327049612998962,-3.214207172393799
1403715526117143000,-0.024750512093305588,0.018426433205604553,0.08049021661281586,9.287932395935059,0.4542176425457001,-3.246548891067505
1403715526122143000,-0.03193141147494316,0.02246147394180298,0.06212076172232628,9.076126098632812,0.3015260696411133,-3.1654434204101562
1403715526127143000,-0.028683003038167953,0.006100326776504517,0.06641843169927597,8.997503280639648,-0.10280299186706543,-3.1267032623291016
1403715526132143000,-0.012366157956421375,0.017564207315444946,0.0739719495177269,9.490581512451172,0.034473519772291183,-3.337109327316284
1403715526137143000,0.002987193875014782,0.030021101236343384,0.084992915391922,9.319518089294434,-0.03963010758161545,-3.1743953227996826
1403715526142143000,0.012991535477340221,0.024041712284088135,0.08117020130157471,9.044074058532715,0.37197190523147583,-3.173846960067749
1403715526147143000,0.015123116783797741,0.027108147740364075,0.08347504585981369,9.37624740600586,0.4613226652145386,-3.1992557048797607
1403715526152143000,0.0059046028181910515,0.036427199840545654,0.07827537506818771,9.404300689697266,0.42764022946357727,-3.1827712059020996
1403715526157143000,0.00018899422138929367,0.027687057852745056,0.07225922495126724,9.045251846313477,0.44446510076522827,-3.0684757232666016
1403715526162143000,-0.010899347253143787,0.012919872999191284,0.07199493795633316,8.984917640686035,0.3704090714454651,-3.10048770904541
1403715526167143000,-0.01672540232539177,0.012048378586769104,0.07727290689945221,9.354848861694336,0.48957037925720215,-3.3282511234283447
1403715526172143000,-0.017914067953824997,0.01680615544319153,0.08951608836650848,9.328360557556152,0.325040340423584,-3.2876744270324707
1403715526177143000,-0.015946488827466965,0.025462329387664795,0.07721353322267532,9.457854270935059,0.26215630769729614,-3.2393038272857666
1403715526182143000,-0.01319743413478136,0.026241004467010498,0.07753314822912216,8.948701858520508,0.2686062157154083,-3.108006477355957
1403715526187143000,-0.006713551469147205,0.020780667662620544,0.07195859402418137,9.434142112731934,0.3344021141529083,-3.2648983001708984
1403715526192143000,-0.0008346559479832649,0.035828977823257446,0.06785371899604797,9.14980411529541,0.15578529238700867,-3.0770809650421143
1403715526197143000,0.0020931540057063103,0.011033043265342712,0.06993567943572998,8.964784622192383,0.234038844704628,-3.085017204284668
1403715526202143000,0.010193931870162487,0.008464470505714417,0.07871156185865402,9.276960372924805,0.2164660096168518,-3.1091413497924805
1403715526207143000,0.005554604344069958,0.014681443572044373,0.08130039274692535,9.239325523376465,0.42607244849205017,-3.2630200386047363
1403715526212143000,-0.005507391877472401,0.008724674582481384,0.08003684878349304,9.313316345214844,0.526359498500824,-3.1818549633026123
1403715526217143000,-0.013977420516312122,0.015103623270988464,0.07327651977539062,9.441898345947266,0.37291350960731506,-3.3221006393432617
1403715526222143000,-0.011773956008255482,0.030930593609809875,0.0824844241142273,9.258696556091309,0.42917385697364807,-3.1490838527679443
1403715526227143000,-0.018739920109510422,0.02296687662601471,0.0754489153623581,9.156631469726562,0.21224014461040497,-3.1993653774261475
1403715526232143000,-0.013337177224457264,0.0245991051197052,0.07245808839797974,9.239496231079102,0.2464287281036377,-3.060023546218872
1403715526237143000,-0.0014607133343815804,0.01693306863307953,0.07664981484413147,9.135269165039062,-0.07342848181724548,-3.1824047565460205
1403715526242143000,0.010666805319488049,0.015952959656715393,0.08821413666009903,9.41640567779541,0.33205482363700867,-3.239624500274658
1403715526247143000,0.002869117073714733,0.02046513557434082,0.08996592462062836,9.107365608215332,0.37319156527519226,-3.1416735649108887
1403715526252143000,-0.004823816008865833,0.017274528741836548,0.08179544657468796,9.355591773986816,0.5740072131156921,-3.2802348136901855
1403715526257143000,-0.007470441050827503,0.021205991506576538,0.07742574065923691,9.353084564208984,0.29090026021003723,-3.2475013732910156
1403715526262143000,-0.009825420565903187,0.03025880455970764,0.0669558122754097,9.419218063354492,0.31527990102767944,-3.3041303157806396
1403715526267143000,-0.00440333504229784,0.029543742537498474,0.07115933299064636,8.970293045043945,0.2655375003814697,-3.0515880584716797
1403715526272143000,-0.011194777674973011,0.01613783836364746,0.06579174101352692,9.158245086669922,0.3971909284591675,-3.0693063735961914
1403715526277143000,-0.005024773068726063,0.018862605094909668,0.0786207765340805,9.272107124328613,0.23439662158489227,-3.272223949432373
1403715526282143000,-0.0007066251710057259,0.025166645646095276,0.088112011551857,9.18970012664795,0.2522565424442291,-3.206587076187134
1403715526287143000,-0.0031213583424687386,0.02137172222137451,0.08919008076190948,9.246108055114746,0.5124301314353943,-3.2071473598480225
1403715526292143000,-0.015263807959854603,0.021412670612335205,0.08946742862462997,9.111682891845703,0.5262546539306641,-3.1336817741394043
1403715526297143000,-0.022050004452466965,0.012631133198738098,0.07414430379867554,9.312912940979004,0.34962764382362366,-3.132932424545288
1403715526302143000,-0.012843352742493153,0.019176438450813293,0.06704133749008179,9.294605255126953,-0.016711940988898277,-3.2060179710388184
1403715526307143000,0.00024055223912000656,0.015791624784469604,0.06356487423181534,9.151077270507812,0.14417549967765808,-3.1333134174346924
1403715526312143000,0.006487208418548107,0.019506990909576416,0.07599732279777527,9.189043045043945,0.3070332109928131,-3.1113181114196777
1403715526317143000,0.009418207220733166,0.01748037338256836,0.07388991862535477,9.280571937561035,0.3728732168674469,-3.215308427810669
1403715526322143000,0.007035392336547375,0.019056424498558044,0.08198317885398865,9.337945938110352,0.3728261888027191,-3.206634283065796
1403715526327143000,-0.003623080439865589,0.02329254150390625,0.07929924875497818,9.206457138061523,0.6249166131019592,-3.2883307933807373
1403715526332143000,-0.011909556575119495,0.022618576884269714,0.08734465390443802,9.248579025268555,0.6334691047668457,-3.1898977756500244
1403715526337143000,-0.0326751284301281,0.01616804301738739,0.08107072860002518,9.22282886505127,0.3076547086238861,-3.198289632797241
1403715526342143000,-0.02982143685221672,0.014810353517532349,0.07126110792160034,9.198027610778809,-0.007492979988455772,-3.1412181854248047
1403715526347143000,-0.004921567626297474,0.01145721971988678,0.07530421763658524,9.182409286499023,-0.18643048405647278,-3.1496872901916504
1403715526352143000,0.017312634736299515,0.022432386875152588,0.07785297930240631,9.34389591217041,0.07176175713539124,-3.2647287845611572
1403715526357143000,0.022743869572877884,0.016220420598983765,0.07750246673822403,9.173598289489746,0.3077569305896759,-3.18306040763855
1403715526362143000,0.017873454838991165,0.026780307292938232,0.07046079635620117,9.338278770446777,0.551952064037323,-3.4035425186157227
1403715526367143000,0.00488008838146925,0.02534182369709015,0.0773283913731575,9.232194900512695,0.614882230758667,-3.148482084274292
1403715526372143000,-0.009882611222565174,0.03361153602600098,0.07801380753517151,9.296298027038574,0.6643933057785034,-3.344358444213867
1403715526377143000,-0.02900954708456993,0.03292816877365112,0.08656086772680283,9.004069328308105,0.49300825595855713,-3.026078701019287
1403715526382143000,-0.03673545643687248,0.01617106795310974,0.07465516030788422,9.206607818603516,0.1846139281988144,-3.2723050117492676
1403715526387143000,-0.02287256345152855,0.01827755570411682,0.08084817975759506,9.149765968322754,-0.04839607700705528,-3.0283377170562744
1403715526392143000,-0.0037553133442997932,0.012889206409454346,0.08211465924978256,9.352611541748047,-0.12914793193340302,-3.328897714614868
1403715526397143000,0.01671205833554268,0.02551090717315674,0.07277801632881165,9.296539306640625,0.10634256899356842,-3.118161916732788
1403715526402143000,0.02339084818959236,0.012941837310791016,0.07415687292814255,9.199097633361816,0.3091824948787689,-3.298405170440674
1403715526407143000,0.014462548308074474,0.02658781409263611,0.07241073250770569,9.43578052520752,0.6241006255149841,-3.2705655097961426
1403715526412143000,-0.001841050572693348,0.03226493299007416,0.07931390404701233,9.222833633422852,0.5661810636520386,-3.189603805541992
1403715526417143000,-0.014932018704712391,0.028736695647239685,0.07333188503980637,9.167580604553223,0.7180770635604858,-3.1154332160949707
1403715526422143000,-0.0311288945376873,0.017483875155448914,0.07814733684062958,9.093210220336914,0.3615882098674774,-3.035997152328491
1403715526427143000,-0.031942348927259445,0.009076744318008423,0.0815686583518982,9.157974243164062,0.16281436383724213,-3.2151899337768555
1403715526432143000,-0.014226180501282215,0.014936983585357666,0.08984842896461487,9.254199981689453,-0.04820769652724266,-3.214984178543091
1403715526437143000,0.0034041283652186394,0.015199631452560425,0.08030016720294952,9.329087257385254,0.04927117004990578,-3.2321090698242188
1403715526442143000,0.014325517229735851,0.021305710077285767,0.07488495111465454,9.101839065551758,0.2948080599308014,-3.060983657836914
1403715526447143000,0.013701098971068859,0.00991031527519226,0.07650723308324814,9.344038963317871,0.3756983280181885,-3.321096420288086
1403715526452143000,0.005865323357284069,0.022338345646858215,0.06903278082609177,9.525469779968262,0.63967365026474,-3.3269381523132324
1403715526457143000,-0.0094364108517766,0.028160616755485535,0.06784720718860626,9.118365287780762,0.565500020980835,-3.222872495651245
1403715526462143000,-0.01647542044520378,0.025832518935203552,0.07796061784029007,9.190105438232422,0.51624596118927,-3.157352924346924
1403715526467143000,-0.021494638174772263,0.020142674446105957,0.08709519356489182,9.003747940063477,0.2328866571187973,-3.0033442974090576
1403715526472143000,-0.014641922898590565,0.012737110257148743,0.08422145992517471,9.361289978027344,0.21004997193813324,-3.2803261280059814
1403715526477143000,-0.006688308902084827,0.02210281789302826,0.08642826229333878,9.296018600463867,0.049053583294153214,-3.142315149307251
1403715526482143000,0.004772472195327282,0.018618673086166382,0.07691087573766708,9.240220069885254,0.18879392743110657,-3.248730182647705
1403715526487143000,0.013021129183471203,0.026758462190628052,0.074030302464962,9.157493591308594,0.23760901391506195,-3.093588352203369
1403715526492143000,0.007082301191985607,0.016881108283996582,0.07036422938108444,9.410240173339844,0.5527487993240356,-3.360700845718384
1403715526497143000,-0.002505374141037464,0.02947045862674713,0.06990981847047806,9.354923248291016,0.5664480328559875,-3.23838472366333
1403715526502143000,-0.014230740256607533,0.023843005299568176,0.06961722671985626,9.173970222473145,0.3876124620437622,-3.1990931034088135
1403715526507143000,-0.0151584567502141,0.02861282229423523,0.0735444575548172,9.231330871582031,0.2737322151660919,-3.126116991043091
1403715526512143000,-0.01323960442095995,0.01759837567806244,0.08851867914199829,9.068849563598633,0.22415076196193695,-3.165876626968384
1403715526517143000,-0.00846437830477953,0.02058015763759613,0.0852474570274353,9.320520401000977,0.28363460302352905,-3.1505484580993652
1403715526522143000,-0.0067403437569737434,0.017939463257789612,0.08292069286108017,9.157644271850586,0.11464416235685349,-3.141309976577759
1403715526527143000,0.004195171408355236,0.01911725103855133,0.07535039633512497,9.385915756225586,0.15549322962760925,-3.281022548675537
1403715526532143000,0.006714540533721447,0.01968933641910553,0.076113760471344,9.09984016418457,0.30923566222190857,-3.0766541957855225
1403715526537143000,0.00239523034542799,0.013495519757270813,0.0725063681602478,9.395329475402832,0.5192372798919678,-3.345064401626587
1403715526542143000,-0.008869600482285023,0.032274842262268066,0.07195142656564713,9.11772346496582,0.4445953667163849,-3.140690803527832
1403715526547143000,-0.01797984167933464,0.01969689130783081,0.07314784824848175,9.148754119873047,0.28960904479026794,-3.1671571731567383
1403715526552143000,-0.011600595898926258,0.025126665830612183,0.08817888796329498,9.27174186706543,0.2894960045814514,-3.198381185531616
1403715526557143000,-0.0056733908131718636,0.01761503517627716,0.08854962885379791,9.17439079284668,0.1620883047580719,-3.2154812812805176
1403715526562143000,-0.004347962327301502,0.028234288096427917,0.08796469122171402,9.279776573181152,0.33128610253334045,-3.1574723720550537
1403715526567143000,-0.002513718791306019,0.01860785484313965,0.08582176268100739,9.05196475982666,0.13034400343894958,-3.1004974842071533
1403715526572143000,0.004170077852904797,0.013437986373901367,0.07461251318454742,9.433998107910156,0.2934137284755707,-3.2889363765716553
1403715526577143000,-0.001333397813141346,0.02242949604988098,0.07336747646331787,9.263758659362793,0.356316477060318,-3.174417734146118
1403715526582143000,-0.009333771653473377,0.014935046434402466,0.06772874295711517,9.371224403381348,0.5268767476081848,-3.3120810985565186
1403715526587143000,-0.013347339816391468,0.028195708990097046,0.07463280111551285,9.157648086547852,0.3627946972846985,-3.1164939403533936
1403715526592143000,-0.012394738383591175,0.014737173914909363,0.0696854293346405,9.150779724121094,0.27521267533302307,-3.0856709480285645
1403715526597143000,-0.002140534110367298,0.02093777060508728,0.08122563362121582,9.328567504882812,0.33929944038391113,-3.28031325340271
1403715526602143000,-0.0042476775124669075,0.02541138231754303,0.08580219000577927,9.084257125854492,0.24260182678699493,-3.1661980152130127
1403715526607143000,-0.0015810253098607063,0.02479889988899231,0.08514444530010223,9.246990203857422,0.25949180126190186,-3.1668167114257812
1403715526612143000,0.0010949252173304558,0.016314581036567688,0.08367005735635757,9.027387619018555,0.17192234098911285,-3.0514583587646484
1403715526617143000,0.0015303371474146843,0.01399315893650055,0.07123461365699768,9.426870346069336,0.4137231409549713,-3.3373780250549316
1403715526622143000,-0.001968574710190296,0.028259992599487305,0.0697762668132782,9.149746894836426,0.3564695119857788,-3.149838447570801
1403715526627143000,-0.0101496996358037,0.015088945627212524,0.06626451760530472,9.281182289123535,0.510520339012146,-3.2065553665161133
1403715526632143000,-0.012762707658112049,0.022422373294830322,0.07398524880409241,9.116546630859375,0.21822597086429596,-3.1498377323150635
1403715526637143000,-0.008731705136597157,0.011856749653816223,0.07037618011236191,9.345935821533203,0.29201242327690125,-3.2325117588043213
1403715526642143000,-0.008368057198822498,0.026750296354293823,0.0860549807548523,9.345785140991211,0.3542092442512512,-3.23010516166687
1403715526647143000,-0.010605228133499622,0.02274298667907715,0.08086014539003372,9.117383003234863,0.25997021794319153,-3.159001350402832
1403715526652143000,-0.0007425369694828987,0.023138955235481262,0.09067870676517487,9.262808799743652,0.2767121195793152,-3.1501171588897705
1403715526657143000,0.0010345755144953728,0.017550870776176453,0.07961871474981308,9.133275985717773,0.25157397985458374,-3.1656951904296875
1403715526662143000,-0.0016763629391789436,0.012867346405982971,0.07188555598258972,9.386188507080078,0.42204344272613525,-3.336979389190674
1403715526667143000,-0.005705398507416248,0.020621418952941895,0.07393217831850052,9.092643737792969,0.2840212881565094,-3.157973051071167
1403715526672143000,-0.010276210494339466,0.015586063265800476,0.07656732946634293,9.296441078186035,0.3881402015686035,-3.2718698978424072
1403715526677143000,-0.007670414634048939,0.019600525498390198,0.07757563889026642,9.149620056152344,0.3232003450393677,-3.0924794673919678
1403715526682143000,-0.008970689959824085,0.01830458641052246,0.07443652302026749,9.394403457641602,0.29215553402900696,-3.2974822521209717
1403715526687143000,-0.005654645152390003,0.024073123931884766,0.08197295665740967,9.214406967163086,0.2903301417827606,-3.2459354400634766
1403715526692143000,-0.0035461606457829475,0.024594470858573914,0.07820955663919449,9.21523666381836,0.3485373854637146,-3.1427180767059326
1403715526697143000,0.0011872528120875359,0.026548117399215698,0.08793269842863083,9.22251033782959,0.26844966411590576,-3.109595537185669
1403715526702143000,-0.002750319428741932,0.017093852162361145,0.07683262228965759,9.207188606262207,0.31665024161338806,-3.2064311504364014
1403715526707143000,-0.0024817408993840218,0.019778072834014893,0.08293592929840088,9.328322410583496,0.43636706471443176,-3.2388644218444824
1403715526712143000,-0.007849705405533314,0.02470855414867401,0.0730629488825798,9.076217651367188,0.251754492521286,-3.190561056137085
1403715526717143000,-0.0067917825654149055,0.011461570858955383,0.06910824775695801,9.29660415649414,0.3569575548171997,-3.2231807708740234
1403715526722143000,-0.006285679526627064,0.013428941369056702,0.07343074679374695,9.321240425109863,0.2658301591873169,-3.1502468585968018
1403715526727143000,-0.007642281241714954,0.018344849348068237,0.07581150531768799,9.337538719177246,0.32462239265441895,-3.353337049484253
1403715526732143000,-0.00556947011500597,0.03168918192386627,0.08146838843822479,9.279993057250977,0.33095577359199524,-3.124260425567627
1403715526737143000,-0.005036664195358753,0.029489919543266296,0.081501305103302,9.28066349029541,0.36452198028564453,-3.109816074371338
1403715526742143000,-0.004830998368561268,0.0258638858795166,0.08012816309928894,9.117249488830566,0.2444736510515213,-3.1343493461608887
1403715526747143000,-0.0028429748490452766,0.015498608350753784,0.07401765137910843,9.255472183227539,0.34027403593063354,-3.181823968887329
1403715526752143000,-0.006112498231232166,0.021989330649375916,0.07677964866161346,9.263633728027344,0.32311564683914185,-3.206597089767456
1403715526757143000,-0.005061131902039051,0.01369445025920868,0.07608731836080551,9.149616241455078,0.3005237281322479,-3.206974744796753
1403715526762143000,-0.005247187800705433,0.014822795987129211,0.07606443017721176,9.328575134277344,0.2756986618041992,-3.2233011722564697
1403715526767143000,-0.003758651204407215,0.01765821874141693,0.07644202560186386,9.158268928527832,0.29060089588165283,-3.1988332271575928
1403715526772143000,-0.0005714120343327522,0.021955415606498718,0.0745287835597992,9.288016319274902,0.31582343578338623,-3.19026255607605
1403715526777143000,-0.004299265332520008,0.02259838581085205,0.08157797157764435,9.181476593017578,0.30078452825546265,-3.1902520656585693
1403715526782143000,-0.00430105347186327,0.02862611413002014,0.08432790637016296,9.231762886047363,0.3801511228084564,-3.1995468139648438
1403715526787143000,-0.005376112647354603,0.0258224755525589,0.08449054509401321,9.108780860900879,0.36354413628578186,-3.133559465408325
1403715526792143000,-0.009172213263809681,0.022670552134513855,0.07602054625749588,9.247714042663574,0.3585113286972046,-3.1902894973754883
1403715526797143000,-0.008987349458038807,0.017776116728782654,0.0814388319849968,9.076226234436035,0.20214733481407166,-3.1173813343048096
1403715526802143000,-0.00895626563578844,0.018285036087036133,0.07890406250953674,9.271170616149902,0.22576002776622772,-3.239314317703247
1403715526807143000,-0.005089622922241688,0.015670359134674072,0.07686071842908859,9.255902290344238,0.22029465436935425,-3.167091131210327
1403715526812143000,-0.0025702835991978645,0.013735190033912659,0.0697208121418953,9.3214693069458,0.29021623730659485,-3.2482895851135254
1403715526817143000,0.00038434844464063644,0.02042795717716217,0.07519535720348358,9.303775787353516,0.2989337146282196,-3.1978800296783447
1403715526822143000,0.00010346155613660812,0.024536311626434326,0.07939282804727554,9.296727180480957,0.3982231020927429,-3.2556567192077637
1403715526827143000,-0.0020890654996037483,0.029309868812561035,0.0774058997631073,9.297053337097168,0.5009310245513916,-3.1909148693084717
1403715526832143000,-0.007735502906143665,0.025242716073989868,0.0816277340054512,9.173587799072266,0.36452344059944153,-3.157923936843872
1403715526837143000,-0.012980324216187,0.025329887866973877,0.07734810560941696,9.150958061218262,0.3980203866958618,-3.125338554382324
1403715526842143000,-0.011968296952545643,0.014225035905838013,0.0849076360464096,9.141047477722168,0.2582765519618988,-3.1736738681793213
1403715526847143000,-0.014469546265900135,0.017772361636161804,0.07479198276996613,9.231112480163574,0.30021968483924866,-3.2230772972106934
1403715526852143000,-0.009133619256317616,0.011548131704330444,0.08236806839704514,9.279996871948242,0.1955510973930359,-3.1833999156951904
1403715526857143000,-0.0020511569455266,0.01415589451789856,0.06693112105131149,9.540024757385254,0.13749836385250092,-3.344966411590576
1403715526862143000,0.003614860586822033,0.021117806434631348,0.0722121074795723,9.393645286560059,0.36334991455078125,-3.466655969619751
1403715526867143000,0.003375220112502575,0.023216605186462402,0.07941676676273346,9.321430206298828,0.4134410321712494,-3.2554774284362793
1403715526872143000,0.00020815711468458176,0.03344149887561798,0.08230776339769363,9.483757972717285,0.46865344047546387,-3.2719802856445312
1403715526877143000,-0.008397472091019154,0.027300819754600525,0.08357138186693192,9.264493942260742,0.33919253945350647,-3.173238754272461
1403715526882143000,-0.004624170251190662,0.021749526262283325,0.07650502771139145,9.524026870727539,0.2668035924434662,-3.311664581298828
1403715526887143000,-0.007661324925720692,0.021875187754631042,0.0788005143404007,9.149910926818848,0.16987177729606628,-3.117168426513672
1403715526892143000,-0.008359146304428577,0.005956694483757019,0.07265543192625046,9.345881462097168,0.1784306764602661,-3.223505973815918
1403715526897143000,0.005681323818862438,0.011412262916564941,0.0968552753329277,9.637627601623535,0.37183111906051636,-3.197906732559204
1403715526902143000,-0.00043900031596422195,0.015419214963912964,0.09347032755613327,9.769899368286133,0.6967085599899292,-3.335476875305176
1403715526907143000,-0.019748639315366745,0.06222105026245117,0.08962175995111465,9.33818531036377,0.5509526133537292,-3.335753917694092
1403715526912143000,-0.042244549840688705,0.026843011379241943,0.06569414585828781,8.354903221130371,0.14882951974868774,-2.6623196601867676
1403715526917143000,-0.023222025483846664,0.0069348812103271484,0.06661899387836456,8.912982940673828,-0.22679750621318817,-2.9631989002227783
1403715526922143000,0.015102255158126354,0.0012586712837219238,0.0869724303483963,8.488739967346191,-0.02514408528804779,-2.911776304244995
1403715526927143000,0.03388171270489693,0.00809621810913086,0.07906448841094971,9.596555709838867,0.3472125828266144,-3.2898426055908203
1403715526932143000,0.01892118528485298,0.034972429275512695,0.07609396427869797,8.310468673706055,0.6149111390113831,-2.9374942779541016
1403715526937143000,-0.00743142981082201,-0.005969971418380737,0.04456958919763565,8.866943359375,0.7646920084953308,-3.0526275634765625
1403715526942143000,-0.022429894655942917,0.015226542949676514,0.06064678356051445,8.83989143371582,0.5871634483337402,-2.9371917247772217
1403715526947143000,-0.017725776880979538,-0.015707165002822876,0.09180038422346115,8.904894828796387,0.5304451584815979,-3.21443772315979
1403715526952143000,-0.014247250743210316,0.020423471927642822,0.09459518641233444,9.82168197631836,0.22693003714084625,-3.4255566596984863
1403715526957143000,-0.01517255324870348,0.04942469298839569,0.09027499705553055,8.809657096862793,0.43585625290870667,-3.143278121948242
1403715526962143000,-0.02209029719233513,-0.0007623881101608276,0.07261331379413605,9.053216934204102,0.1716434210538864,-3.166114091873169
1403715526967143000,-0.025156181305646896,0.014642834663391113,0.053108856081962585,9.140846252441406,0.01961716264486313,-3.1667532920837402
1403715526972143000,0.005788850598037243,-0.0023449212312698364,0.08153299242258072,9.199570655822754,-0.014137991704046726,-3.3050763607025146
1403715526977143000,0.017404455691576004,0.010875880718231201,0.08502555638551712,9.912347793579102,0.08182623982429504,-3.5326454639434814
1403715526982143000,0.018206406384706497,0.051876142621040344,0.07439999282360077,8.964600563049316,0.5404430627822876,-3.1987857818603516
1403715526987143000,-0.007447999902069569,0.013137802481651306,0.05572517588734627,9.412985801696777,0.2494209110736847,-3.224151611328125
1403715526992143000,-0.014448237605392933,0.026577964425086975,0.04770262539386749,9.4421968460083,0.1348823606967926,-3.221558094024658
1403715526997143000,0.00027998071163892746,0.01369638741016388,0.0843251571059227,9.0827054977417,0.3617205023765564,-3.2138924598693848
1403715527002143000,-0.0111703397706151,0.03476467728614807,0.08615610003471375,10.011422157287598,0.35594671964645386,-3.5096747875213623
1403715527007143000,-0.017108064144849777,0.06221863627433777,0.09235458821058273,9.047744750976562,0.4850071966648102,-3.1014373302459717
1403715527012143000,-0.023806851357221603,0.022951453924179077,0.07420234382152557,9.103462219238281,-0.07902353256940842,-3.1024951934814453
1403715527017143000,-0.014739898033440113,0.033000484108924866,0.0676843672990799,9.31273365020752,-0.15414762496948242,-3.035588026046753
1403715527022143000,0.00846435409039259,0.005147993564605713,0.08833296597003937,8.986588478088379,0.23515334725379944,-3.124253749847412
1403715527027143000,0.01779334619641304,0.012230738997459412,0.10050324350595474,9.707740783691406,0.2813892364501953,-3.321605920791626
1403715527032143000,0.014556932263076305,0.045416027307510376,0.1022019162774086,9.036405563354492,0.5453383326530457,-3.108140468597412
1403715527037143000,0.007058161310851574,0.009649977087974548,0.07968910783529282,9.313562393188477,0.49947890639305115,-3.180779457092285
1403715527042143000,-0.012882274575531483,0.018279552459716797,0.06184737756848335,9.169032096862793,0.47689223289489746,-3.099642753601074
1403715527047143000,-0.01832238957285881,-0.01013106107711792,0.05983990058302879,8.996820449829102,0.526986837387085,-3.175089120864868
1403715527052143000,-0.006460142321884632,0.003158271312713623,0.08705952763557434,9.636329650878906,0.532526969909668,-3.2634124755859375
1403715527057143000,-0.00960580725222826,0.032861605286598206,0.0899503082036972,9.143567085266113,0.5833795070648193,-3.220221757888794
1403715527062143000,-0.01741321012377739,0.01439666748046875,0.08263383060693741,9.092931747436523,0.6256479620933533,-3.1572699546813965
1403715527067143000,-0.01966245099902153,0.026148170232772827,0.06564804166555405,9.314351081848145,0.31067728996276855,-3.155710220336914
1403715527072143000,-0.019073795527219772,0.008866995573043823,0.04162580519914627,8.95533275604248,0.03794381022453308,-3.0698976516723633
1403715527077143000,-0.0009412886574864388,0.00044809281826019287,0.0640859603881836,9.195229530334473,0.18655672669410706,-3.2316601276397705
1403715527082143000,0.012237745337188244,0.02253095805644989,0.07763740420341492,9.378225326538086,0.2921949625015259,-3.205487012863159
1403715527087143000,0.019336659461259842,0.02610744535923004,0.09381977468729019,9.041238784790039,0.5824422836303711,-3.288602590560913
1403715527092143000,0.00010712724179029465,0.025455370545387268,0.07463903725147247,9.200879096984863,0.6300981044769287,-3.132382392883301
1403715527097143000,-0.019720029085874557,0.025017529726028442,0.06715291738510132,9.068609237670898,0.2888120114803314,-3.1111536026000977
1403715527102143000,-0.023577284067869186,0.017057448625564575,0.05579623207449913,8.903797149658203,-0.05512315779924393,-3.085678815841675
1403715527107143000,-0.005446505732834339,0.01337084174156189,0.08348323404788971,9.337224960327148,0.30810216069221497,-3.108522415161133
1403715527112143000,-0.000453961081802845,0.03446388244628906,0.09776569157838821,9.287220001220703,0.1151631623506546,-3.1276752948760986
1403715527117143000,0.0022831736132502556,0.031232833862304688,0.10216458141803741,9.142914772033691,0.40391480922698975,-3.117737293243408
1403715527122143000,-0.00271762628108263,0.028472021222114563,0.08919332176446915,9.304179191589355,0.263727605342865,-3.0865249633789062
1403715527127143000,-0.01103897113353014,0.03432634472846985,0.06819892674684525,9.344817161560059,0.13171552121639252,-3.1513664722442627
1403715527132143000,-0.010143679566681385,0.017763853073120117,0.055387116968631744,9.045194625854492,-0.08343105018138885,-3.003082513809204
1403715527137143000,0.00662423949688673,0.014216557145118713,0.06746158003807068,9.556002616882324,0.2918030023574829,-3.1999993324279785
1403715527142143000,0.014015036635100842,0.028326958417892456,0.09825905412435532,9.232869148254395,0.3273710012435913,-3.287503719329834
1403715527147143000,0.004671978764235973,0.02160516381263733,0.09371581673622131,9.426871299743652,0.6678089499473572,-3.2967565059661865
1403715527152143000,-0.01789982244372368,0.029448360204696655,0.08437500894069672,9.369056701660156,0.5754026770591736,-3.108330249786377
1403715527157143000,-0.03191251680254936,0.01625719666481018,0.05992606282234192,9.03935432434082,0.137671560049057,-3.1080260276794434
1403715527162143000,-0.024105530232191086,0.0007442384958267212,0.057928625494241714,9.391144752502441,0.0005118764820508659,-3.149596929550171
1403715527167143000,-0.00448997039347887,0.008117243647575378,0.06822998076677322,9.354351043701172,0.15318185091018677,-3.231139659881592
1403715527172143000,0.005632507614791393,0.010862335562705994,0.08461296558380127,9.209243774414062,0.23082293570041656,-3.1506242752075195
1403715527177143000,0.006952214054763317,0.01327812671661377,0.09215360134840012,9.545255661010742,0.4771410822868347,-3.352861166000366
1403715527182143000,-0.0014443518593907356,0.025936290621757507,0.0890435054898262,9.11129379272461,0.6568498611450195,-3.058680534362793
1403715527187143000,-0.016459833830595016,0.011198669672012329,0.07586704939603806,9.0594482421875,0.3387623131275177,-3.157782554626465
1403715527192143000,-0.016536008566617966,0.007826089859008789,0.05664108321070671,9.457497596740723,0.18852932751178741,-3.2878966331481934
1403715527197143000,-0.005146634764969349,0.012909576296806335,0.0716213658452034,9.169413566589355,0.2500949800014496,-3.2237422466278076
1403715527202143000,0.007471936754882336,0.016892209649086,0.08162136375904083,9.09131145477295,0.44860684871673584,-3.231598377227783
1403715527207143000,0.003379511646926403,0.018964961171150208,0.10403884202241898,9.236666679382324,0.5535756349563599,-3.278806447982788
1403715527212143000,-0.00902132410556078,0.026796936988830566,0.09550909698009491,9.110895156860352,0.5126001238822937,-3.1575305461883545
1403715527217143000,-0.015811722725629807,0.020237281918525696,0.07720989733934402,9.147543907165527,0.3732534646987915,-3.1736743450164795
1403715527222143000,-0.015107822604477406,0.01566404104232788,0.06318188458681107,9.206393241882324,0.07909633219242096,-3.2403054237365723
1403715527227143000,-0.0077440859749913216,0.011656656861305237,0.05368131026625633,9.103215217590332,0.049880415201187134,-3.2890732288360596
1403715527232143000,0.0042625246569514275,0.015500009059906006,0.06189565360546112,9.31119155883789,0.30315783619880676,-3.26421856880188
1403715527237143000,0.0067979274317622185,0.03232543170452118,0.08533018082380295,9.287909507751465,0.43102699518203735,-3.279541492462158
1403715527242143000,0.0012180982157588005,0.028204500675201416,0.08983609825372696,8.921692848205566,0.36410635709762573,-3.0595178604125977
1403715527247143000,-0.0052852751687169075,0.023697301745414734,0.08592391759157181,9.252540588378906,0.5338009595870972,-3.222869634628296
1403715527252143000,-0.018658708781003952,0.022609218955039978,0.07334044575691223,9.289732933044434,0.2878829538822174,-3.3284904956817627
1403715527257143000,-0.01665426418185234,0.0254499614238739,0.055819619446992874,9.28117847442627,-0.0003275118942838162,-3.1665797233581543
1403715527262143000,-0.005680364556610584,0.018517151474952698,0.06884724646806717,9.270312309265137,0.37727078795433044,-3.29648494720459
1403715527267143000,-0.016483020037412643,0.030884161591529846,0.0744875967502594,9.348145484924316,0.46372225880622864,-3.2782785892486572
1403715527272143000,-0.01247705239802599,0.03894317150115967,0.09483304619789124,9.350722312927246,0.05575583875179291,-3.2960762977600098
1403715527277143000,0.0007357178255915642,0.03373140096664429,0.09902971237897873,9.22933292388916,0.01471401285380125,-3.1406373977661133
1403715527282143000,0.010484474711120129,0.024772480130195618,0.10068335384130478,9.477245330810547,0.1808854639530182,-3.2066595554351807
1403715527287143000,0.010623740963637829,0.029134199023246765,0.07057558000087738,9.718831062316895,-0.37514743208885193,-3.1925923824310303
1403715527292143000,0.03226550295948982,0.023930624127388,0.04765115678310394,9.63135051727295,-0.3783046305179596,-3.1583478450775146
1403715527297143000,0.05203418806195259,0.03336240351200104,0.06364093720912933,9.078471183776855,0.6770927309989929,-3.0344173908233643
1403715527302143000,0.034677404910326004,0.00951792299747467,0.08194788545370102,9.335810661315918,1.2858524322509766,-3.1565158367156982
1403715527307143000,-0.0162954144179821,0.02310846745967865,0.09140270948410034,9.494186401367188,1.3604387044906616,-3.283538341522217
1403715527312143000,-0.07815079391002655,0.016093775629997253,0.08560678362846375,9.057290077209473,0.9110579490661621,-3.026963949203491
1403715527317143000,-0.09062385559082031,0.01570858061313629,0.07940804213285446,9.134102821350098,0.12648379802703857,-3.1107304096221924
1403715527322143000,-0.07364514470100403,0.009812071919441223,0.06608481705188751,9.013985633850098,-0.4352082312107086,-2.8732550144195557
1403715527327143000,-0.012254101224243641,0.009526237845420837,0.0719127282500267,9.370136260986328,-0.8944811820983887,-2.987338066101074
1403715527332143000,0.04546390846371651,0.022298678755760193,0.07737865298986435,9.076092720031738,-0.6341143846511841,-3.011733055114746
1403715527337143000,0.07589370012283325,0.019480735063552856,0.07560979574918747,9.109938621520996,0.3883732855319977,-3.257546901702881
1403715527342143000,0.0533970482647419,0.023840293288230896,0.0647982507944107,8.822733879089355,1.0595743656158447,-3.132826089859009
1403715527347143000,0.011497813276946545,0.014267593622207642,0.0689101293683052,9.31412410736084,1.4128519296646118,-3.156301975250244
1403715527352143000,-0.018077831715345383,0.0294550359249115,0.0934591144323349,9.004239082336426,0.901499330997467,-3.098555564880371
1403715527357143000,-0.03861836716532707,-0.0032112598419189453,0.08982094377279282,8.936907768249512,0.5539445281028748,-3.1410486698150635
1403715527362143000,-0.05054576322436333,0.01858818531036377,0.07047295570373535,9.302082061767578,0.08678604662418365,-3.4671287536621094
1403715527367143000,-0.0390385203063488,-0.0005425065755844116,0.07141006737947464,9.10270881652832,0.11910045892000198,-3.142005681991577
1403715527372143000,-0.013276231475174427,0.024581387639045715,0.06670627743005753,9.76110553741455,-0.20170362293720245,-3.3487987518310547
1403715527377143000,0.019268561154603958,0.02355360984802246,0.08742602169513702,8.702974319458008,0.07129357755184174,-2.9712026119232178
1403715527382143000,0.020180869847536087,0.005136638879776001,0.0757640153169632,9.678244590759277,0.36253127455711365,-3.508967399597168
1403715527387143000,0.0007789311930537224,0.03200177848339081,0.06626538187265396,9.14836597442627,0.3586491644382477,-3.1013190746307373
1403715527392143000,0.004262822680175304,0.010886386036872864,0.06318175047636032,9.281892776489258,0.10459224134683609,-3.143850564956665
1403715527397143000,0.026226002722978592,0.02327875792980194,0.0952516421675682,9.048426628112793,0.2799735963344574,-3.1242640018463135
1403715527402143000,0.014869528822600842,-0.0013745427131652832,0.0822342038154602,9.188162803649902,0.36452460289001465,-3.4338772296905518
1403715527407143000,-0.016562115401029587,0.009764626622200012,0.06091757491230965,9.225239753723145,0.7762060165405273,-3.1564831733703613
1403715527412143000,-0.03170786425471306,0.015071853995323181,0.06627839803695679,9.413395881652832,0.474521279335022,-3.037926197052002
1403715527417143000,-0.024661865085363388,0.02060471475124359,0.09733565896749496,9.010908126831055,-0.1222701445221901,-3.166490077972412
1403715527422143000,-0.019864331930875778,0.004878103733062744,0.09407778084278107,9.490036010742188,-0.28698405623435974,-3.1741271018981934
1403715527427143000,-0.021544482558965683,0.034525349736213684,0.07070056349039078,9.525114059448242,-0.039363160729408264,-3.159245491027832
1403715527432143000,-0.007608053274452686,0.020572587847709656,0.08148305863142014,9.176387786865234,-0.39928728342056274,-2.865748882293701
1403715527437143000,0.029932130128145218,0.024549663066864014,0.09911210834980011,9.327818870544434,-0.17563292384147644,-3.1652889251708984
1403715527442143000,0.03831346705555916,0.01182219386100769,0.08617910742759705,9.40859603881836,0.0667455792427063,-3.336101770401001
1403715527447143000,0.007423299364745617,0.01881164312362671,0.06651052087545395,9.446690559387207,1.0698778629302979,-3.343801736831665
1403715527452143000,-0.01776067540049553,0.03460291028022766,0.05987377092242241,9.111701965332031,0.539849579334259,-3.165992498397827
1403715527457143000,-0.005865377373993397,0.014672383666038513,0.08907613903284073,8.636202812194824,0.3569446802139282,-3.084134578704834
1403715527462143000,0.0033607957884669304,0.003894507884979248,0.09076379984617233,9.952335357666016,0.2543906569480896,-3.6182198524475098
1403715527467143000,-0.021963220089673996,0.025397583842277527,0.05973425880074501,9.186431884765625,1.0530602931976318,-3.1628494262695312
1403715527472143000,-0.04605228826403618,0.03413337469100952,0.05003967508673668,8.73085880279541,0.448539674282074,-3.020113945007324
1403715527477143000,-0.016661416739225388,0.002544388175010681,0.09126529842615128,8.693053245544434,-0.03663412481546402,-2.912313222885132
1403715527482143000,-0.008531522937119007,0.018290653824806213,0.08352479338645935,10.026484489440918,0.07609830051660538,-3.6461892127990723
1403715527487143000,-0.011702758260071278,0.03934307396411896,0.07534470409154892,8.956562042236328,0.5518729090690613,-3.0351481437683105
1403715527492143000,-0.006526869721710682,0.037086352705955505,0.075701043009758,8.612810134887695,0.08681467175483704,-2.8828210830688477
1403715527497143000,0.04108627513051033,0.007514730095863342,0.10610706359148026,8.903255462646484,-0.290805846452713,-3.0507235527038574
1403715527502143000,0.039510328322649,0.02162434160709381,0.08465123176574707,9.898932456970215,0.4955582618713379,-3.4822421073913574
1403715527507143000,0.003716754727065563,0.05223211646080017,0.051996950060129166,9.11192798614502,1.120764970779419,-3.157831907272339
1403715527512143000,-0.018206875771284103,0.03322155773639679,0.07558178901672363,8.403654098510742,0.5657896995544434,-3.0125463008880615
1403715527517143000,-0.007260811515152454,0.006177648901939392,0.09339950978755951,9.83159351348877,0.00023996607342269272,-3.409651041030884
1403715527522143000,-0.017766963690519333,0.03632642328739166,0.07040973752737045,9.484002113342285,0.5762210488319397,-3.2308850288391113
1403715527527143000,-0.04183347150683403,0.03901977837085724,0.05151646211743355,8.968688011169434,0.5175871253013611,-3.0711236000061035
1403715527532143000,-0.013325897045433521,0.007276087999343872,0.09458313882350922,8.945749282836914,-0.28700464963912964,-2.8728461265563965
1403715527537143000,0.006272631697356701,0.019170910120010376,0.08280978351831436,10.061285018920898,-0.11455267667770386,-3.4188342094421387
1403715527542143000,-0.0031051458790898323,0.03871047496795654,0.05157756432890892,9.06959342956543,0.518618643283844,-3.019422769546509
1403715527547143000,-0.010675203986465931,0.020289957523345947,0.07204136252403259,8.84171199798584,0.44910597801208496,-3.103759527206421
1403715527552143000,0.010022240690886974,0.00980009138584137,0.10563818365335464,9.524959564208984,-0.09010673314332962,-3.2139997482299805
1403715527557143000,0.011047708801925182,0.0395994633436203,0.09365915507078171,9.78299617767334,0.10732389986515045,-3.246751070022583
1403715527562143000,-0.01006705779582262,0.03129585087299347,0.055410489439964294,8.82292652130127,0.6020402312278748,-3.084885597229004
1403715527567143000,-0.0067663611844182014,-0.008015647530555725,0.08615108579397202,8.68174934387207,0.24673539400100708,-3.035968780517578
1403715527572143000,0.0071225641295313835,0.008940443396568298,0.09661608189344406,10.264756202697754,0.028655627742409706,-3.4236321449279785
1403715527577143000,-0.009328854270279408,0.02968592941761017,0.03388730064034462,8.81511116027832,0.34488630294799805,-3.0750064849853516
1403715527582143000,-0.017514746636152267,-0.0015333592891693115,0.06598564982414246,8.614080429077148,0.7004177570343018,-3.0358710289001465
1403715527587143000,-0.0038848640397191048,-0.005105197429656982,0.10162961483001709,9.66408920288086,0.36331984400749207,-3.2236430644989014
1403715527592143000,-0.009402853436768055,0.03309430181980133,0.07823485881090164,9.778614044189453,0.014538191258907318,-3.206968069076538
1403715527597143000,-0.015202832408249378,0.014734119176864624,0.05868326500058174,8.641484260559082,0.43177759647369385,-3.0347368717193604
1403715527602143000,-0.0014965357258915901,-0.007978558540344238,0.09387682378292084,9.084610939025879,0.6818942427635193,-3.1659488677978516
1403715527607143000,0.005449640564620495,0.02898406982421875,0.11638563126325607,9.983936309814453,0.0035011388827115297,-3.4608616828918457
1403715527612143000,-0.007345003075897694,0.03817097842693329,0.04678266867995262,9.285548210144043,0.03531670570373535,-3.2143714427948
1403715527617143000,2.591591328382492e-05,0.0033898353576660156,0.06841645389795303,8.577665328979492,0.7713945508003235,-3.0092360973358154
1403715527622143000,0.0006736395880579948,0.014245137572288513,0.09303594380617142,9.699332237243652,0.4850881099700928,-3.3614044189453125
1403715527627143000,-0.014867466874420643,0.0381828248500824,0.056120291352272034,8.89111042022705,0.01320930477231741,-2.9810585975646973
1403715527632143000,-0.015835922211408615,-0.017075270414352417,0.054966751486063004,8.63304328918457,0.6653649806976318,-3.0755326747894287
1403715527637143000,-0.002523881383240223,0.005838841199874878,0.09689005464315414,10.093994140625,0.61542809009552,-3.478825807571411
1403715527642143000,-0.019032906740903854,0.029272526502609253,0.08079467713832855,8.559671401977539,0.0018141843611374497,-3.076214551925659
1403715527647143000,-0.005413842387497425,-0.0026967227458953857,0.06197156012058258,9.153951644897461,0.12112795561552048,-3.3309998512268066
1403715527652143000,0.013418602757155895,0.0016943663358688354,0.0993451252579689,9.41479206085205,0.3271175026893616,-3.1473588943481445
1403715527657143000,0.009200173430144787,0.03654254972934723,0.07358786463737488,9.40661334991455,0.11723563820123672,-3.094801902770996
1403715527662143000,0.010040479712188244,0.006485313177108765,0.07157780230045319,9.204262733459473,0.12712225317955017,-3.4851467609405518
1403715527667143000,0.007234531454741955,0.018549621105194092,0.08415086567401886,9.614814758300781,1.0561772584915161,-3.30971097946167
1403715527672143000,-0.019698794931173325,0.060456693172454834,0.07345090061426163,9.08109188079834,0.16001611948013306,-2.574014663696289
1403715527677143000,-0.022576656192541122,-0.0010004937648773193,0.06513450294733047,9.137307167053223,0.11878357082605362,-2.831937313079834
1403715527682143000,-0.012317520566284657,-0.0016960203647613525,0.0939418151974678,10.125569343566895,0.3636445999145508,-3.2685866355895996
1403715527687143000,-0.027991872280836105,0.045606210827827454,0.06284267455339432,8.661355018615723,-0.16411922872066498,-3.0605051517486572
1403715527692143000,-0.014136862941086292,-0.004638597369194031,0.05823890119791031,8.938682556152344,0.04462386667728424,-3.273066520690918
1403715527697143000,0.002463984303176403,0.014654204249382019,0.08613608777523041,9.705411911010742,0.4056636691093445,-3.3936495780944824
1403715527702143000,0.0015049455687403679,0.05694200098514557,0.07442232221364975,8.578380584716797,-0.1642138659954071,-3.3420159816741943
1403715527707143000,0.009867149405181408,-0.008179798722267151,0.06632710993289948,8.622245788574219,0.03662280738353729,-3.366929292678833
1403715527712143000,0.021693486720323563,0.012248188257217407,0.08808232843875885,9.977005004882812,0.7142562866210938,-3.505524158477783
1403715527717143000,-0.0015913667157292366,0.055685654282569885,0.06960480660200119,8.483559608459473,-0.025890598073601723,-2.761768102645874
1403715527722143000,0.002279805950820446,-0.024995967745780945,0.07047110050916672,8.819340705871582,0.4933461844921112,-2.8960001468658447
1403715527727143000,-0.004971426911652088,0.02314305305480957,0.10393326729536057,10.272238731384277,1.0003883838653564,-3.5333049297332764
1403715527732143000,-0.03329155966639519,0.05956648290157318,0.08975800126791,8.033346176147461,-0.29516837000846863,-3.473914623260498
1403715527737143000,-0.02117953822016716,-0.008242279291152954,0.09168994426727295,9.600695610046387,0.19903570413589478,-3.0344576835632324
1403715527742143000,-0.009772134013473988,0.06067124009132385,0.10925253480672836,9.6957368850708,0.702946126461029,-2.919957399368286
1403715527747143000,-0.013233286328613758,0.038100212812423706,0.07483343034982681,8.25467586517334,-0.4832278788089752,-3.344287157058716
1403715527752143000,0.015413629822432995,-0.014670893549919128,0.08580568432807922,9.550447463989258,0.18412122130393982,-3.2769696712493896
1403715527757143000,0.017345447093248367,0.06559392809867859,0.08275974541902542,10.073784828186035,0.6576849222183228,-2.8802993297576904
1403715527762143000,0.007375854067504406,0.008087590336799622,0.046206310391426086,7.767326354980469,-0.3948470652103424,-3.142766237258911
1403715527767143000,0.01898222044110298,-0.040813907980918884,0.05650707706809044,10.026552200317383,0.9741068482398987,-3.1256251335144043
1403715527772143000,-0.004085046239197254,0.060519978404045105,0.07194777578115463,10.001474380493164,0.9767959117889404,-3.2596328258514404
1403715527777143000,-0.02962864562869072,0.004543974995613098,0.04818534478545189,8.146708488464355,-0.0948299691081047,-3.14176607131958
1403715527782143000,-0.02169535681605339,-0.0159224271774292,0.08214440941810608,10.050171852111816,1.127401351928711,-3.250541925430298
1403715527787143000,-0.0298679880797863,0.08335290849208832,0.09532945603132248,8.744877815246582,-0.0587441548705101,-2.9795119762420654
1403715527792143000,-0.017303865402936935,-0.01652894914150238,0.08687029033899307,8.767679214477539,-0.2995014190673828,-3.1420254707336426
1403715527797143000,0.016510535031557083,0.017540737986564636,0.10558507591485977,10.680035591125488,0.8100882172584534,-3.2545053958892822
1403715527802143000,-0.008820516057312489,0.07154008746147156,0.08066269010305405,8.708150863647461,0.044740691781044006,-3.1102302074432373
1403715527807143000,0.0058686016127467155,-0.04764510691165924,0.06841739267110825,8.39007568359375,0.03882730007171631,-3.104694128036499
1403715527812143000,0.011353659443557262,0.009739980101585388,0.07591979950666428,10.874387741088867,1.1247506141662598,-3.3111770153045654
1403715527817143000,-0.0239189974963665,0.046828821301460266,0.06574548035860062,7.925007343292236,0.10533525049686432,-3.039034366607666
1403715527822143000,-0.00635866541415453,-0.06082078814506531,0.07231071591377258,8.655113220214844,0.19055010378360748,-3.1331982612609863
1403715527827143000,0.0046073077246546745,0.02762870490550995,0.09402989596128464,10.673539161682129,0.8667206168174744,-3.2314274311065674
1403715527832143000,-0.013719898648560047,0.02503138780593872,0.0837617889046669,7.96530818939209,-0.21281485259532928,-3.058353900909424
1403715527837143000,0.008786248974502087,-0.06485331058502197,0.09656210243701935,10.43460464477539,1.0261495113372803,-3.414156436920166
1403715527842143000,-0.022243093699216843,0.06054408848285675,0.0687250867486,9.61323070526123,0.5289345979690552,-3.1562066078186035
1403715527847143000,-0.0319279246032238,-0.011893361806869507,0.04544875770807266,7.781979084014893,-0.13350054621696472,-2.9726474285125732
1403715527852143000,0.007400858215987682,-0.02997620403766632,0.0785597711801529,10.864859580993652,0.513069748878479,-3.4197583198547363
1403715527857143000,-0.012791630811989307,0.10628359019756317,0.0753677636384964,9.136455535888672,0.03651503846049309,-3.2148923873901367
1403715527862143000,0.004689979366958141,-0.0365266352891922,0.08780458569526672,7.546989917755127,-0.1793803870677948,-2.9836337566375732
1403715527867143000,0.017057765275239944,-0.0037147849798202515,0.09416154772043228,11.223898887634277,1.0122531652450562,-3.684830665588379
1403715527872143000,-0.013990712352097034,0.08580061793327332,0.09435409307479858,7.7202229499816895,0.0424593910574913,-2.936666488647461
1403715527877143000,0.003852623514831066,-0.07182885706424713,0.08835778385400772,8.341506004333496,0.16587460041046143,-2.9725067615509033
1403715527882143000,-0.009052974171936512,0.04356102645397186,0.07190792262554169,11.031882286071777,0.9332475662231445,-3.725375175476074
1403715527887143000,-0.027545612305402756,0.05896875262260437,0.04885797202587128,7.473361015319824,-0.1501472443342209,-2.6682755947113037
1403715527892143000,0.0020671961829066277,-0.07259300351142883,0.08166506141424179,10.592707633972168,0.509480893611908,-3.3735294342041016
1403715527897143000,-0.017420928925275803,0.10349878668785095,0.06514420360326767,9.185663223266602,-0.17272105813026428,-3.049051523208618
1403715527902143000,0.013045030646026134,-0.03471502661705017,0.08001639693975449,7.749703407287598,0.19880233705043793,-2.9945755004882812
1403715527907143000,0.00754960160702467,0.022141873836517334,0.07870910316705704,10.75685977935791,0.9606623649597168,-3.387451648712158
1403715527912143000,-0.014798101969063282,0.09401457011699677,0.08075450360774994,8.26338005065918,0.09739610552787781,-2.5944085121154785
1403715527917143000,0.0045184968039393425,-0.05548238754272461,0.10997829586267471,8.610076904296875,0.31457310914993286,-3.044919967651367
1403715527922143000,-0.0078051211312413216,0.06149826943874359,0.09661934524774551,10.840965270996094,0.15345492959022522,-3.6735658645629883
1403715527927143000,-0.00278629083186388,0.029362201690673828,0.08681300282478333,7.857421875,0.1041807234287262,-2.811674118041992
1403715527932143000,0.007353919558227062,-0.0314488410949707,0.07096521556377411,9.875664710998535,0.7868417501449585,-3.4340579509735107
1403715527937143000,-0.01558156032115221,0.08125747740268707,0.0778663232922554,9.751376152038574,0.08930129557847977,-2.9776134490966797
1403715527942143000,0.0025818226858973503,-0.017814815044403076,0.0741252601146698,8.167778968811035,0.4093465805053711,-3.53053617477417
1403715527947143000,-0.011909139342606068,-0.004671275615692139,0.0591127835214138,10.74509334564209,-0.021637871861457825,-3.591935157775879
1403715527952143000,-0.008493763394653797,0.0346493124961853,0.06863663345575333,8.237748146057129,0.4212650954723358,-3.0197196006774902
1403715527957143000,-0.00880576390773058,-0.010695666074752808,0.05172432214021683,9.387192726135254,0.5442100763320923,-3.237117290496826
1403715527962143000,-0.002793622203171253,0.04843452572822571,0.07894764840602875,9.706598281860352,0.049626901745796204,-3.2723305225372314
1403715527967143000,0.002753603272140026,0.022112354636192322,0.07564195245504379,9.264165878295898,0.8401344418525696,-3.5314977169036865
1403715527972143000,-0.03358347341418266,0.04659298062324524,0.04841073974967003,9.914999008178711,0.07817516475915909,-3.64982533454895
1403715527977143000,-0.007490766234695911,0.05787692964076996,0.08068428188562393,8.737114906311035,0.4962419867515564,-3.081712007522583
1403715527982143000,-0.0198354534804821,0.04432274401187897,0.06381230801343918,8.910711288452148,0.25272122025489807,-2.8551223278045654
1403715527987143000,-0.005515319295227528,0.043506696820259094,0.08384767919778824,8.789908409118652,-0.23463808000087738,-3.0247600078582764
1403715527992143000,0.014500188641250134,0.008515492081642151,0.08978717029094696,9.178092956542969,0.7324479818344116,-3.2190001010894775
1403715527997143000,-0.014490840025246143,0.051974326372146606,0.05660958215594292,8.783641815185547,-0.23276624083518982,-2.8051209449768066
1403715528002143000,0.02042226865887642,-0.010772153735160828,0.09870366007089615,8.97787094116211,0.775896430015564,-3.06396746635437
1403715528007143000,-0.005545211024582386,0.026080921292304993,0.047107499092817307,9.94508171081543,0.5407984852790833,-3.833860397338867
1403715528012143000,0.006258356384932995,0.019719421863555908,0.07081147283315659,8.382159233093262,0.713143527507782,-3.0541913509368896
1403715528017143000,-0.00780798215419054,-0.003485560417175293,0.046870775520801544,10.159388542175293,0.28680962324142456,-3.135272264480591
1403715528022143000,-0.023874234408140182,0.025104016065597534,0.052502360194921494,8.684548377990723,-0.2565021812915802,-2.917847156524658
1403715528027143000,-0.01264230627566576,-0.048442304134368896,0.0790950208902359,8.921212196350098,0.7399861216545105,-2.9883534908294678
1403715528032143000,-0.044367413967847824,0.030019596219062805,0.055687066167593,10.376340866088867,0.3731728792190552,-3.3353352546691895
1403715528037143000,-0.00775871891528368,0.02364298701286316,0.11293425410985947,8.651966094970703,0.4578774869441986,-3.023124933242798
1403715528042143000,-0.019180577248334885,0.01909393072128296,0.06831011921167374,9.880810737609863,-0.20339524745941162,-3.8778393268585205
1403715528047143000,0.0052916137501597404,0.06337998807430267,0.0785452127456665,8.935261726379395,-0.37291958928108215,-2.7081871032714844
1403715528052143000,0.01804860308766365,0.02974790334701538,0.055506631731987,9.246009826660156,0.12772098183631897,-2.8893120288848877
1403715528057143000,-0.006613132543861866,0.050204530358314514,0.0474199540913105,8.902149200439453,-0.585540235042572,-2.9621336460113525
1403715528062143000,0.016910213977098465,-0.007750511169433594,0.07417478412389755,8.949698448181152,0.5406138896942139,-3.205150604248047
1403715528067143000,-0.019606303423643112,0.04441305994987488,0.06982191652059555,9.419927597045898,0.3757304549217224,-3.487837791442871
1403715528072143000,0.0023120222613215446,0.008619531989097595,0.1304675191640854,8.030077934265137,0.6172599196434021,-2.2703330516815186
1403715528077143000,-0.022673796862363815,-0.003928914666175842,0.08453918248414993,10.14517593383789,0.15305566787719727,-3.676264524459839
1403715528082143000,-0.008566183038055897,0.030665218830108643,0.10699375718832016,9.26253604888916,0.1731390804052353,-3.19537353515625
1403715528087143000,-0.006829065270721912,0.01707899570465088,0.08985498547554016,9.458749771118164,0.8811596632003784,-3.225713014602661
1403715528092143000,-0.01572149619460106,0.0687398910522461,0.0865679383277893,9.201436042785645,-0.24441370368003845,-2.8752503395080566
1403715528097143000,0.011020231060683727,0.003668054938316345,0.09684369713068008,8.515667915344238,0.12741227447986603,-2.822127342224121
1403715528102143000,-0.009179932065308094,0.019397124648094177,0.053648363798856735,10.201066970825195,-0.14845766127109528,-3.5233969688415527
1403715528107143000,0.015049832873046398,0.03725515305995941,0.07796774059534073,8.366286277770996,0.31031161546707153,-2.5051517486572266
1403715528112143000,-0.0010620178654789925,-0.009599283337593079,0.02739798277616501,9.834568977355957,0.19902460277080536,-3.643876314163208
1403715528117143000,-0.007357430644333363,0.011230602860450745,0.055465321987867355,8.732831001281738,0.46714699268341064,-3.111994743347168
1403715528122143000,-0.018383365124464035,-0.003560483455657959,0.045721281319856644,9.386689186096191,0.6241826415061951,-3.446955442428589
1403715528127143000,-0.021449174731969833,0.03759051859378815,0.05990864709019661,9.582008361816406,-0.6451571583747864,-3.085171699523926
1403715528132143000,-0.009635192342102528,-0.011076763272285461,0.07402002066373825,9.087851524353027,0.3691476583480835,-3.0039150714874268
1403715528137143000,-0.03796641156077385,0.01619689166545868,0.05705979838967323,9.663646697998047,0.42548102140426636,-3.7583487033843994
1403715528142143000,-0.00893170852214098,0.009122759103775024,0.09539148956537247,8.266849517822266,0.7248747944831848,-2.7898387908935547
1403715528147143000,-0.011702668853104115,-0.0008113235235214233,0.08335228264331818,9.810896873474121,-0.029669305309653282,-3.3469631671905518
1403715528152143000,0.003003823570907116,0.0400073379278183,0.08466695994138718,9.270516395568848,-0.598878026008606,-3.2666659355163574
1403715528157143000,0.02603049948811531,-0.011821195483207703,0.09592010825872421,9.17332649230957,0.5602580308914185,-3.032813549041748
1403715528162143000,0.021067429333925247,0.02406170964241028,0.11771726608276367,9.424949645996094,-0.4686032831668854,-3.0536365509033203
1403715528167143000,0.0443454273045063,-0.03136800229549408,0.11162237823009491,9.10217571258545,0.7841771245002747,-3.042429208755493
1403715528172143000,0.005222010426223278,0.006938546895980835,0.09480099380016327,9.537174224853516,0.740646481513977,-3.6678073406219482
1403715528177143000,0.004875469021499157,0.011064425110816956,0.10841307789087296,8.398688316345215,0.7650365233421326,-2.669926881790161
1403715528182143000,-0.03275255486369133,-0.0065740495920181274,0.06831704825162888,10.160341262817383,0.21866758167743683,-3.6032586097717285
1403715528187143000,-0.025404226034879684,0.04793752729892731,0.060221053659915924,9.90014362335205,0.24085937440395355,-3.315671682357788
1403715528192143000,-0.024374108761548996,0.02189628779888153,0.05677645280957222,9.238794326782227,1.0606156587600708,-3.3084828853607178
1403715528197143000,-0.02874879166483879,0.027180954813957214,0.05823696404695511,8.976727485656738,-0.3231552839279175,-3.268115997314453
1403715528202143000,-0.007955980487167835,-0.01646357774734497,0.06420959532260895,9.272459030151367,0.1353137344121933,-3.0942304134368896
1403715528207143000,-0.014777702279388905,0.006776437163352966,0.041824016720056534,9.451004028320312,0.09182150661945343,-3.4590094089508057
1403715528212143000,0.023078609257936478,0.024113550782203674,0.10047107189893723,8.770918846130371,-0.003659948008134961,-2.985579252243042
1403715528217143000,0.002767193131148815,0.0013122856616973877,0.06559677422046661,9.241087913513184,0.4279392957687378,-3.4307703971862793
1403715528222143000,0.02770315483212471,0.044836610555648804,0.1149178221821785,8.381762504577637,0.5573301315307617,-2.640284776687622
