#timestamp [ns],w_RS_S_x [rad s^-1],w_RS_S_y [rad s^-1],w_RS_S_z [rad s^-1],a_RS_S_x [m s^-2],a_RS_S_y [m s^-2],a_RS_S_z [m s^-2]
1413393212225760500,0.09494591130849153,0.02024581932313422,0.05864306286700947,9.128356708333332,0.10623870833333333,-2.606934458333333
1413393212230760500,0.05864306286700947,0.03560471674068433,0.05166174585903216,9.422556208333333,1.1604535833333331,-2.623278875
1413393212235760500,-0.01117010721276371,0.027925268031909273,0.06981317007977318,9.398039583333333,1.61809725,-2.705000958333333
1413393212240760500,-0.07260569688296412,0.033510321638291124,0.06981317007977318,9.496106083333332,0.6701210833333332,-2.8194118749999997
1413393212245760500,-0.09215338450530061,0.03630284844148206,0.07888888219014369,8.989429166666666,-0.13075533333333333,-2.7131731666666665
1413393212250760500,-0.05864306286700947,0.024434609527920613,0.10053096491487339,9.177389958333332,-0.8907707083333333,-2.582417833333333
1413393212255760500,-0.005585053606381855,0.009075712110370514,0.11379546723003027,9.299973083333333,-1.2340034583333332,-2.476179125
1413393212260760500,0.03700098014227979,0.013264502315156905,0.10053096491487339,9.586000375,-0.8172208333333333,-2.7458620000000002
1413393212265760500,0.0614355896702004,0.023736477827122883,0.09145525280450287,9.275456458333332,0.07354987499999999,-2.582417833333333
1413393212270760500,0.04468042885105484,0.017453292519943295,0.0767944870877505,9.536967125,0.4985047083333333,-2.6886565416666666
1413393212275760500,0.009773843811168246,0.028623399732707,0.060039326268604934,9.471589458333332,0.4004382083333333,-2.606934458333333
1413393212280760500,-0.01884955592153876,0.029321531433504733,0.07190756518216637,9.496106083333332,0.220649625,-2.9256505833333333
1413393212285760500,-0.032114058236695664,0.04258603374866164,0.08656833089891874,9.332661916666666,0.122583125,-2.705000958333333
1413393212290760500,-0.04328416544945937,0.023038346126325153,0.08447393579652555,9.398039583333333,-0.04903325,-2.8194118749999997
1413393212295760500,-0.0307177948351002,0.041887902047863905,0.09494591130849153,9.659550249999999,-0.3759215833333333,-2.9174783749999995
1413393212300760500,-0.01117010721276371,0.041887902047863905,0.09354964790689606,9.1201845,-0.43312704166666666,-2.4925235416666665
1413393212305760500,-0.0006981317007977319,0.024434609527920613,0.07749261878854824,9.291800875,-0.4903325,-2.59876225
1413393212310760500,0.020943951023931952,0.014660765716752367,0.07120943348136866,9.242767624999999,-0.4004382083333333,-2.5252123749999997
1413393212315760500,0.032812189937493394,0.008377580409572781,0.07539822368615504,9.447072833333333,-0.0980665,-2.655967708333333
1413393212320760500,0.02652900463031381,0.0013962634015954637,0.08936085770210968,9.496106083333332,0.269682875,-2.69682875
1413393212325760500,0.006283185307179587,0.01117010721276371,0.09773843811168245,9.447072833333333,0.44129925,-2.7376897916666665
1413393212330760500,-0.011868238913561441,0.027925268031909273,0.10122909661567112,9.7085835,0.2533384583333333,-2.8439284999999996
1413393212335760500,-0.028623399732707,0.03700098014227979,0.09145525280450287,9.757616749999999,0.0,-2.8684451249999996
1413393212340760500,-0.028623399732707,0.041887902047863905,0.07749261878854824,9.586000375,-0.17161637500000002,-2.754034208333333
1413393212345760500,-0.01815142422074103,0.04817108735504349,0.07051130178057091,9.324489708333333,-0.48216029166666663,-2.5006957499999998
1413393212350760500,0.005585053606381855,0.02583087292951608,0.0767944870877505,9.079323458333333,-0.5148491249999999,-2.3699404166666667
1413393212355760500,0.020943951023931952,0.016755160819145562,0.0879645943005142,9.201906583333333,-0.17978858333333333,-2.574245625
1413393212360760500,0.02234021442552742,0.008377580409572781,0.09075712110370514,9.283628666666665,0.057205458333333334,-2.6151066666666667
1413393212365760500,0.009075712110370514,0.005585053606381855,0.08307767239493008,9.487933875,0.13892754166666665,-2.7867230416666664
1413393212370760500,-0.003756992518901825,0.02614096738398075,0.07615752518177032,9.79741096496582,0.19029685854911804,-2.9665167331695557
1413393212375760500,-0.01628841459751129,0.04297289252281189,0.06654464453458786,9.53618049621582,0.02711094543337822,-2.8339803218841553
1413393212380760500,-0.02476261556148529,0.03038264997303486,0.07014580070972443,9.356449127197266,-0.1662093847990036,-2.670624256134033
1413393212385760500,-0.013051912188529968,0.05206814408302307,0.07498066127300262,9.445432662963867,-0.3119789958000183,-2.6782779693603516
1413393212390760500,0.007003329694271088,0.03389634191989899,0.08728565275669098,8.841339111328125,-0.19844329357147217,-2.3999199867248535
1413393212395760500,0.0007866546511650085,0.001597704365849495,0.098978191614151,9.2429838180542,0.13767962157726288,-2.550534963607788
1413393212400760500,-0.008860372006893158,0.01774921454489231,0.0899466723203659,9.74916934967041,-0.04306209832429886,-2.77925181388855
1413393212405760500,-0.011587090790271759,0.029632413759827614,0.083852119743824,9.6171875,-0.2579565644264221,-2.9573757648468018
1413393212410760500,-0.007382921874523163,0.01769695244729519,0.07850480079650879,9.201480865478516,-0.23438486456871033,-2.6539623737335205
1413393212415760500,0.0011557191610336304,0.023528756573796272,0.07643093913793564,9.79801082611084,-0.34839022159576416,-2.882051706314087
1413393212420760500,0.017841778695583344,0.05143732577562332,0.08194968104362488,9.27377700805664,-0.15047292411327362,-2.5705881118774414
1413393212425760500,0.023202940821647644,0.026049243286252022,0.09908917546272278,9.005949020385742,0.10332947224378586,-2.5564587116241455
1413393212430760500,0.0050667449831962585,0.004476627334952354,0.09460331499576569,9.447577476501465,0.32474231719970703,-2.7639095783233643
1413393212435760500,-0.01649799570441246,0.01577848382294178,0.08915963768959045,9.478711128234863,0.2602803409099579,-2.697565793991089
1413393212440760500,-0.033970415592193604,0.018899692222476006,0.08809281885623932,9.462298393249512,-0.13296851515769958,-2.7300548553466797
1413393212445760500,-0.03044702112674713,0.023292744532227516,0.07220514863729477,9.41443157196045,-0.5679267644882202,-2.7268433570861816
1413393212450760500,-0.005960352718830109,0.027084020897746086,0.07375526428222656,9.48673152923584,-0.4941081404685974,-2.6851797103881836
1413393212455760500,0.025344274938106537,0.02834038995206356,0.08471545577049255,9.543187141418457,-0.24088479578495026,-2.702831268310547
1413393212460760500,0.03162491321563721,0.039314739406108856,0.08784076571464539,9.389631271362305,-0.0947999581694603,-2.6052961349487305
1413393212465760500,0.024037159979343414,0.03320576250553131,0.07952459901571274,9.324637413024902,0.26574206352233887,-2.680072546005249
1413393212470760500,0.003129512071609497,0.029903201386332512,0.08568096160888672,9.218215942382812,0.4626705050468445,-2.526470184326172
1413393212475760500,-0.01998642086982727,0.010100599378347397,0.08860307931900024,9.389652252197266,0.12778133153915405,-2.672367811203003
1413393212480760500,-0.03522519767284393,0.012667180970311165,0.08204489946365356,9.60205078125,-0.1909450888633728,-2.8102715015411377
1413393212485760500,-0.02484077960252762,0.024654464796185493,0.08263681083917618,9.421889305114746,-0.26435816287994385,-2.695054054260254
1413393212490760500,-0.01100853830575943,0.01911150850355625,0.08447670936584473,9.413385391235352,-0.18188545107841492,-2.8262739181518555
1413393212495760500,0.0022532418370246887,0.02615688182413578,0.08249101042747498,9.495282173156738,-0.2565616965293884,-2.629518747329712
1413393212500760500,0.018373288214206696,0.026196138933300972,0.07412900775671005,9.658319473266602,-0.2580529749393463,-2.744495153427124
1413393212505760500,0.013483114540576935,0.03258443623781204,0.06703340262174606,9.282231330871582,-0.05297105759382248,-2.6630587577819824
1413393212510760500,0.011460013687610626,0.020067943260073662,0.07282420992851257,9.01366138458252,-0.10136541724205017,-2.5309808254241943
1413393212515760500,0.010860010981559753,0.003140874207019806,0.0931025892496109,9.251330375671387,-0.052937835454940796,-2.6216890811920166
1413393212520760500,-0.0032227560877799988,0.016314806416630745,0.08586576581001282,9.659265518188477,0.20848141610622406,-2.6725337505340576
1413393212525760500,-0.015060607343912125,0.034308359026908875,0.0996953547000885,9.487611770629883,0.3743322491645813,-2.7467942237854004
1413393212530760500,-0.028324298560619354,0.02194041945040226,0.09209233522415161,9.332388877868652,-0.03469625487923622,-2.6962223052978516
1413393212535760500,-0.02429185062646866,0.03186684101819992,0.08027869462966919,9.495176315307617,-0.4779486060142517,-2.719118356704712
1413393212540760500,-0.007497906684875488,0.03466887027025223,0.06809607148170471,9.330851554870605,-0.43640756607055664,-2.6447622776031494
1413393212545760500,0.014245264232158661,0.03324843943119049,0.07299954444169998,9.364065170288086,-0.48598936200141907,-2.63713002204895
1413393212550760500,0.026800625026226044,0.02704574353992939,0.08255136013031006,9.21741771697998,-0.2573702037334442,-2.5800137519836426
1413393212555760500,0.027454905211925507,0.015087058767676353,0.1005580872297287,9.275162696838379,0.23295846581459045,-2.606461524963379
1413393212560760500,0.003887280821800232,0.01396276243031025,0.09878590703010559,9.54548454284668,0.6502847075462341,-2.797205924987793
1413393212565760500,-0.027550511062145233,0.030033444985747337,0.08627354353666306,9.545883178710938,0.3978947699069977,-2.7552599906921387
1413393212570760500,-0.04012975096702576,0.03878571838140488,0.07350516319274902,9.413517951965332,-0.1661795824766159,-2.7611660957336426
1413393212575760500,-0.02415357530117035,0.029107095673680305,0.07149083912372589,9.486139297485352,-0.519234299659729,-2.669830083847046
1413393212580760500,-0.002595461905002594,0.04022480547428131,0.07094557583332062,9.559647560119629,-0.5425100922584534,-2.702233076095581
1413393212585760500,0.02042015641927719,0.03391159325838089,0.08274086564779282,9.111231803894043,-0.36161231994628906,-2.473564863204956
1413393212590760500,0.02945610135793686,0.017088567838072777,0.08995208144187927,9.479293823242188,0.02106531895697117,-2.7043581008911133
1413393212595760500,0.02179623395204544,0.02619541995227337,0.09815038740634918,9.46295166015625,0.37191498279571533,-2.582850694656372
1413393212600760500,-0.010752581059932709,0.013337364420294762,0.08782486617565155,9.398040771484375,0.5035260915756226,-2.7229583263397217
1413393212605760500,-0.03167463093996048,0.019700726494193077,0.07333577424287796,9.627087593078613,-0.061201825737953186,-2.7540507316589355
1413393212610760500,-0.027568049728870392,0.02694511227309704,0.06803688406944275,9.568846702575684,-0.4053674340248108,-2.743307113647461
1413393212615760500,-0.004635274410247803,0.02281283028423786,0.07168599218130112,9.347024917602539,-0.6093885898590088,-2.522599935531616
1413393212620760500,0.01559031754732132,0.022003984078764915,0.07562389969825745,9.315369606018066,-0.29692211747169495,-2.4738032817840576
1413393212625760500,0.024564772844314575,0.029736535623669624,0.08724017441272736,9.242457389831543,0.01464227493852377,-2.597198009490967
1413393212630760500,0.015486165881156921,0.022058216854929924,0.09539148956537247,9.430301666259766,0.3071678876876831,-2.6811623573303223
1413393212635760500,-0.007440142333507538,0.02398836426436901,0.09057067334651947,9.553204536437988,0.3811081051826477,-2.7801356315612793
1413393212640760500,-0.03029721975326538,0.027447404339909554,0.07484060525894165,9.251110076904297,0.1851929873228073,-2.7535767555236816
1413393212645760500,-0.03029109537601471,0.021193409338593483,0.07710011303424835,9.152713775634766,-0.22499124705791473,-2.661693572998047
1413393212650760500,-0.017789188772439957,0.01996207796037197,0.07923740148544312,9.503480911254883,-0.70045405626297,-2.636460542678833
1413393212655760500,0.011387497186660767,0.02284870855510235,0.0861145630478859,9.429224014282227,-0.5670512318611145,-2.6856906414031982
1413393212660760500,0.026001453399658203,0.031048888340592384,0.08721724152565002,9.298949241638184,-0.07563220709562302,-2.7446937561035156
1413393212665760500,0.02391844242811203,0.03037773258984089,0.09611501544713974,9.316216468811035,0.20116567611694336,-2.7376363277435303
1413393212670760500,0.0010178610682487488,0.029678238555788994,0.08305997401475906,9.519954681396484,0.30012047290802,-2.8281633853912354
1413393212675760500,-0.0171513631939888,0.03165288269519806,0.07343379408121109,9.446691513061523,0.29220595955848694,-2.762468099594116
1413393212680760500,-0.031080342829227448,0.032288990914821625,0.07356254011392593,9.356918334960938,-0.03542626276612282,-2.785489559173584
1413393212685760500,-0.027583681046962738,0.021899061277508736,0.08612015843391418,9.062705993652344,-0.3385339081287384,-2.5794334411621094
1413393212690760500,-0.010148636996746063,0.017130764201283455,0.08953894674777985,9.397163391113281,-0.6494872570037842,-2.6203982830047607
1413393212695760500,0.013418324291706085,0.020634757354855537,0.08795514702796936,9.487052917480469,-0.37120428681373596,-2.7360658645629883
1413393212700760500,0.02600351721048355,0.025449367240071297,0.08789259940385818,9.462496757507324,-0.10153882950544357,-2.76139760017395
1413393212705760500,0.021251894533634186,0.024731187149882317,0.08449992537498474,9.364309310913086,0.233400359749794,-2.8030056953430176
1413393212710760500,0.001042194664478302,0.02896708808839321,0.07278377562761307,9.519999504089355,0.22573231160640717,-2.8188717365264893
1413393212715760500,-0.01712246611714363,0.03652653843164444,0.07417137175798416,9.349080085754395,0.2753526270389557,-2.655165910720825
1413393212720760500,-0.021341565996408463,0.03168250620365143,0.08466747403144836,9.27558708190918,-0.10922808200120926,-2.6133103370666504
1413393212725760500,-0.017888639122247696,0.02481543831527233,0.09080876410007477,9.31575870513916,-0.31438544392585754,-2.5561788082122803
1413393212730760500,-0.004657812416553497,0.019937841221690178,0.08931238949298859,9.339598655700684,-0.33777931332588196,-2.5317904949188232
1413393212735760500,0.007189981639385223,0.019115911796689034,0.0892874151468277,9.421989440917969,-0.1508716344833374,-2.60627818107605
1413393212740760500,0.00717143714427948,0.01565910317003727,0.07756897062063217,9.47127914428711,-0.0609249509871006,-2.655040740966797
1413393212745760500,0.005825713276863098,0.019908735528588295,0.0693979412317276,9.633716583251953,0.07777740806341171,-2.8106253147125244
1413393212750760500,0.0003142058849334717,0.029654739424586296,0.06731916964054108,9.486743927001953,0.13574303686618805,-2.7203497886657715
1413393212755760500,-0.007382333278656006,0.0443313866853714,0.07350197434425354,9.52829647064209,-0.08483043313026428,-2.670565605163574
1413393212760760500,-0.006690666079521179,0.0325867161154747,0.08525332063436508,9.234490394592285,-0.24869699776172638,-2.498410701751709
1413393212765760500,-0.0018754005432128906,0.02277226187288761,0.08785593509674072,9.397531509399414,-0.09382027387619019,-2.606019973754883
1413393212770760500,-0.005362562835216522,0.017692765220999718,0.09480087459087372,9.446493148803711,0.10313356667757034,-2.705448627471924
1413393212775760500,-0.010894469916820526,0.020467063412070274,0.08674560487270355,9.43011474609375,-0.20730984210968018,-2.6634364128112793
1413393212780760500,-0.00950612872838974,0.017783312126994133,0.08052559196949005,9.53612232208252,-0.27328264713287354,-2.842968702316284
1413393212785760500,-0.006785765290260315,0.028367189690470695,0.07286106795072556,9.60960578918457,-0.12604768574237823,-2.8505308628082275
1413393212790760500,0.0009522810578346252,0.030382128432393074,0.08261847496032715,9.413409233093262,-0.20688174664974213,-2.7844183444976807
1413393212795760500,0.008681140840053558,0.034536853432655334,0.08177311718463898,9.250269889831543,-0.289135605096817,-2.5308990478515625
1413393212800760500,0.013477332890033722,0.018583623692393303,0.08650849759578705,9.340476989746094,-0.07779595255851746,-2.5725207328796387
1413393212805760500,0.011432021856307983,0.021969618275761604,0.09344123303890228,9.430245399475098,0.2825167775154114,-2.689039945602417
1413393212810760500,-0.002477101981639862,0.01627896912395954,0.09628461301326752,9.291913032531738,0.20943112671375275,-2.61592435836792
1413393212815760500,-0.019242648035287857,0.021218499168753624,0.08114291727542877,9.332488059997559,-0.10107196867465973,-2.7125802040100098
1413393212820760500,-0.019274085760116577,0.015024280175566673,0.0825810432434082,9.617497444152832,-0.19978494942188263,-2.940765619277954
1413393212825760500,-0.010243348777294159,0.032452501356601715,0.08044097572565079,9.56834888458252,-0.18254412710666656,-2.7603769302368164
1413393212830760500,-0.0032572895288467407,0.03380903601646423,0.08465760946273804,9.503434181213379,-0.39533916115760803,-2.6864190101623535
1413393212835760500,0.011402241885662079,0.0436774417757988,0.07693549990653992,9.405043601989746,-0.24826404452323914,-2.678133726119995
1413393212840760500,0.01694677770137787,0.03335344046354294,0.08021840453147888,9.323568344116211,0.012438587844371796,-2.5482864379882812
1413393212845760500,0.012108631432056427,0.028950059786438942,0.08729412406682968,9.471149444580078,0.2827269732952118,-2.7059836387634277
1413393212850760500,-0.004505239427089691,0.01417156495153904,0.08108165860176086,9.153362274169922,0.1685021072626114,-2.541541814804077
1413393212855760500,-0.017801880836486816,0.017639433965086937,0.07547823339700699,9.503640174865723,0.053665582090616226,-2.8763182163238525
1413393212860760500,-0.024159744381904602,0.021234342828392982,0.07972360402345657,9.323904991149902,-0.12563908100128174,-2.662461042404175
1413393212865760500,-0.013751879334449768,0.024046672508120537,0.08251608163118362,9.536481857299805,-0.3132644295692444,-2.686412811279297
1413393212870760500,-0.0025573447346687317,0.03176555037498474,0.08390028029680252,9.511378288269043,-0.3872568905353546,-2.653846502304077
1413393212875760500,0.0092388316988945,0.029763823375105858,0.07902775704860687,9.600830078125,-0.22477439045906067,-2.6870620250701904
1413393212880760500,0.016963504254817963,0.03386577218770981,0.08309853821992874,9.290589332580566,0.054198745638132095,-2.589850902557373
1413393212885760500,0.008631087839603424,0.03038041479885578,0.07757540047168732,9.202141761779785,0.20100358128547668,-2.6228151321411133
1413393212890760500,-0.007364146411418915,0.008032368496060371,0.07759258151054382,9.128959655761719,0.07716868072748184,-2.4592490196228027
1413393212895760500,-0.01710842177271843,0.0163417998701334,0.07968978583812714,9.740169525146484,0.003994469530880451,-2.892606496810913
1413393212900760500,-0.01717256009578705,0.03379321098327637,0.08805259317159653,9.315703392028809,-0.19032229483127594,-2.548194408416748
1413393212905760500,-0.01649489253759384,0.016373051330447197,0.08805488049983978,9.267183303833008,-0.3868778347969055,-2.784257173538208
1413393212910760500,-0.0018415525555610657,0.022069821134209633,0.07688724994659424,9.576906204223633,-0.3717993199825287,-2.6462295055389404
1413393212915760500,0.014109678566455841,0.032610565423965454,0.07626692205667496,9.755851745605469,-0.16654838621616364,-2.77669620513916
1413393212920760500,0.015539415180683136,0.04492400586605072,0.07762356102466583,9.347940444946289,0.2431161105632782,-2.6072781085968018
1413393212925760500,-0.0003561154007911682,0.026923349127173424,0.074801504611969,9.153183937072754,0.1357031613588333,-2.6222341060638428
1413393212930760500,-0.005990996956825256,0.01934918947517872,0.0873938649892807,9.242598533630371,-0.12729227542877197,-2.5317718982696533
1413393212935760500,-0.010950736701488495,0.007191093638539314,0.09010245651006699,9.568982124328613,-0.07693612575531006,-2.777733325958252
1413393212940760500,-0.00600973516702652,0.024503378197550774,0.09909197688102722,9.390034675598145,-0.13333439826965332,-2.7288994789123535
1413393212945760500,-0.007990725338459015,0.019253822043538094,0.08387687802314758,9.152281761169434,-0.29811733961105347,-2.6207656860351562
1413393212950760500,0.0071686506271362305,0.019320068880915642,0.08943134546279907,9.544029235839844,-0.2984030544757843,-2.7195851802825928
1413393212955760500,0.012729711830615997,0.02896343357861042,0.08045431226491928,9.829877853393555,0.12012285739183426,-2.9415299892425537
1413393212960760500,0.003753267228603363,0.04207102954387665,0.07764793932437897,9.397733688354492,0.3246030807495117,-2.795353651046753
1413393212965760500,-0.012179143726825714,0.03668879717588425,0.06439599394798279,9.201140403747559,-0.0028082565404474735,-2.7284562587738037
1413393212970760500,-0.008831121027469635,0.029145067557692528,0.07549156993627548,9.176370620727539,-0.16758094727993011,-2.4739060401916504
1413393212975760500,-0.007450416684150696,0.01281752623617649,0.088019460439682,9.356745719909668,-0.11739630997180939,-2.678842306137085
1413393212980760500,-0.01017267256975174,0.02036680467426777,0.08864118903875351,9.414780616760254,-0.03566400334239006,-2.59869384765625
1413393212985760500,-0.008713074028491974,0.0142745990306139,0.08804816007614136,9.372885704040527,-0.2982390522956848,-2.6788554191589355
1413393212990760500,0.0057496577501297,0.021372197195887566,0.0853295773267746,9.518892288208008,-0.2981909215450287,-2.6542675495147705
1413393212995760500,0.005063362419605255,0.03032631240785122,0.07416330277919769,9.707498550415039,0.04637745022773743,-2.8430516719818115
1413393213000760500,-0.00034283846616744995,0.033061012625694275,0.06647543609142303,9.30825424194336,0.3410278856754303,-2.770141839981079
1413393213005760500,-0.01360582560300827,0.0338774248957634,0.06927687674760818,9.291069030761719,-0.02757466770708561,-2.752441644668579
1413393213010760500,-0.008905135095119476,0.03400623798370361,0.07896934449672699,9.19267749786377,-0.2327963262796402,-2.457465648651123
1413393213015760500,0.0002029016613960266,0.023387623950839043,0.09017480909824371,9.33216667175293,-0.19912420213222504,-2.5722358226776123
1413393213020760500,-0.0018104836344718933,0.014887752011418343,0.09494378417730331,9.308390617370605,-0.08490972965955734,-2.6554691791534424
1413393213025760500,-0.001077122986316681,0.014992883428931236,0.09844265878200531,9.430485725402832,-0.3389459252357483,-2.662949800491333
1413393213030760500,0.004386089742183685,0.018499331548810005,0.09014849364757538,9.592782020568848,-0.17562197148799896,-2.663426160812378
1413393213035760500,0.005067311227321625,0.025329260155558586,0.07474618405103683,9.568742752075195,0.1932864785194397,-2.794116497039795
1413393213040760500,-0.007341504096984863,0.02894662506878376,0.07065598666667938,9.446922302246094,0.22606629133224487,-2.737042188644409
1413393213045760500,-0.0115007683634758,0.03252142667770386,0.07081690430641174,9.576959609985352,-0.11821678280830383,-2.7527377605438232
1413393213050760500,0.0001886412501335144,0.04588964581489563,0.08390915393829346,9.298773765563965,-0.24879352748394012,-2.465930938720703
1413393213055760500,0.0008376464247703552,0.028343399986624718,0.09006398916244507,9.013570785522461,-0.18227213621139526,-2.4983673095703125
1413393213060760500,0.00448974221944809,0.010804524645209312,0.09348568320274353,9.18592643737793,-0.17532111704349518,-2.605757713317871
1413393213065760500,0.007248051464557648,0.017044970765709877,0.09702599048614502,9.552918434143066,-0.13491109013557434,-2.6226277351379395
1413393213070760500,0.005735963582992554,0.017674682661890984,0.08598226308822632,9.68301773071289,0.04578850418329239,-2.729678153991699
1413393213075760500,-0.004592046141624451,0.02044612728059292,0.07693123817443848,9.561079978942871,0.13641047477722168,-2.810889959335327
1413393213080760500,-0.012927673757076263,0.02831670455634594,0.072120301425457,9.348517417907715,0.0372932031750679,-2.727909564971924
1413393213085760500,-0.010223157703876495,0.033912330865859985,0.0741439089179039,9.470612525939941,-0.10201091319322586,-2.6952054500579834
1413393213090760500,-0.0011988133192062378,0.03879989683628082,0.07483434677124023,9.396864891052246,-0.2233475148677826,-2.645756244659424
1413393213095760500,0.0023722872138023376,0.033288173377513885,0.08527891337871552,9.119511604309082,-0.17476050555706024,-2.5395162105560303
1413393213100760500,0.009303398430347443,0.010918756946921349,0.0893409326672554,9.071122169494629,-0.15157969295978546,-2.409571886062622
1413393213105760500,0.009265683591365814,0.009959684684872627,0.10122286528348923,9.594001770019531,0.0041077169589698315,-2.680366039276123
1413393213110760500,-0.007406897842884064,0.016234131529927254,0.08663441240787506,9.593732833862305,0.14486144483089447,-2.75427508354187
1413393213115760500,-0.014330469071865082,0.014874907210469246,0.07963749021291733,9.495771408081055,0.07898727804422379,-2.8192825317382812
1413393213120760500,-0.01853588968515396,0.024769926443696022,0.07419532537460327,9.535902976989746,-0.044698089361190796,-2.8182461261749268
1413393213125760500,-0.01094704121351242,0.034620895981788635,0.07279224693775177,9.560003280639648,-0.23277713358402252,-2.8006649017333984
1413393213130760500,-0.006697766482830048,0.04369428753852844,0.07069789618253708,9.470425605773926,-0.2639161944389343,-2.6786322593688965
1413393213135760500,0.0071977004408836365,0.042459845542907715,0.07771122455596924,9.233682632446289,-0.3708883821964264,-2.522944211959839
1413393213140760500,0.012043468654155731,0.029154999181628227,0.08864724636077881,9.013391494750977,-0.11047336459159851,-2.327643394470215
1413393213145760500,0.014162205159664154,0.0016283318400382996,0.09634771943092346,9.47922134399414,0.06160333752632141,-2.705030679702759
1413393213150760500,0.002412356436252594,0.018942615017294884,0.08587724715471268,9.618675231933594,0.2349863201379776,-2.7630703449249268
1413393213155760500,-0.017167355865240097,0.016970695927739143,0.07817211747169495,9.512434959411621,0.07071657478809357,-2.7456412315368652
1413393213160760500,-0.018540993332862854,0.02891143597662449,0.08392497897148132,9.446412086486816,-0.11046894639730453,-2.736137628555298
1413393213165760500,-0.015107810497283936,0.028359869495034218,0.08676682412624359,9.47872543334961,-0.23203346133232117,-2.7593493461608887
1413393213170760500,-0.008842028677463531,0.03251773864030838,0.0790787786245346,9.650070190429688,-0.2644205689430237,-2.7115657329559326
1413393213175760500,0.010740898549556732,0.040914908051490784,0.08464507758617401,9.372212409973145,-0.3551301062107086,-2.6623032093048096
1413393213180760500,0.021806932985782623,0.03607982397079468,0.08864691108465195,8.90698528289795,-0.15942993760108948,-2.4822998046875
1413393213185760500,0.0183158740401268,0.01156303845345974,0.09833312779664993,9.079852104187012,0.1852232813835144,-2.50825572013855
1413393213190760500,-0.0010507479310035706,0.012023115530610085,0.08940253406763077,9.71673583984375,0.29960447549819946,-2.8288819789886475
1413393213195760500,-0.01433069258928299,0.02385655604302883,0.08861439675092697,9.520308494567871,0.11111140996217728,-2.7458527088165283
1413393213200760500,-0.020693019032478333,0.0288784671574831,0.07760782539844513,9.348607063293457,-0.1671401411294937,-2.646209478378296
1413393213205760500,-0.019949331879615784,0.022022997960448265,0.07351189106702805,9.511480331420898,-0.19087597727775574,-2.759997844696045
1413393213210760500,-0.010860778391361237,0.03051101602613926,0.0728161633014679,9.649648666381836,-0.29742762446403503,-2.727407693862915
1413393213215760500,0.005745910108089447,0.04503488540649414,0.08119453489780426,9.347672462463379,-0.3631279468536377,-2.6542599201202393
1413393213220760500,0.017609044909477234,0.03188610076904297,0.08384888619184494,8.931818962097168,-0.1588577926158905,-2.506718635559082
1413393213225760500,0.015608392655849457,0.01092914491891861,0.09206919372081757,9.063072204589844,0.2015179842710495,-2.5158541202545166
1413393213230760500,0.004488594830036163,0.009261904284358025,0.08866457641124725,9.75699234008789,0.2909272313117981,-2.8287179470062256
1413393213235760500,-0.011575475335121155,0.02586711384356022,0.08802007883787155,9.659536361694336,0.020672859624028206,-2.8116202354431152
1413393213240760500,-0.019260108470916748,0.02748418040573597,0.07968531548976898,9.234529495239258,-0.15875400602817535,-2.62974214553833
1413393213245760500,-0.017825327813625336,0.021375948563218117,0.07688531279563904,9.445884704589844,-0.0763511210680008,-2.8096988201141357
1413393213250760500,-0.011604070663452148,0.02979896403849125,0.07564057409763336,9.731402397155762,-0.31424450874328613,-2.6948859691619873
1413393213255760500,0.0023013949394226074,0.03376498073339462,0.07288388907909393,9.552067756652832,-0.3226994276046753,-2.711733341217041
1413393213260760500,0.01550418883562088,0.04728711396455765,0.07759233564138412,9.045981407165527,-0.20721301436424255,-2.4497921466827393
1413393213265760500,0.012753970921039581,0.020140191540122032,0.08578293025493622,8.891317367553711,0.19322937726974487,-2.4255785942077637
1413393213270760500,0.0030841007828712463,0.007253101095557213,0.09351363033056259,9.626279830932617,0.1439584642648697,-2.746112823486328
1413393213275760500,-0.010866232216358185,0.022382421419024467,0.08313650637865067,9.830850601196289,0.004321871791034937,-2.9098901748657227
1413393213280760500,-0.01649133488535881,0.03163321316242218,0.07971435785293579,9.283562660217285,-0.1259671449661255,-2.5974678993225098
1413393213285760500,-0.016431476920843124,0.017881346866488457,0.08044411987066269,9.119610786437988,-0.17448312044143677,-2.6123595237731934
1413393213290760500,-0.004596106708049774,0.01720512844622135,0.0839473158121109,9.51973819732666,-0.25687092542648315,-2.6942460536956787
1413393213295760500,0.004392080008983612,0.02338249422609806,0.08047545701265335,9.642093658447266,-0.3310907483100891,-2.7362074851989746
1413393213300760500,0.012702606618404388,0.0506492555141449,0.07826825231313705,9.470477104187012,-0.1416863650083542,-2.5739734172821045
1413393213305760500,0.011419571936130524,0.02426670305430889,0.08792294561862946,8.81736946105957,0.18555018305778503,-2.5400009155273438
1413393213310760500,0.0016477257013320923,0.00876748375594616,0.10124484449625015,9.447020530700684,0.1597273051738739,-2.6802453994750977
1413393213315760500,-0.010884799063205719,0.017548592761158943,0.0893833115696907,9.773963928222656,0.004277624189853668,-2.8195459842681885
1413393213320760500,-0.016442514955997467,0.03572645038366318,0.0831199437379837,9.373398780822754,-0.1255965232849121,-2.761129856109619
1413393213325760500,-0.010181166231632233,0.018573271110653877,0.0887695923447609,9.282816886901855,-0.22424498200416565,-2.6129961013793945
1413393213330760500,-0.003227047622203827,0.024276128038764,0.07973794639110565,9.519189834594727,-0.2655389606952667,-2.727147102355957
1413393213335760500,0.005821555852890015,0.023367436602711678,0.07285862416028976,9.495121955871582,-0.15891824662685394,-2.605764389038086
1413393213340760500,0.009963765740394592,0.03863166272640228,0.07001224905252457,9.691496849060059,-0.1253911554813385,-2.843735694885254
1413393213345760500,0.010661981999874115,0.038909636437892914,0.07603131234645844,9.070189476013184,0.12848351895809174,-2.573089361190796
1413393213350760500,0.0023698434233665466,0.01859591342508793,0.08381757885217667,8.939940452575684,0.2748284935951233,-2.5404953956604004
1413393213355760500,-0.009462274610996246,0.013345295563340187,0.08733636140823364,9.52122974395752,0.08643495291471481,-2.7373499870300293
1413393213360760500,-0.01995309442281723,0.02740965597331524,0.08446133136749268,9.668045043945312,-0.18275944888591766,-2.8101844787597656
1413393213365760500,-0.01092231273651123,0.022032732143998146,0.08535666763782501,9.225154876708984,-0.38799184560775757,-2.6377041339874268
1413393213370760500,-0.00461704283952713,0.01857389323413372,0.07832084596157074,9.33958625793457,-0.20859575271606445,-2.6703245639801025
1413393213375760500,0.00861290842294693,0.02338181622326374,0.07970380038022995,9.503228187561035,-0.10075778514146805,-2.637838840484619
1413393213380760500,0.00794636458158493,0.02751024253666401,0.07917432487010956,9.830010414123535,-0.052174896001815796,-2.8845486640930176
1413393213385760500,0.0036843791604042053,0.04367790371179581,0.07545975595712662,9.462610244750977,0.037491220980882645,-2.639270782470703
1413393213390760500,-0.005309589207172394,0.02980067767202854,0.08370456844568253,8.907482147216797,0.20946821570396423,-2.5073912143707275
1413393213395760500,-0.010892465710639954,0.010708408430218697,0.09082315862178802,9.275444984436035,-0.05181843414902687,-2.5568037033081055
1413393213400760500,-0.01714012399315834,0.022572210058569908,0.08588636666536331,9.6676607131958,-0.20754319429397583,-2.76914119720459
1413393213405760500,-0.010910950601100922,0.028269706293940544,0.08459341526031494,9.381284713745117,-0.28161895275115967,-2.646588087081909
1413393213410760500,-0.0018545910716056824,0.017890432849526405,0.08183325827121735,9.421541213989258,-0.3068964183330536,-2.5891551971435547
1413393213415760500,0.011329151690006256,0.026266971603035927,0.079712875187397,9.437511444091797,-0.19927018880844116,-2.5311977863311768
1413393213420760500,0.007943138480186462,0.01916642300784588,0.08261344581842422,9.528169631958008,-0.019089004024863243,-2.752635955810547
1413393213425760500,0.005850456655025482,0.03792954981327057,0.07336920499801636,9.446955680847168,0.10309771448373795,-2.8273675441741943
1413393213430760500,-0.0060041919350624084,0.028378019109368324,0.08440206944942474,8.981328964233398,0.16825589537620544,-2.540464162826538
1413393213435760500,-0.007453210651874542,0.012949636206030846,0.09715753048658371,9.323657035827637,-0.027725590392947197,-2.622102737426758
1413393213440760500,-0.01225309818983078,0.02119726873934269,0.094235360622406,9.748969078063965,-0.17523400485515594,-2.753134250640869
1413393213445760500,-0.010197974741458893,0.028202364221215248,0.09084004163742065,9.283856391906738,-0.2812407910823822,-2.6625781059265137
1413393213450760500,0.0030570849776268005,0.013661229982972145,0.0936870202422142,9.15259075164795,-0.3227379620075226,-2.5562896728515625
1413393213455760500,0.007863707840442657,0.017868774011731148,0.08099017292261124,9.421211242675781,-0.15051615238189697,-2.6129610538482666
1413393213460760500,0.009309925138950348,0.01984856091439724,0.08257955312728882,9.584660530090332,0.03805804252624512,-2.867565631866455
1413393213465760500,0.00028098374605178833,0.034433506429195404,0.07487104833126068,9.585843086242676,0.0868348628282547,-2.705275058746338
1413393213470760500,-0.006002120673656464,0.036746636033058167,0.07324764132499695,9.389714241027832,0.16849349439144135,-2.6799302101135254
1413393213475760500,-0.010875724256038666,0.03332917392253876,0.08389310538768768,9.09498119354248,0.14351657032966614,-2.4501519203186035
1413393213480760500,-0.015086449682712555,0.020484400913119316,0.09221450984477997,9.699485778808594,-0.17544089257717133,-2.77767276763916
1413393213485760500,-0.009504139423370361,0.04218821972608566,0.08239036798477173,9.617959022521973,-0.36308276653289795,-2.6468324661254883
1413393213490760500,0.0009037777781486511,0.021342987194657326,0.08469504863023758,9.168540954589844,-0.33882713317871094,-2.5233685970306396
1413393213495760500,0.009295150637626648,0.01776864565908909,0.0796421617269516,9.38082218170166,-0.10989248752593994,-2.7691142559051514
1413393213500760500,0.008615106344223022,0.016389111056923866,0.07826776802539825,9.324150085449219,-0.01125763263553381,-2.588550567626953
1413393213505760500,-0.0011348947882652283,0.02390662021934986,0.07503067702054977,9.642549514770508,0.10346607863903046,-2.9012906551361084
1413393213510760500,-0.00600259006023407,0.04083386808633804,0.07256525754928589,9.389472961425781,0.193060502409935,-2.647282600402832
1413393213515760500,-0.012288235127925873,0.02491016499698162,0.08167329430580139,9.242227554321289,0.08631491661071777,-2.6788101196289062
1413393213520760500,-0.014345206320285797,0.02053065411746502,0.08815398812294006,9.381070137023926,-0.10120763629674911,-2.614095449447632
1413393213525760500,-0.012270189821720123,0.026082811877131462,0.09356611967086792,9.675413131713867,-0.4204314947128296,-2.8672127723693848
1413393213530760500,-0.0053636059165000916,0.039473146200180054,0.08318813890218735,9.176410675048828,-0.3958647847175598,-2.4988160133361816
1413393213535760500,0.01206042617559433,0.0011170320212841034,0.09575413167476654,9.184931755065918,-0.21557945013046265,-2.588435173034668
1413393213540760500,0.014880247414112091,0.025459328666329384,0.08381234109401703,9.462542533874512,-0.03551067039370537,-2.662625789642334
1413393213545760500,0.0016993582248687744,0.018433505669236183,0.07967217266559601,9.348895072937012,0.1767827421426773,-2.6632437705993652
1413393213550760500,-0.009477175772190094,0.030856678262352943,0.07141256332397461,9.740756034851074,0.11947506666183472,-2.984069585800171
1413393213555760500,-0.012329377233982086,0.03335149586200714,0.07886136323213577,9.234108924865723,0.061965569853782654,-2.547973394393921
1413393213560760500,-0.014389142394065857,0.02687978185713291,0.08810287714004517,9.454080581665039,-0.03557499870657921,-2.7856380939483643
1413393213565760500,-0.013591371476650238,0.03028765134513378,0.08601419627666473,9.44663143157959,-0.2325243055820465,-2.5483436584472656
1413393213570760500,-0.008098118007183075,0.031790487468242645,0.08101236075162888,9.5281400680542,-0.43702226877212524,-2.776506185531616
1413393213575760500,0.011266283690929413,0.027721626684069633,0.08878305554389954,9.03744125366211,-0.30549749732017517,-2.4335052967071533
1413393213580760500,0.01972399652004242,0.009336518123745918,0.088058702647686,9.48713207244873,0.021444490179419518,-2.7777411937713623
1413393213585760500,0.007995538413524628,0.030226605013012886,0.08103324472904205,9.438383102416992,0.08686918020248413,-2.6471166610717773
1413393213590760500,-0.003153182566165924,0.01909647323191166,0.07628117501735687,9.593753814697266,0.09524349123239517,-2.9580514430999756
1413393213595760500,-0.008818589150905609,0.02959717996418476,0.08447708189487457,9.349011421203613,0.18437010049819946,-2.6640589237213135
1413393213600760500,-0.01788712665438652,0.017162209376692772,0.0866529643535614,9.462789535522461,0.004554645624011755,-2.8093783855438232
1413393213605760500,-0.017108254134655,0.03721766173839569,0.09021809697151184,9.625563621520996,-0.16625067591667175,-2.753448009490967
1413393213610760500,-0.009455569088459015,0.02971581555902958,0.08798089623451233,9.2504301071167,-0.3220575153827667,-2.6127569675445557
1413393213615760500,0.0022490620613098145,0.029762761667370796,0.08659376949071884,9.136116027832031,-0.2896612882614136,-2.5157322883605957
1413393213620760500,0.012045428156852722,0.006706645712256432,0.082560695707798,9.35604476928711,-0.27319806814193726,-2.5313618183135986
1413393213625760500,0.012103155255317688,0.02668188326060772,0.07762421667575836,9.804941177368164,0.07896734774112701,-2.8769280910491943
1413393213630760500,0.00028914958238601685,0.026073629036545753,0.0761919617652893,9.201881408691406,0.1114090234041214,-2.6304261684417725
1413393213635760500,-0.008744113147258759,0.01566321589052677,0.07688984274864197,9.40671157836914,0.1190752312541008,-2.8025875091552734
1413393213640760500,-0.010872505605220795,0.029810896143317223,0.07963062822818756,9.266629219055176,-0.0853249654173851,-2.5225753784179688
1413393213645760500,-0.015108175575733185,0.027501633390784264,0.08669662475585938,9.601271629333496,-0.03613780066370964,-2.9411630630493164
1413393213650760500,-0.012958914041519165,0.030343493446707726,0.08184283971786499,9.283007621765137,-0.3135163187980652,-2.499446392059326
1413393213655760500,-0.0032386407256126404,0.031204281374812126,0.08594314754009247,9.332093238830566,-0.2893793284893036,-2.6948392391204834
1413393213660760500,0.009895391762256622,0.024895766749978065,0.08527620136737823,9.135290145874023,-0.2570120096206665,-2.392859935760498
1413393213665760500,0.010686837136745453,0.015579627826809883,0.08249808102846146,9.666821479797363,-0.0355350561439991,-2.9246726036071777
1413393213670760500,0.005884453654289246,0.03305644541978836,0.08107820153236389,9.349015235900879,0.07063019275665283,-2.517052412033081
1413393213675760500,-0.003201209008693695,0.014330590143799782,0.07897062599658966,9.381260871887207,0.06195841357111931,-2.777230739593506
1413393213680760500,-0.009506665170192719,0.03378487378358841,0.07823362946510315,9.454487800598145,0.0372992642223835,-2.663278818130493
1413393213685760500,-0.011530041694641113,0.015671661123633385,0.08465560525655746,9.49561595916748,-0.0771753191947937,-3.0301365852355957
1413393213690760500,-0.008802138268947601,0.038729168474674225,0.08876049518585205,9.601778030395508,-0.18345987796783447,-2.6072587966918945
1413393213695760500,-0.007422022521495819,0.026956481859087944,0.0831533819437027,9.4376859664917,-0.2643338739871979,-2.7109124660491943
1413393213700760500,0.004385434091091156,0.03530098497867584,0.08392380177974701,9.290521621704102,-0.24023805558681488,-2.5074031352996826
1413393213705760500,0.009956158697605133,0.007296925410628319,0.08801470696926117,9.381143569946289,-0.07716816663742065,-2.6625077724456787
1413393213710760500,0.007895901799201965,0.030890153720974922,0.08798092603683472,9.537103652954102,0.12824629247188568,-2.7058322429656982
1413393213715760500,-0.00524505227804184,0.015003284439444542,0.08456398546695709,9.209952354431152,0.03777167573571205,-2.5075910091400146
1413393213720760500,-0.008785024285316467,0.024663085117936134,0.08104939758777618,9.593342781066895,-0.028577538207173347,-2.884390354156494
1413393213725760500,-0.006043598055839539,0.0242000725120306,0.08663524687290192,9.234149932861328,-0.11823821812868118,-2.506500244140625
1413393213730760500,-0.008100025355815887,0.02123616449534893,0.08465583622455597,9.454883575439453,-0.05231333151459694,-2.86751651763916
1413393213735760500,-0.005234546959400177,0.02686205692589283,0.07826808094978333,9.258596420288086,-0.1585375815629959,-2.5723578929901123
1413393213740760500,-0.0011936500668525696,0.027697695419192314,0.07620890438556671,9.551982879638672,-0.2160312682390213,-2.817564010620117
1413393213745760500,0.010588355362415314,0.03037663735449314,0.0817929059267044,9.102659225463867,-0.0679273009300232,-2.5239410400390625
1413393213750760500,0.005837738513946533,0.017023170366883278,0.08664234727621078,9.545075416564941,0.08675520122051239,-2.8191773891448975
1413393213755760500,-0.0024637505412101746,0.027492808178067207,0.08450479805469513,9.251090049743652,0.1441296935081482,-2.4922165870666504
1413393213760760500,-0.010863639414310455,0.01639421470463276,0.07966925948858261,9.51977252960205,-0.12628768384456635,-2.768787145614624
1413393213765760500,-0.006080687046051025,0.031700193881988525,0.08245566487312317,9.29916000366211,-0.19163435697555542,-2.4995036125183105
1413393213770760500,-0.00531015545129776,0.020000645890831947,0.08255739510059357,9.438254356384277,-0.18355253338813782,-2.768073320388794
1413393213775760500,-0.005288966000080109,0.03174993395805359,0.07695814222097397,9.462656021118164,-0.09272485226392746,-2.6146621704101562
1413393213780760500,-0.002513684332370758,0.020709602162241936,0.0762467011809349,9.340084075927734,-0.1749504953622818,-2.6452527046203613
1413393213785760500,0.007115110754966736,0.03453163802623749,0.07552090287208557,9.331706047058105,-0.19110247492790222,-2.6629133224487305
1413393213790760500,0.0044011324644088745,0.01918383501470089,0.08381333202123642,9.23412036895752,0.07107829302549362,-2.75234055519104
1413393213795760500,-0.005252830684185028,0.02815788798034191,0.08662083745002747,9.479697227478027,0.20984482765197754,-2.72986102104187
1413393213800760500,-0.007358543574810028,0.025494782254099846,0.08730746805667877,9.332493782043457,-0.13418947160243988,-2.572439193725586
1413393213805760500,-0.01304972916841507,0.02401900850236416,0.08246681839227676,9.732239723205566,-0.20036214590072632,-2.7784082889556885
1413393213810760500,-0.004651553928852081,0.022009553387761116,0.08739902824163437,9.315227508544922,-0.15075813233852386,-2.58876895904541
1413393213815760500,0.0003010109066963196,0.02335095964372158,0.08742466568946838,9.536166191101074,-0.2077917456626892,-2.7612764835357666
1413393213820760500,0.0037346258759498596,0.026914315298199654,0.07903937250375748,9.470751762390137,-0.1913139671087265,-2.5564637184143066
1413393213825760500,0.0037178099155426025,0.02902423031628132,0.07690346986055374,9.609376907348633,-0.10152967274188995,-2.809910535812378
1413393213830760500,0.003686748445034027,0.03529531508684158,0.07751582562923431,9.2583589553833,0.05389689654111862,-2.52439022064209
1413393213835760500,-0.008125729858875275,0.019180292263627052,0.08035113662481308,9.349358558654785,0.11149941384792328,-2.581577777862549
1413393213840760500,-0.004612430930137634,0.029567768797278404,0.08599352091550827,9.454926490783691,0.005162282381206751,-2.6389589309692383
1413393213845760500,-0.008760489523410797,0.02340620942413807,0.08172979950904846,9.364662170410156,-0.1588296890258789,-2.6949963569641113
1413393213850760500,-0.00677209347486496,0.032421454787254333,0.08593380451202393,9.44642162322998,-0.13382136821746826,-2.737123966217041
1413393213855760500,-0.003909207880496979,0.01718548871576786,0.08257292211055756,9.315653800964355,-0.2574097514152527,-2.6700336933135986
1413393213860760500,-0.0018690451979637146,0.01915705017745495,0.0741448700428009,9.60106372833252,-0.20761200785636902,-2.8592069149017334
1413393213865760500,0.00790596753358841,0.024764863774180412,0.07558172941207886,9.372537612915039,-0.084349624812603,-2.6786181926727295
1413393213870760500,0.010745003819465637,0.02538181282579899,0.08108387142419815,9.332393646240234,0.1435776948928833,-2.6798627376556396
1413393213875760500,-0.0017758533358573914,0.022021794691681862,0.08096529543399811,9.364716529846191,0.1600547730922699,-2.598226547241211
1413393213880760500,-0.01160220056772232,0.0163325946778059,0.08527065813541412,9.422102928161621,0.05390149727463722,-2.7453677654266357
1413393213885760500,-0.012316934764385223,0.021231243386864662,0.09080467373132706,9.299844741821289,-0.1747175008058548,-2.5813710689544678
1413393213890760500,-0.008127130568027496,0.015644116327166557,0.09144550561904907,9.29183578491211,-0.19113875925540924,-2.662566900253296
1413393213895760500,-0.0024882182478904724,0.023472892120480537,0.08605027198791504,9.42954158782959,-0.32227155566215515,-2.6702306270599365
1413393213900760500,0.0030652955174446106,0.014416923746466637,0.08668655157089233,9.543965339660645,-0.27390679717063904,-2.6376407146453857
1413393213905760500,0.01129930466413498,0.023389006033539772,0.07347247749567032,9.772591590881348,-0.264564573764801,-2.7694318294525146
1413393213910760500,0.011366359889507294,0.03456425666809082,0.07345352321863174,9.291296005249023,0.18543671071529388,-2.5570952892303467
1413393213915760500,0.004520893096923828,0.01847236417233944,0.08036044239997864,9.421834945678711,0.15995073318481445,-2.835571765899658
1413393213920760500,-0.015003155916929245,0.023364340886473656,0.08443641662597656,9.446905136108398,0.10231177508831024,-2.622936248779297
1413393213925760500,-0.017209243029356003,0.023354122415184975,0.09223486483097076,9.340810775756836,-0.13362334668636322,-2.5647850036621094
1413393213930760500,-0.017894238233566284,0.028256798163056374,0.08733509480953217,9.242353439331055,-0.28938642144203186,-2.6706323623657227
1413393213935760500,-0.0032786354422569275,0.01653279922902584,0.08803117275238037,9.332042694091797,-0.4452718198299408,-2.6940839290618896
1413393213940760500,0.011459112167358398,0.010893240571022034,0.08891251683235168,9.380823135375977,-0.32236865162849426,-2.621347427368164
1413393213945760500,0.01834815740585327,0.013529712334275246,0.0783197283744812,9.756547927856445,-0.07682587206363678,-2.810842990875244
1413393213950760500,0.012794196605682373,0.03370467573404312,0.0691395103931427,9.486934661865234,0.2749248147010803,-2.7945261001586914
1413393213955760500,-0.0010944083333015442,0.010143635794520378,0.07891744375228882,9.095898628234863,0.44638684391975403,-2.5010223388671875
1413393213960760500,-0.018487565219402313,0.0031155385076999664,0.08026939630508423,9.68391227722168,0.26529499888420105,-2.550910711288452
1413393213965760500,-0.03105589747428894,0.01208333857357502,0.074019655585289,9.511960983276367,0.11926916241645813,-2.5739269256591797
1413393213970760500,-0.035257503390312195,0.003023587167263031,0.07486572861671448,9.503326416015625,-0.29006919264793396,-2.582204580307007
1413393213975760500,-0.02207234501838684,-0.005856076255440712,0.06295505166053772,9.486849784851074,-0.6263412237167358,-2.5565481185913086
1413393213980760500,0.025975026190280914,0.01396305300295353,0.061807114630937576,9.713977813720703,-1.0021357536315918,-2.555535078048706
1413393213985760500,0.0726848915219307,0.013771338388323784,0.06536733359098434,9.62447738647461,-0.6083755493164062,-2.751011371612549
1413393213990760500,0.08609519153833389,0.037345290184020996,0.08165062218904495,9.382018089294434,0.3327007293701172,-2.8262691497802734
1413393213995760500,0.03644520789384842,0.04209349304437637,0.1050429567694664,9.250568389892578,1.576475977897644,-2.9721248149871826
1413393214000760500,-0.052132606506347656,0.050180546939373016,0.1335395723581314,9.331317901611328,1.7725651264190674,-3.0079128742218018
1413393214005760500,-0.1292220652103424,0.04890729486942291,0.12933804094791412,8.641468048095703,0.46250489354133606,-2.4293301105499268
1413393214010760500,-0.12235765904188156,0.019981393590569496,0.12017014622688293,8.674068450927734,-1.320398211479187,-2.3336422443389893
1413393214015760500,-0.035509705543518066,-0.002749582752585411,0.10713700205087662,9.019250869750977,-2.4984874725341797,-2.4472286701202393
1413393214020760500,0.05950313061475754,-0.026048753410577774,0.07073885202407837,9.540193557739258,-1.6937541961669922,-2.8796603679656982
1413393214025760500,0.12299839407205582,0.01075681485235691,0.04368467256426811,10.066319465637207,-0.06824535876512527,-2.941948890686035
1413393214030760500,0.08418486267328262,0.04699967801570892,0.030579809099435806,9.21059513092041,1.2400702238082886,-2.5848798751831055
1413393214035760500,0.0015134736895561218,0.03861801326274872,0.040658995509147644,9.396926879882812,1.8196567296981812,-2.745239019393921
1413393214040760500,-0.06340237706899643,0.05254033952951431,0.0801239162683487,9.529563903808594,1.0767143964767456,-2.7897419929504395
1413393214045760500,-0.09366650879383087,0.050245121121406555,0.10114844143390656,9.537360191345215,0.17788857221603394,-2.902322292327881
1413393214050760500,-0.0749431774020195,0.0540357381105423,0.11225836724042892,9.683560371398926,-0.6904506683349609,-2.8602116107940674
1413393214055760500,-0.029688388109207153,0.06915756314992905,0.10359197854995728,9.248734474182129,-1.4198707342147827,-2.3764214515686035
1413393214060760500,0.025135204195976257,0.0145570058375597,0.09243743866682053,9.09324836730957,-1.1989837884902954,-2.2295022010803223
1413393214065760500,0.07100249081850052,0.01489018090069294,0.08336950093507767,9.438605308532715,-0.3704553544521332,-2.449716091156006
1413393214070760500,0.06803896278142929,0.004155602306127548,0.08395735174417496,9.569865226745605,0.5035402774810791,-2.8116073608398438
1413393214075760500,0.02935095876455307,0.004086805507540703,0.08355387300252914,9.675437927246094,0.926922619342804,-3.0267269611358643
1413393214080760500,-0.016195371747016907,0.02817648835480213,0.07663840055465698,9.505489349365234,0.37072643637657166,-2.6883904933929443
1413393214085760500,-0.05258219689130783,0.0018546096980571747,0.071872279047966,9.32597541809082,0.01228708028793335,-2.409499168395996
1413393214090760500,-0.035284459590911865,0.005253709852695465,0.08854769170284271,9.111801147460938,-0.025373172014951706,-2.556312322616577
1413393214095760500,-0.029726050794124603,-0.004668740555644035,0.09572659432888031,9.429779052734375,-0.2711917459964752,-2.7777957916259766
1413393214100760500,-0.01802106201648712,0.010106444358825684,0.09443008899688721,9.747456550598145,-0.35379570722579956,-2.999708414077759
1413393214105760500,-0.002777598798274994,0.04229714721441269,0.06935395300388336,9.445564270019531,-0.5584621429443359,-2.532862901687622
1413393214110760500,0.015348382294178009,0.03555012494325638,0.05758272856473923,9.152379035949707,-0.5930500626564026,-2.375889778137207
1413393214115760500,0.03174620121717453,0.0272540133446455,0.07148664444684982,8.66264820098877,-0.10984918475151062,-2.537731647491455
1413393214120760500,0.03269956260919571,0.0003124680370092392,0.09434577822685242,9.397831916809082,0.1328229159116745,-2.88358473777771
1413393214125760500,0.01512569934129715,0.04496067017316818,0.08799225091934204,9.97671127319336,0.33642813563346863,-3.1637237071990967
1413393214130760500,-0.008215300738811493,0.0653335452079773,0.07884012162685394,8.973687171936035,0.28299859166145325,-2.572920322418213
1413393214135760500,-0.033968567848205566,0.023741336539387703,0.05946970358490944,9.308736801147461,-0.2399585098028183,-2.589177370071411
1413393214140760500,-0.03870560973882675,0.0298630241304636,0.07341252267360687,9.038162231445312,0.00764145702123642,-2.605739116668701
1413393214145760500,-0.024110443890094757,0.008252490311861038,0.09865613281726837,9.510770797729492,-0.2469724416732788,-2.8437328338623047
1413393214150760500,-0.01169111579656601,0.04322168231010437,0.09771452844142914,9.959675788879395,-0.48486581444740295,-3.03188419342041
1413393214155760500,0.008406959474086761,0.03883662819862366,0.08730530738830566,9.086812973022461,-0.49164503812789917,-2.472675323486328
1413393214160760500,0.02519454061985016,0.007639670744538307,0.07854894548654556,9.552505493164062,-0.6491876244544983,-2.6536834239959717
1413393214165760500,0.035192348062992096,0.026916636154055595,0.07070360332727432,9.487662315368652,-0.028275253251194954,-2.7195587158203125
1413393214170760500,0.03336908668279648,0.013294441625475883,0.1061449944972992,9.202666282653809,0.46813106536865234,-2.6564743518829346
1413393214175760500,0.013132922351360321,0.027484314516186714,0.12142208963632584,9.984854698181152,0.40906164050102234,-3.091320276260376
1413393214180760500,-0.0163918174803257,0.040141940116882324,0.10288938879966736,9.071941375732422,0.2740502953529358,-2.474987506866455
1413393214185760500,-0.02566782385110855,0.01644020341336727,0.09018594026565552,9.447711944580078,-0.20648545026779175,-2.4347217082977295
1413393214190760500,-0.029154859483242035,0.026126643642783165,0.06853802502155304,9.577618598937988,-0.2226453274488449,-2.5737364292144775
1413393214195760500,-0.0180259570479393,0.009298205375671387,0.08020992577075958,8.898636817932129,0.031474653631448746,-2.4338040351867676
1413393214200760500,0.00016485154628753662,0.014222191646695137,0.0987173318862915,9.567319869995117,-0.14230769872665405,-2.786548137664795
1413393214205760500,0.0015691891312599182,0.031008800491690636,0.07400451600551605,9.365480422973633,-0.315327525138855,-2.408341407775879
1413393214210760500,0.011411629617214203,0.018046652898192406,0.0651659443974495,9.3812837600708,-0.29078465700149536,-2.6614692211151123
1413393214215760500,0.019267193973064423,0.020898861810564995,0.04941023886203766,9.380871772766113,-0.26031792163848877,-2.548002243041992
1413393214220760500,0.01716608554124832,0.0331224650144577,0.05989410728216171,9.397534370422363,0.23264719545841217,-2.6386218070983887
1413393214225760500,0.008847460150718689,0.029410192742943764,0.09486471116542816,9.437023162841797,0.6758737564086914,-2.8948397636413574
1413393214230760500,-0.017861545085906982,0.03928626328706741,0.09630885720252991,9.505152702331543,0.31594109535217285,-2.803464889526367
1413393214235760500,-0.04037158191204071,0.04382467269897461,0.07262308895587921,9.496068954467773,-0.23757575452327728,-2.843163013458252
1413393214240760500,-0.04030396044254303,0.031210916116833687,0.06411998718976974,9.078214645385742,-0.4350973665714264,-2.506713390350342
1413393214245760500,-0.025581296533346176,0.02117561362683773,0.058901671320199966,9.510920524597168,-0.5836582183837891,-2.7111976146698
1413393214250760500,0.0009438171982765198,0.03246293216943741,0.07399269938468933,9.322455406188965,-0.2644653916358948,-2.678022861480713
1413393214255760500,0.026072151958942413,0.015626942738890648,0.11326315999031067,9.12073040008545,-0.2010151594877243,-2.6617238521575928
1413393214260760500,0.019147448241710663,0.022683212533593178,0.09626145660877228,9.569506645202637,-0.25739923119544983,-2.8915627002716064
1413393214265760500,0.005182154476642609,0.02708357758820057,0.06792977452278137,9.494915008544922,-0.24108219146728516,-2.6865592002868652
1413393214270760500,0.00872533768415451,0.006520545110106468,0.07854054123163223,9.209754943847656,-0.04412258043885231,-2.6380832195281982
1413393214275760500,-0.004558771848678589,0.02045298181474209,0.06675214320421219,9.266736030578613,0.06322530657052994,-2.695263147354126
1413393214280760500,-0.010158605873584747,0.0310503039509058,0.09567601978778839,9.528499603271484,0.14533963799476624,-2.8760483264923096
1413393214285760500,-0.011579081416130066,0.02818412147462368,0.12591540813446045,9.373008728027344,0.07240848988294601,-2.7048821449279785
1413393214290760500,-0.020882397890090942,0.035974256694316864,0.10937445610761642,9.373785018920898,-0.21532206237316132,-2.581713914871216
1413393214295760500,-0.02353864535689354,0.029078470543026924,0.0722280889749527,9.373028755187988,-0.43644794821739197,-2.507075548171997
1413393214300760500,-0.0024699270725250244,0.022713443264365196,0.06722225248813629,9.264957427978516,-0.4701783359050751,-2.506304979324341
1413393214305760500,0.012816257774829865,0.014989664778113365,0.06672021746635437,9.462265968322754,-0.20120860636234283,-2.8178956508636475
1413393214310760500,0.024735555052757263,0.02833125926554203,0.0926428884267807,9.691861152648926,0.03680414333939552,-2.9411964416503906
1413393214315760500,0.02634948492050171,0.04835710674524307,0.11269579827785492,9.27531909942627,0.45373958349227905,-2.8522493839263916
1413393214320760500,0.003103308379650116,0.03244888037443161,0.09451915323734283,9.023346900939941,0.32260823249816895,-2.4347944259643555
1413393214325760500,-0.017907340079545975,0.006617927923798561,0.06848271191120148,9.692070007324219,0.07098979502916336,-2.712587594985962
1413393214330760500,-0.022754035890102386,0.028096171095967293,0.05785217881202698,9.584226608276367,-0.018326280638575554,-2.6801373958587646
1413393214335760500,-0.02846144139766693,0.01896754838526249,0.06754366308450699,9.119100570678711,-0.002525320742279291,-2.5823123455047607
1413393214340760500,-0.01863834261894226,0.012114649638533592,0.09422995895147324,9.594220161437988,-0.11653735488653183,-2.786879777908325
1413393214345760500,-0.0011188089847564697,0.045925602316856384,0.10723742842674255,9.699457168579102,-0.20827510952949524,-2.68701171875
1413393214350760500,0.009898073971271515,0.04445236921310425,0.08988699316978455,9.13571834564209,-0.22614960372447968,-2.3681373596191406
1413393214355760500,0.012110576033592224,0.00932389311492443,0.05792449414730072,9.56116771697998,-0.1756909340620041,-2.6462531089782715
1413393214360760500,0.0038519129157066345,0.01792542077600956,0.03965488076210022,9.608479499816895,-0.1507829874753952,-2.718867540359497
1413393214365760500,0.0009590908885002136,0.025470638647675514,0.055304963141679764,9.298274040222168,-0.0048721181228756905,-2.7447304725646973
1413393214370760500,-0.005969323217868805,0.01125490851700306,0.08515036851167679,9.34998607635498,0.12781944870948792,-2.8609158992767334
1413393214375760500,-0.0031659752130508423,0.049403443932533264,0.10511332005262375,9.823046684265137,-0.09246616065502167,-2.883798837661743
1413393214380760500,-0.0018654689192771912,0.04880049079656601,0.09827414155006409,8.947032928466797,-0.08349001407623291,-2.4737424850463867
1413393214385760500,-0.006164573132991791,0.012005755677819252,0.09032520651817322,8.94110107421875,-0.025938313454389572,-2.417416572570801
1413393214390760500,-0.01726088672876358,0.006515964865684509,0.06327922642230988,9.561380386352539,-0.32197582721710205,-2.6373379230499268
1413393214395760500,-0.014479704201221466,0.015645591542124748,0.06593997776508331,9.502118110656738,-0.28167760372161865,-2.8673295974731445
1413393214400760500,-0.0032171308994293213,0.026105957105755806,0.08592332899570465,9.184470176696777,-0.17510846257209778,-2.712993860244751
1413393214405760500,0.009450115263462067,0.024961216375231743,0.1100599467754364,9.741475105285645,-0.3307827413082123,-2.964825391769409
1413393214410760500,0.018535979092121124,0.0480906143784523,0.10327249020338058,9.323640823364258,-0.07690823078155518,-2.5792882442474365
1413393214415760500,0.0211794450879097,0.03238392621278763,0.09090006351470947,9.201611518859863,0.20911920070648193,-2.564521312713623
1413393214420760500,0.006477691233158112,0.012699225917458534,0.08181507885456085,9.19484806060791,0.15198303759098053,-2.483471632003784
1413393214425760500,-0.01650061458349228,0.010013354942202568,0.06513987481594086,9.75606632232666,-0.010251841507852077,-2.8849709033966064
1413393214430760500,-0.021358810365200043,0.030923085287213326,0.0768023282289505,9.68979549407959,0.06328744441270828,-2.9443423748016357
1413393214435760500,-0.020712576806545258,0.042958736419677734,0.09543048590421677,9.210660934448242,-0.05121532455086708,-2.58976149559021
1413393214440760500,-0.006047211587429047,0.02980451099574566,0.10198423266410828,9.439238548278809,-0.32147374749183655,-2.7597615718841553
1413393214445760500,0.009323373436927795,0.033325791358947754,0.09045347571372986,9.461840629577637,-0.27384689450263977,-2.6198887825012207
1413393214450760500,0.014116980135440826,0.03924683481454849,0.07841729372739792,9.201044082641602,0.07772556692361832,-2.490755081176758
1413393214455760500,0.003777332603931427,0.0021121855825185776,0.06636806577444077,9.145264625549316,0.012570454739034176,-2.6550753116607666
1413393214460760500,-0.005261711776256561,0.002483716234564781,0.05654284358024597,9.65066146850586,-0.07858262956142426,-2.811249017715454
1413393214465760500,-0.012270599603652954,0.03534819185733795,0.06972531974315643,9.616414070129395,-0.011555097997188568,-2.893143653869629
1413393214470760500,-0.007375471293926239,0.03241889923810959,0.09711682796478271,9.063458442687988,0.038452181965112686,-2.4829418659210205
1413393214475760500,-0.010100893676280975,0.023403720930218697,0.10027917474508286,9.54574966430664,-0.05989878624677658,-2.7193691730499268
1413393214480760500,-0.0012259483337402344,0.0375208705663681,0.09169960021972656,9.535296440124512,-0.08498570322990417,-2.6046791076660156
1413393214485760500,-0.002694249153137207,0.030865630134940147,0.08078525960445404,8.980690956115723,-0.04391725733876228,-2.3604161739349365
1413393214490760500,-0.005408935248851776,0.0035552028566598892,0.07022549211978912,9.545501708984375,-0.15872085094451904,-2.721623659133911
1413393214495760500,-0.010860837996006012,0.013861371204257011,0.06284228712320328,9.617057800292969,-0.28186196088790894,-2.769366502761841
1413393214500760500,-0.005327872931957245,0.03547637164592743,0.06679017841815948,9.6400728225708,-0.30568671226501465,-2.9574270248413086
1413393214505760500,0.005905814468860626,0.03376205265522003,0.09279870986938477,9.088038444519043,-0.11811109632253647,-2.636913776397705
1413393214510760500,0.01075870543718338,0.031192442402243614,0.10028515756130219,9.537919998168945,-0.15945294499397278,-2.7510581016540527
1413393214515760500,0.014226548373699188,0.03950439393520355,0.08976352214813232,9.437153816223145,0.04653472453355789,-2.6952054500579834
1413393214520760500,0.005074098706245422,0.02313963510096073,0.07953181117773056,9.120134353637695,0.08706982433795929,-2.4919774532318115
1413393214525760500,-0.01860492303967476,0.01546461321413517,0.06811899691820145,9.45547103881836,-0.05999765172600746,-2.787324905395508
1413393214530760500,-0.020667195320129395,0.009589368477463722,0.0765862762928009,9.404913902282715,-0.16510574519634247,-2.745105266571045
1413393214535760500,-0.01442147046327591,0.036069199442863464,0.09035633504390717,9.62523078918457,-0.15815991163253784,-2.8433127403259277
1413393214540760500,-0.008077375590801239,0.028903694823384285,0.10110369324684143,9.071617126464844,-0.23257976770401,-2.5791518688201904
1413393214545760500,0.011476002633571625,0.024773286655545235,0.10449478030204773,9.520700454711914,-0.34654492139816284,-2.735032320022583
1413393214550760500,0.022502638399600983,0.035294339060783386,0.09757010638713837,9.420722007751465,-0.06035338342189789,-2.6540379524230957
1413393214555760500,0.015501178801059723,0.02529768832027912,0.08375658839941025,9.14486312866211,0.12610086798667908,-2.4835093021392822
1413393214560760500,-0.0017223581671714783,0.012796888127923012,0.07091199606657028,9.439248085021973,0.06166985630989075,-2.72995662689209
1413393214565760500,-0.011513844132423401,0.011658607050776482,0.07992936670780182,9.560359001159668,0.005325253587216139,-2.8029205799102783
1413393214570760500,-0.017248615622520447,0.04374939203262329,0.08525973558425903,9.486396789550781,-0.06864022463560104,-2.679672956466675
1413393214575760500,-0.017842154949903488,0.020480776205658913,0.09071788191795349,9.194230079650879,-0.1260794848203659,-2.5884206295013428
1413393214580760500,0.0009370371699333191,0.03454703837633133,0.0920151099562645,9.716523170471191,-0.23172251880168915,-2.71151065826416
1413393214585760500,0.003595024347305298,0.04303853213787079,0.0773686021566391,9.379532814025879,-0.12535925209522247,-2.6458089351654053
1413393214590760500,0.00228910893201828,0.01688212715089321,0.06585238873958588,8.964694023132324,-0.02028237096965313,-2.450620651245117
1413393214595760500,-0.0031581148505210876,0.006613036617636681,0.06539804488420486,9.602639198303223,-0.0614924281835556,-2.6639492511749268
1413393214600760500,-0.00746048241853714,0.013782171532511711,0.06803369522094727,9.543611526489258,-0.06104163080453873,-2.687570095062256
1413393214605760500,-0.008759014308452606,0.031088033691048622,0.08468212187290192,9.535449028015137,-0.19973044097423553,-2.883889675140381
1413393214610760500,-0.00658918172121048,0.021206902340054512,0.08298653364181519,9.276000022888184,-0.1017402857542038,-2.6704554557800293
1413393214615760500,0.00022529810667037964,0.03607989847660065,0.09120369702577591,9.683476448059082,-0.13407619297504425,-2.727851152420044
1413393214620760500,0.006412111222743988,0.03592788428068161,0.0929037481546402,9.43708610534668,-0.002722682198509574,-2.7039172649383545
1413393214625760500,0.003004707396030426,0.03433232754468918,0.08324676752090454,9.112171173095703,-0.02749968133866787,-2.499253749847412
1413393214630760500,-0.005326397716999054,0.0143959429115057,0.07429829984903336,9.357306480407715,-0.13422554731369019,-2.647264003753662
1413393214635760500,-0.007449321448802948,0.004667464643716812,0.08549168705940247,9.568020820617676,-0.19929584860801697,-2.712251901626587
1413393214640760500,-0.006038576364517212,0.035988904535770416,0.080340176820755,9.649758338928223,-0.2732417583465576,-2.8345882892608643
1413393214645760500,-0.002497740089893341,0.027486400678753853,0.0858251303434372,9.079697608947754,-0.18317650258541107,-2.653524160385132
1413393214650760500,0.00587821751832962,0.019223084673285484,0.08934805542230606,9.471179008483887,-0.0928410217165947,-2.858747959136963
1413393214655760500,0.010705150663852692,0.03252079337835312,0.09065818786621094,9.584490776062012,-0.003536660922691226,-2.6462106704711914
1413393214660760500,0.004411347210407257,0.03574550896883011,0.08123109489679337,9.079216003417969,-0.020129038020968437,-2.4824140071868896
1413393214665760500,-0.0025064870715141296,0.01424151100218296,0.07842440903186798,9.113011360168457,0.029835306107997894,-2.516740560531616
1413393214670760500,-0.010217718780040741,0.013180950656533241,0.07683487236499786,9.57661247253418,-0.0436701737344265,-2.5981667041778564
1413393214675760500,-0.010935656726360321,0.02279294840991497,0.08814409375190735,9.616683006286621,-0.2080748975276947,-2.7617268562316895
1413393214680760500,-0.012972228229045868,0.0279985461384058,0.08309650421142578,9.38167667388916,-0.09333942830562592,-2.655055284500122
1413393214685760500,-0.0039544180035591125,0.03528264909982681,0.08647778630256653,9.512351036071777,-0.08439785242080688,-2.8178136348724365
1413393214690760500,0.0078749880194664,0.03752002865076065,0.09511242061853409,9.339350700378418,-0.12602844834327698,-2.6124868392944336
1413393214695760500,0.01207231730222702,0.03302451968193054,0.09015993773937225,9.266980171203613,-0.045137424021959305,-2.507051944732666
1413393214700760500,0.00103074312210083,0.022578923031687737,0.07685323059558868,9.252012252807617,0.08599313348531723,-2.5735864639282227
1413393214705760500,0.0002505108714103699,0.018601668998599052,0.08113358914852142,9.331737518310547,0.02129334770143032,-2.6472790241241455
1413393214710760500,-0.008831597864627838,0.011583073064684868,0.08869610726833344,9.58447265625,-0.10961034893989563,-2.8358685970306396
1413393214715760500,-0.013711266219615936,0.027457816526293755,0.07965904474258423,9.536848068237305,-0.08532945811748505,-2.6796727180480957
1413393214720760500,-0.018501337617635727,0.027464212849736214,0.07275379449129105,9.422229766845703,-0.07592273503541946,-2.8180065155029297
1413393214725760500,-0.001207686960697174,0.03178232163190842,0.08727587759494781,9.437797546386719,-0.14189355075359344,-2.6212949752807617
1413393214730760500,0.005766607820987701,0.03455319255590439,0.08950837701559067,9.453980445861816,-0.17499707639217377,-2.7273483276367188
1413393214735760500,-0.00042516738176345825,0.025395745411515236,0.07350604981184006,9.307975769042969,-0.05285890772938728,-2.524416446685791
1413393214740760500,-0.0017753466963768005,0.017826946452260017,0.0733843445777893,9.519898414611816,-0.052290916442871094,-2.688276767730713
1413393214745760500,0.002963416278362274,0.02562677673995495,0.07968916743993759,9.274412155151367,-0.19982565939426422,-2.572835922241211
1413393214750760500,-0.005325682461261749,0.0213168915361166,0.07628782838582993,9.38902473449707,-0.15844927728176117,-2.817845106124878
1413393214755760500,-0.013595573604106903,0.023327277973294258,0.07343035936355591,9.577467918395996,-0.01914084516465664,-2.7861952781677246
1413393214760760500,0.00025140494108200073,0.03449776768684387,0.09074962139129639,9.462833404541016,0.013354058377444744,-2.7031726837158203
1413393214765760500,0.003623686730861664,0.033800311386585236,0.09639332443475723,9.176985740661621,-0.10118240863084793,-2.539551258087158
1413393214770760500,-0.002518661320209503,0.0240254458039999,0.08877389132976532,9.251092910766602,-0.10950163006782532,-2.6458077430725098
1413393214775760500,-0.0045470669865608215,0.016476912423968315,0.08030456304550171,9.380996704101562,-0.0031095922458916903,-2.5984766483306885
1413393214780760500,0.004321075975894928,0.016425663605332375,0.09360527992248535,9.47053337097168,-0.11777007579803467,-2.6061980724334717
1413393214785760500,-0.0004791468381881714,0.021249519661068916,0.08605249226093292,9.250438690185547,-0.2158837467432022,-2.654201030731201
1413393214790760500,-0.005213618278503418,0.01713610626757145,0.07478929311037064,9.528156280517578,-0.0935540571808815,-2.752640724182129
1413393214795760500,-0.003194078803062439,0.030367081984877586,0.0810621902346611,9.552289009094238,0.029741846024990082,-2.7940456867218018
1413393214800760500,0.0022542253136634827,0.03582598268985748,0.10128039121627808,9.487743377685547,0.04604537412524223,-2.6386661529541016
1413393214805760500,-0.001104600727558136,0.035902395844459534,0.08661585301160812,9.316081047058105,-0.05268586054444313,-2.6217150688171387
1413393214810760500,-0.009442523121833801,0.027658389881253242,0.07611939311027527,9.258476257324219,-0.06057155504822731,-2.556546688079834
1413393214815760500,-0.0060774460434913635,0.018585795536637306,0.07898524403572083,9.429665565490723,-0.1415216475725174,-2.7205023765563965
1413393214820760500,-0.006781555712223053,0.023376477882266045,0.08116728067398071,9.381422996520996,-0.20761708915233612,-2.5976476669311523
1413393214825760500,-0.009500376880168915,0.016343073919415474,0.07358601689338684,9.519902229309082,-0.13433335721492767,-2.810330629348755
1413393214830760500,-0.008079685270786285,0.029672829434275627,0.07130219042301178,9.568208694458008,0.02149326354265213,-2.761425495147705
1413393214835760500,0.0002355724573135376,0.028209218755364418,0.08725233376026154,9.536249160766602,0.005025012884289026,-2.7118980884552
1413393214840760500,0.00374043732881546,0.02880525030195713,0.09086622297763824,9.414227485656738,-0.0283511895686388,-2.7121386528015137
1413393214845760500,-0.0038944706320762634,0.027574719861149788,0.07475817948579788,9.446520805358887,-0.02820282243192196,-2.6791560649871826
1413393214850760500,-0.005989767611026764,0.02133290283381939,0.08382311463356018,9.250226020812988,-0.027839569374918938,-2.499805450439453
1413393214855760500,0.002995513379573822,0.021341195330023766,0.09235090017318726,9.446146011352539,-0.26486101746559143,-2.6791813373565674
1413393214860760500,-0.0018799975514411926,0.01850534789264202,0.07896752655506134,9.226292610168457,-0.17540490627288818,-2.5400230884552
1413393214865760500,-0.00878927856683731,0.012229232117533684,0.06997260451316833,9.658562660217285,-0.06843592971563339,-2.8432021141052246
1413393214870760500,-0.0011292770504951477,0.02959565259516239,0.08177484571933746,9.454225540161133,0.030369197949767113,-2.7287633419036865
1413393214875760500,0.000870145857334137,0.030262531712651253,0.09006945043802261,9.39767074584961,0.005058088805526495,-2.719700813293457
1413393214880760500,-0.003912322223186493,0.03456639498472214,0.08250227570533752,9.307846069335938,-0.011907252483069897,-2.605531692504883
1413393214885760500,-0.012179337441921234,0.030466856434941292,0.07266631722450256,9.39742374420166,-0.0766712948679924,-2.6705121994018555
1413393214890760500,-0.0025726035237312317,0.0262878630310297,0.08457623422145844,9.37248420715332,-0.24821114540100098,-2.5730249881744385
1413393214895760500,0.0036480650305747986,0.02198542095720768,0.08404488861560822,9.380785942077637,-0.28139418363571167,-2.6543915271759033
1413393214900760500,-0.001095212996006012,0.012156421318650246,0.06921973824501038,9.519519805908203,-0.04432103410363197,-2.835373878479004
1413393214905760500,-0.007324211299419403,0.031714148819446564,0.07823726534843445,9.568707466125488,0.09540660679340363,-2.7370364665985107
1413393214910760500,-0.00469372421503067,0.029575681313872337,0.087392657995224,9.397833824157715,-0.10101202130317688,-2.68743634223938
1413393214915760500,-0.0025897398591041565,0.027505217120051384,0.09357980638742447,9.463150024414062,-0.04432366415858269,-2.719921827316284
1413393214920760500,-0.010157838463783264,0.03249902278184891,0.0845862329006195,9.454479217529297,0.021211715415120125,-2.662888765335083
1413393214925760500,-0.008032627403736115,0.02610820345580578,0.0921608954668045,9.299576759338379,-0.01957368105649948,-2.6143088340759277
1413393214930760500,0.002297826111316681,0.021351633593440056,0.08945620059967041,9.364723205566406,-0.4861329197883606,-2.564319372177124
1413393214935760500,0.00991152971982956,0.01508757658302784,0.08602091670036316,9.381077766418457,-0.27402475476264954,-2.539776086807251
1413393214940760500,0.0030807778239250183,0.011553144082427025,0.07411205768585205,9.61727523803711,0.029710596427321434,-2.7701408863067627
1413393214945760500,-0.00039289146661758423,0.028831714764237404,0.07760540395975113,9.48717212677002,0.04622017219662666,-2.720648765563965
1413393214950760500,-0.003955133259296417,0.0288719329982996,0.07900577038526535,9.348877906799316,0.04580164700746536,-2.7364308834075928
1413393214955760500,-0.006749890744686127,0.02969471551477909,0.08516433089971542,9.405863761901855,0.10247190296649933,-2.695992946624756
1413393214960760500,-0.017104219645261765,0.022009266540408134,0.07689116150140762,9.430161476135254,-0.052020832896232605,-2.6626853942871094
1413393214965760500,-0.006015561521053314,0.028986623510718346,0.0839298665523529,9.413506507873535,-0.2976044714450836,-2.5647802352905273
1413393214970760500,0.0036797896027565002,0.018566729500889778,0.08111602067947388,9.348007202148438,-0.37208446860313416,-2.5887904167175293
1413393214975760500,0.004381529986858368,0.01438547857105732,0.07414784282445908,9.405177116394043,-0.1592506617307663,-2.719968795776367
1413393214980760500,0.0003287568688392639,0.01220008172094822,0.07699631154537201,9.585013389587402,0.05492977797985077,-2.819183826446533
1413393214985760500,-0.00184621661901474,0.03298858553171158,0.08036729693412781,9.593689918518066,0.07002781331539154,-2.75386905670166
1413393214990760500,-0.005336873233318329,0.02959929220378399,0.08933202922344208,9.103728294372559,0.06194381043314934,-2.605160713195801
1413393214995760500,-0.006669722497463226,0.031113246455788612,0.0894642174243927,9.479361534118652,0.013541563414037228,-2.7282803058624268
1413393215000760500,-0.012223362922668457,0.024142185226082802,0.08728671073913574,9.479215621948242,-0.08513019979000092,-2.613776922225952
1413393215005760500,0.00016576796770095825,0.027574727311730385,0.08387643098831177,9.494897842407227,-0.38829854130744934,-2.6465373039245605
1413393215010760500,0.00785151869058609,0.01223890669643879,0.07418259978294373,9.15208625793457,-0.23252734541893005,-2.4828670024871826
1413393215015760500,0.009976387023925781,0.010242147371172905,0.061627231538295746,9.674427032470703,-0.19106881320476532,-2.7936580181121826
1413393215020760500,0.00936216115951538,0.01774720661342144,0.07347265630960464,9.51947021484375,0.1602676957845688,-2.5742266178131104
1413393215025760500,-0.008078813552856445,0.018935436382889748,0.07965430617332458,9.3411226272583,0.26631778478622437,-2.7784459590911865
1413393215030760500,-0.024765275418758392,0.02529236488044262,0.084353968501091,9.496193885803223,0.44601649045944214,-2.820568799972534
1413393215035760500,-0.042192116379737854,0.01922680251300335,0.08378136157989502,9.29970932006836,0.16920970380306244,-2.6550912857055664
1413393215040760500,-0.049177877604961395,0.023992886766791344,0.0809749960899353,9.33240032196045,-0.03622870519757271,-2.5497162342071533
1413393215045760500,-0.04219985753297806,-0.005200203508138657,0.06794782727956772,9.340725898742676,-0.5855653285980225,-2.5066847801208496
1413393215050760500,-0.005325697362422943,0.004717951640486717,0.05839464068412781,9.681621551513672,-1.0925925970077515,-2.6779210567474365
1413393215055760500,0.042051561176776886,0.023677682504057884,0.0506390780210495,9.19016170501709,-0.7379019260406494,-2.4730758666992188
1413393215060760500,0.08179617673158646,0.013638311997056007,0.08674006164073944,9.504133224487305,0.004946739878505468,-2.842395782470703
1413393215065760500,0.07851820439100266,0.037386588752269745,0.09688101708889008,9.260347366333008,0.6751282811164856,-2.5005605220794678
1413393215070760500,0.014457397162914276,0.025998378172516823,0.08546163141727448,9.634407997131348,1.027200698852539,-2.838986873626709
1413393215075760500,-0.056737691164016724,0.046736299991607666,0.0891314148902893,9.381726264953613,0.8965825438499451,-2.8722898960113525
1413393215080760500,-0.09383821487426758,0.040805041790008545,0.10192345082759857,8.533814430236816,-0.06059660017490387,-2.4251515865325928
1413393215085760500,-0.06743007898330688,0.005390733480453491,0.12939170002937317,9.007955551147461,-1.1728301048278809,-2.619722366333008
1413393215090760500,0.0032129958271980286,0.01951131410896778,0.14138302206993103,9.372154235839844,-1.4438450336456299,-2.4229345321655273
1413393215095760500,0.05610070377588272,0.010138878598809242,0.11714434623718262,9.445094108581543,-0.9360255599021912,-2.677259922027588
1413393215100760500,0.059464745223522186,-0.01301136240363121,0.06549541652202606,9.577054977416992,0.012644345872104168,-2.7380049228668213
1413393215105760500,0.026734299957752228,0.03441936522722244,0.030867800116539,9.85478401184082,0.7072139978408813,-2.828937292098999
1413393215110760500,-0.016338683664798737,0.02748202346265316,0.029471350833773613,9.185763359069824,0.6186776757240295,-2.729869842529297
1413393215115760500,-0.03088390827178955,0.04076191782951355,0.06529228389263153,9.4888916015625,0.275584876537323,-2.672370195388794
1413393215120760500,-0.021134071052074432,0.05357518047094345,0.0951124057173729,9.422563552856445,0.05480915680527687,-2.6626830101013184
1413393215125760500,-0.031097136437892914,0.033981405198574066,0.086323082447052,9.494155883789062,-0.035366903990507126,-2.9253652095794678
1413393215130760500,-0.033473990857601166,0.06019812822341919,0.0766720324754715,9.10361099243164,-0.10865610837936401,-2.386051654815674
1413393215135760500,-0.01887774094939232,0.014291012659668922,0.08251617848873138,9.16185188293457,-0.47012218832969666,-2.5231716632843018
1413393215140760500,0.016049370169639587,0.03400842845439911,0.09793248772621155,9.64926528930664,-0.7075283527374268,-2.605048179626465
1413393215145760500,0.04427826404571533,0.015580819919705391,0.09466247260570526,9.290518760681152,-0.20038959383964539,-2.5877044200897217
1413393215150760500,0.036209024488925934,0.008428504690527916,0.08893544971942902,9.618660926818848,0.31424763798713684,-3.0246007442474365
1413393215155760500,0.005317963659763336,0.04354238510131836,0.07669484615325928,9.431102752685547,0.4768081605434418,-2.6800479888916016
1413393215160760500,-0.026992827653884888,-0.005954237654805183,0.07326145470142365,9.479448318481445,0.036494556814432144,-2.66333270072937
1413393215165760500,-0.019303124397993088,0.019975299015641212,0.0682976096868515,9.878530502319336,-0.23261894285678864,-2.6965365409851074
1413393215170760500,-0.0024812892079353333,0.037215568125247955,0.07728709280490875,9.143926620483398,0.0731368213891983,-2.499264717102051
1413393215175760500,-0.01011744886636734,0.00022560171782970428,0.08122764527797699,9.380435943603516,0.155656099319458,-2.9595513343811035
1413393215180760500,-0.03190668672323227,0.03598722070455551,0.0556584969162941,9.715728759765625,-0.19944433867931366,-2.8274528980255127
1413393215185760500,-0.02444203943014145,0.03953205794095993,0.05768869072198868,9.095032691955566,-0.5276321768760681,-2.3510184288024902
1413393215190760500,0.022399120032787323,-0.00024563074111938477,0.08947138488292694,9.127999305725098,-0.6248301863670349,-2.4733998775482178
1413393215195760500,0.04717645049095154,0.027623401954770088,0.09609121084213257,9.389018058776855,-0.40428364276885986,-2.635554552078247
1413393215200760500,0.03274843096733093,0.00466565228998661,0.099673330783844,9.062922477722168,0.41196247935295105,-2.7696738243103027
1413393215205760500,-0.005231820046901703,0.020343517884612083,0.08959134668111801,9.839338302612305,0.5822449922561646,-3.0025112628936768
1413393215210760500,-0.03838207572698593,0.06257703900337219,0.07009201496839523,9.651131629943848,-0.05327005684375763,-2.6631808280944824
1413393215215760500,-0.02623659372329712,0.02167457528412342,0.08831747621297836,9.02854061126709,-0.37843817472457886,-2.4735140800476074
1413393215220760500,-0.007132969796657562,0.029564427211880684,0.09481973946094513,9.389324188232422,-0.36966782808303833,-2.4500961303710938
1413393215225760500,-0.00381401926279068,0.01195506937801838,0.08825375884771347,9.275555610656738,0.03228089585900307,-2.8996143341064453
1413393215230760500,-0.01185782253742218,0.03153665363788605,0.07842202484607697,9.47812557220459,0.11271293461322784,-2.8447697162628174
1413393215235760500,-0.015515323728322983,0.04507160186767578,0.0645482987165451,9.584855079650879,-0.4123605787754059,-2.7202935218811035
1413393215240760500,0.008580602705478668,0.02306433580815792,0.08336243033409119,9.495311737060547,-0.4367891252040863,-2.7108817100524902
1413393215245760500,0.03830036520957947,0.039524562656879425,0.10010632127523422,9.128252029418945,-0.052927978336811066,-2.457050085067749
1413393215250760500,0.025819867849349976,0.0035003405064344406,0.09381717443466187,9.015357971191406,0.35411471128463745,-2.6142444610595703
1413393215255760500,-0.00041759759187698364,0.008476527407765388,0.09756540507078171,9.789368629455566,0.5913161635398865,-3.0830516815185547
1413393215260760500,-0.034262336790561676,0.037954412400722504,0.0743539035320282,9.886327743530273,-0.03630084544420242,-2.738223075866699
1413393215265760500,-0.03128964453935623,0.02758406288921833,0.07412700355052948,9.462486267089844,-0.3204978108406067,-2.631218671798706
1413393215270760500,-0.0030675604939460754,0.04309292882680893,0.08672530204057693,9.152803421020508,-0.20526598393917084,-2.4904041290283203
1413393215275760500,-0.0009807571768760681,0.008645743131637573,0.08788501471281052,8.915800094604492,-0.10110563039779663,-2.595142364501953
1413393215280760500,-0.01381748914718628,-0.0026142429560422897,0.07054045051336288,10.041386604309082,0.04439317435026169,-3.074237585067749
1413393215285760500,-0.01329224556684494,0.04549560695886612,0.06815100461244583,9.511103630065918,-0.25720638036727905,-2.4666237831115723
1413393215290760500,0.007842399179935455,0.03541725128889084,0.06861431896686554,9.454386711120605,-0.51881343126297,-2.7354047298431396
1413393215295760500,0.029845140874385834,0.02168438397347927,0.08445713669061661,8.875372886657715,-0.06133062392473221,-2.3758723735809326
1413393215300760500,0.022291213274002075,0.010796813294291496,0.09831851720809937,9.121545791625977,0.35606029629707336,-2.5976173877716064
1413393215305760500,-0.01512451097369194,0.015431912615895271,0.08012716472148895,9.894726753234863,0.3068654537200928,-3.09104061126709
1413393215310760500,-0.02873079478740692,0.035011716187000275,0.08680739253759384,9.380854606628418,-0.01947503723204136,-2.532097816467285
1413393215315760500,-0.01939709484577179,0.01585051231086254,0.09259826689958572,9.601487159729004,-0.4845427870750427,-2.9490559101104736
1413393215320760500,-0.0009363368153572083,0.032735273241996765,0.09134314209222794,9.103654861450195,-0.33690300583839417,-2.4568612575531006
1413393215325760500,0.006737746298313141,0.016859648749232292,0.09623949229717255,9.014954566955566,0.08678031712770462,-2.556138038635254
1413393215330760500,-0.009615443646907806,0.005125494673848152,0.07752720266580582,9.673971176147461,-0.14384035766124725,-2.974742889404297
1413393215335760500,-0.014045678079128265,0.031875431537628174,0.06293760985136032,9.436792373657227,-0.20763574540615082,-2.645749807357788
1413393215340760500,0.0009383633732795715,0.02482721395790577,0.07531241327524185,9.576702117919922,-0.3868512213230133,-2.9081737995147705
1413393215345760500,0.020163781940937042,0.038814105093479156,0.0852595865726471,9.43929672241211,-0.09326685220003128,-2.826249122619629
1413393215350760500,0.013821139931678772,0.04717118293046951,0.09177039563655853,8.835444450378418,0.27473875880241394,-2.4330692291259766
1413393215355760500,-0.00818229466676712,0.0038754399865865707,0.0790017619729042,9.722841262817383,-0.028178872540593147,-2.909116268157959
1413393215360760500,-0.016166839748620987,0.03087327815592289,0.06915464997291565,9.853479385375977,-0.018528973683714867,-2.753901243209839
1413393215365760500,-0.006911642849445343,0.027316270396113396,0.08828394114971161,9.4298734664917,0.03990665450692177,-2.7698960304260254
1413393215370760500,-0.007106028497219086,0.025435330346226692,0.09453624486923218,9.21097469329834,0.08743023127317429,-2.7870147228240967
1413393215375760500,-0.010639496147632599,0.010818036273121834,0.09740270674228668,9.02350902557373,0.07762553542852402,-2.4335949420928955
1413393215380760500,-0.019464343786239624,-0.0010943841189146042,0.07614204287528992,10.065017700195312,-0.43065735697746277,-2.941330909729004
1413393215385760500,-0.0035573095083236694,0.017582634463906288,0.0644613727927208,9.640917778015137,-0.36384913325309753,-2.7280099391937256
1413393215390760500,0.024739108979701996,0.017579389736056328,0.0978640541434288,9.259449005126953,0.19368083775043488,-2.7693729400634766
1413393215395760500,0.02917424589395523,0.04048409312963486,0.1027228832244873,8.802577018737793,-0.03687562420964241,-2.3508315086364746
1413393215400760500,-0.005048058927059174,-0.016371002420783043,0.08072439581155777,9.399105072021484,0.18339000642299652,-2.5577280521392822
1413393215405760500,-0.013957954943180084,0.010670030489563942,0.06005167216062546,9.88572883605957,0.04585348814725876,-2.7874293327331543
1413393215410760500,-0.012642256915569305,0.03028235025703907,0.0860450267791748,9.347691535949707,-0.010119171813130379,-2.761626958847046
1413393215415760500,-0.0143609419465065,0.02190559171140194,0.09863297641277313,8.900107383728027,0.024062102660536766,-2.4420924186706543
1413393215420760500,-0.024373158812522888,-0.02519838698208332,0.08114777505397797,9.121420860290527,-0.18403418362140656,-2.35878849029541
1413393215425760500,-0.02072405070066452,-0.0017425455152988434,0.05292963236570358,10.287186622619629,-0.5786401629447937,-2.9657981395721436
1413393215430760500,0.006065778434276581,0.03308647871017456,0.06852657347917557,9.451920509338379,-0.36257579922676086,-2.630026340484619
1413393215435760500,0.03286407142877579,0.027668597176671028,0.0898953527212143,9.421164512634277,-0.28117042779922485,-2.720137119293213
1413393215440760500,0.02154463529586792,0.024641478434205055,0.06518930196762085,8.899578094482422,-0.22510182857513428,-2.1302340030670166
1413393215445760500,0.007471732795238495,-0.008668366819620132,0.055067937821149826,9.929116249084473,0.3069877624511719,-3.0650429725646973
1413393215450760500,0.005789965391159058,0.04520066827535629,0.09402817487716675,9.357644081115723,0.5752801895141602,-2.789135217666626
1413393215455760500,-0.025042712688446045,0.026811351999640465,0.10671943426132202,8.71202278137207,0.25158995389938354,-2.5656371116638184
1413393215460760500,-0.048447005450725555,0.013170899823307991,0.07925890386104584,9.291280746459961,-0.4019438624382019,-2.6132965087890625
1413393215465760500,-0.030227921903133392,-0.011411895975470543,0.08808284997940063,9.414889335632324,-0.3635040819644928,-2.635963201522827
1413393215470760500,0.00843464583158493,0.025171982124447823,0.11361296474933624,9.765809059143066,-0.4619160294532776,-2.7702982425689697
1413393215475760500,0.020372681319713593,0.012235363945364952,0.1090935692191124,9.437877655029297,-0.4371989071369171,-2.8095619678497314
1413393215480760500,0.0038800910115242004,0.01804659329354763,0.04926005005836487,9.443674087524414,-0.27263131737709045,-2.751964807510376
1413393215485760500,0.026111818850040436,0.019910862669348717,0.09063016623258591,9.552251815795898,0.3894989788532257,-2.8601274490356445
1413393215490760500,0.021129891276359558,0.030739376321434975,0.10679695010185242,9.465715408325195,0.24997031688690186,-2.6397082805633545
1413393215495760500,-0.014213316142559052,0.04859781265258789,0.06992294639348984,9.724092483520508,-0.05316352844238281,-2.786038637161255
1413393215500760500,-0.02250746637582779,0.004748692736029625,0.06913845241069794,8.783576011657715,0.11162091046571732,-2.638624906539917
1413393215505760500,0.0006444826722145081,0.028062360361218452,0.10394132882356644,9.806140899658203,0.0058582681231200695,-2.623568296432495
1413393215510760500,-0.008978523313999176,0.0342542827129364,0.09432640671730042,9.53725814819336,-0.034735098481178284,-2.884305477142334
1413393215515760500,-0.03091052919626236,0.007323596626520157,0.04378214851021767,8.597332000732422,-0.25840815901756287,-2.3430001735687256
1413393215520760500,0.004448331892490387,-0.017586905509233475,0.07540491223335266,9.48703384399414,-0.2733578383922577,-2.6706840991973877
1413393215525760500,0.024312518537044525,0.010041827335953712,0.09772531688213348,9.943746566772461,-0.06960176676511765,-2.6626460552215576
1413393215530760500,0.0003506094217300415,0.038460396230220795,0.06960463523864746,9.739109992980957,-0.02028135024011135,-2.9988532066345215
1413393215535760500,-0.009046807885169983,-0.00032408908009529114,0.06910824775695801,8.672067642211914,0.0524522103369236,-2.3608129024505615
1413393215540760500,0.004978872835636139,0.01828746683895588,0.09337197244167328,9.913013458251953,-0.09457080066204071,-2.687471628189087
1413393215545760500,0.0007387623190879822,0.04844653606414795,0.10069678723812103,9.909502983093262,0.11160025000572205,-2.7703146934509277
1413393215550760500,-0.017653826624155045,0.03918428719043732,0.06728775799274445,8.931661605834961,-0.3046717643737793,-2.4007222652435303
1413393215555760500,0.00028467923402786255,0.008260654285550117,0.07744385302066803,9.048347473144531,-0.3704966604709625,-2.6054043769836426
1413393215560760500,0.020879201591014862,0.015210727229714394,0.09921172261238098,9.519776344299316,0.3657165467739105,-2.720273733139038
1413393215565760500,-0.01999584585428238,0.02378990314900875,0.06585509330034256,9.478251457214355,0.2510780990123749,-2.795656442642212
1413393215570760500,-0.03299317508935928,0.006345169618725777,0.053110405802726746,8.965840339660645,-0.37218090891838074,-2.4662845134735107
1413393215575760500,-0.0012640878558158875,-0.0007235538214445114,0.08665494620800018,9.06397819519043,-0.20096316933631897,-2.367333173751831
1413393215580760500,-0.006128482520580292,0.010328100994229317,0.08048491179943085,9.787355422973633,-0.036269158124923706,-2.8913872241973877
1413393215585760500,-0.023109737783670425,0.014686638489365578,0.06511661410331726,9.176566123962402,-0.22386249899864197,-2.6299102306365967
1413393215590760500,0.0024717673659324646,0.015784086659550667,0.0811658576130867,9.31740665435791,-0.5610204339027405,-2.670576572418213
1413393215595760500,0.024330362677574158,0.03775467723608017,0.09430830925703049,10.220597267150879,-0.02909901738166809,-2.9260988235473633
1413393215600760500,-0.0011264830827713013,0.0765189677476883,0.07566384226083755,9.75434684753418,0.19568096101284027,-2.9168553352355957
1413393215605760500,-0.009932421147823334,0.060324326157569885,0.06782218813896179,8.532358169555664,-0.25465482473373413,-2.1960694789886475
1413393215610760500,0.009114213287830353,0.00950031541287899,0.09271901100873947,9.57986831665039,0.036404091864824295,-2.8515625
1413393215615760500,-0.006951145827770233,0.05413521081209183,0.09519708156585693,9.372227668762207,0.3412540853023529,-2.663421392440796
1413393215620760500,-0.015546247363090515,0.0020471420139074326,0.09580495208501816,8.555659294128418,-0.21470056474208832,-2.572171688079834
1413393215625760500,0.010778598487377167,-0.0278933085501194,0.11705666780471802,9.793636322021484,-0.5539590716362,-2.852146625518799
1413393215630760500,0.014047086238861084,0.03470804542303085,0.11726196110248566,10.0016508102417,0.3312627077102661,-3.097113847732544
1413393215635760500,0.0018009617924690247,0.04921606928110123,0.10130549967288971,8.799200057983398,-0.10208878666162491,-2.538712739944458
1413393215640760500,0.004649125039577484,-0.0489521399140358,0.09701613336801529,9.12276554107666,-0.5117931365966797,-2.563350200653076
1413393215645760500,0.0028476640582084656,0.005072431638836861,0.07619412243366241,10.565052032470703,0.5115540623664856,-3.214021682739258
1413393215650760500,-0.011526264250278473,0.05542488396167755,0.07921162247657776,9.157144546508789,0.24972695112228394,-2.8110666275024414
1413393215655760500,-0.025155380368232727,-0.037083230912685394,0.0526699423789978,8.737136840820312,-0.8383064270019531,-2.2469160556793213
1413393215660760500,-0.014613248407840729,-0.021002965047955513,0.03550231084227562,10.305914878845215,0.19347457587718964,-2.738229274749756
1413393215665760500,0.001422978937625885,0.04347915202379227,0.07783231139183044,9.361700057983398,-0.003969352226704359,-2.5959343910217285
1413393215670760500,-0.006521083414554596,-0.035853832960128784,0.04646923393011093,8.58007526397705,-0.7718476057052612,-2.824538469314575
1413393215675760500,0.017169639468193054,0.004900066182017326,0.06609103083610535,9.784558296203613,0.7114264369010925,-3.132167339324951
1413393215680760500,0.014852069318294525,0.05124944448471069,0.12019350379705429,8.949280738830566,0.5265777111053467,-2.702542543411255
1413393215685760500,-0.02677832543849945,-0.04258804768323898,0.09224209189414978,8.426240921020508,-0.642874002456665,-3.0291244983673096
1413393215690760500,-0.014910638332366943,-0.01836376078426838,0.08936917781829834,10.045915603637695,0.21999400854110718,-3.2134029865264893
1413393215695760500,0.02103205770254135,0.038480766117572784,0.14593370258808136,9.161152839660645,0.2814851999282837,-2.5059735774993896
1413393215700760500,-0.003850691020488739,-0.0346902459859848,0.0981651097536087,8.537879943847656,-1.1170175075531006,-2.5057671070098877
1413393215705760500,-0.0028369277715682983,-0.057506002485752106,0.06182881072163582,9.5872220993042,0.07308483868837357,-3.310307741165161
1413393215710760500,0.023804523050785065,0.019402114674448967,0.10917244851589203,9.945491790771484,0.0924672931432724,-2.786348342895508
1413393215715760500,-0.017523739486932755,-0.013765338808298111,0.03734658658504486,9.010465621948242,-0.6469889283180237,-2.654954195022583
1413393215720760500,-0.016840379685163498,-0.019530413672327995,0.027199503034353256,10.002424240112305,0.4668740928173065,-3.1396889686584473
1413393215725760500,0.017927385866642,0.04650770127773285,0.09887721389532089,9.601419448852539,-0.35120853781700134,-2.6174917221069336
1413393215730760500,-0.010552667081356049,0.005197146907448769,0.04389902576804161,8.881434440612793,-0.32719355821609497,-2.768612861633301
1413393215735760500,-0.007759228348731995,0.02306809090077877,0.07238131761550903,9.162446022033691,0.9504575729370117,-2.6600382328033447
1413393215740760500,-0.0008876174688339233,0.022422315552830696,0.12606310844421387,9.480669021606445,-0.17320570349693298,-2.693403959274292
1413393215745760500,-0.03916029632091522,0.009258197620511055,0.05773759260773659,8.685554504394531,-0.6553070545196533,-2.760279655456543
1413393215750760500,-0.00869830697774887,-0.04059167206287384,0.11324600130319595,8.575776100158691,0.279574453830719,-2.345989942550659
1413393215755760500,0.03051818162202835,-0.022588707506656647,0.15952952206134796,10.707184791564941,-0.7151929140090942,-3.161024570465088
1413393215760760500,0.006934113800525665,0.012281181290745735,0.07493825256824493,9.369833946228027,-0.8759927749633789,-3.0193302631378174
1413393215765760500,0.033182866871356964,-0.03206176310777664,0.12020805478096008,8.525272369384766,0.6969754695892334,-2.4777212142944336
1413393215770760500,0.044421762228012085,-0.014050208032131195,0.12075595557689667,10.714277267456055,-0.4936692416667938,-3.293449878692627
1413393215775760500,-0.013212621212005615,0.03291945904493332,0.0405183881521225,8.954989433288574,0.5654341578483582,-3.015637159347534
1413393215780760500,-0.005747608840465546,-0.027794500812888145,0.11996856331825256,9.096914291381836,0.6811609864234924,-2.5130739212036133
1413393215785760500,-0.03785783797502518,0.02918943203985691,0.029697982594370842,10.8596773147583,-0.5844101905822754,-3.449154853820801
1413393215790760500,-0.03850649669766426,0.06747157126665115,0.01861663907766342,8.471914291381836,0.3209882974624634,-2.384549856185913
1413393215795760500,0.005954287946224213,-0.06327039003372192,0.11513963341712952,9.284078598022461,-0.2953285276889801,-2.5501763820648193
1413393215800760500,-0.019743870943784714,0.0582585483789444,0.03334934636950493,10.15070915222168,-0.6726747155189514,-3.217630624771118
1413393215805760500,0.0028343796730041504,0.04749646782875061,0.04608353227376938,7.582583904266357,0.6789877414703369,-2.033170223236084
1413393215810760500,0.03585871309041977,-0.05638507008552551,0.13435254991054535,9.545517921447754,-0.24799619615077972,-2.8772623538970947
1413393215815760500,-0.0066143423318862915,0.018475057557225227,0.07536982744932175,9.057174682617188,-0.336639404296875,-2.863157033920288
1413393215820760500,0.009505040943622589,-0.020427728071808815,0.11666799336671829,8.02729320526123,0.9162192344665527,-2.1495442390441895
1413393215825760500,0.020650289952754974,-0.002575306221842766,0.1276044249534607,10.82729434967041,-0.7726624608039856,-3.1238691806793213
1413393215830760500,-0.010389544069766998,0.012264838442206383,0.08306500315666199,9.013425827026367,-0.07910410314798355,-2.5127463340759277
1413393215835760500,0.005742549896240234,-0.05666887015104294,0.11288085579872131,9.94381046295166,0.1626293808221817,-2.788670301437378
1413393215840760500,-0.02886277437210083,0.04031207412481308,0.014015533030033112,10.075499534606934,-0.3876652717590332,-3.228698968887329
1413393215845760500,-0.025174397975206375,0.0576191246509552,0.029275186359882355,9.070752143859863,0.24326856434345245,-2.4174282550811768
1413393215850760500,-0.001839853823184967,0.051459088921546936,0.09063146263360977,10.228248596191406,-0.4842405617237091,-2.7625885009765625
1413393215855760500,-0.028705548495054245,0.07586759328842163,0.054340772330760956,9.210795402526855,-0.31650280952453613,-3.0540454387664795
1413393215860760500,0.008462034165859222,0.0396372452378273,0.09587875753641129,8.181323051452637,0.3311312794685364,-2.1476659774780273
1413393215865760500,0.01921699196100235,0.038020841777324677,0.10389894247055054,9.039114952087402,-0.8211827278137207,-2.1712050437927246
1413393215870760500,0.00868995487689972,0.017009573057293892,0.08770409971475601,8.771117210388184,-0.07815110683441162,-2.7919116020202637
1413393215875760500,0.01982603222131729,-0.035034313797950745,0.12993155419826508,9.50397777557373,0.5606006979942322,-2.6580023765563965
1413393215880760500,-0.02261827141046524,-0.023605475202202797,0.07497335970401764,9.757942199707031,-0.06815598905086517,-3.2050249576568604
1413393215885760500,-0.018557868897914886,0.022826390340924263,0.09609951078891754,9.625494003295898,0.3998270630836487,-3.0823094844818115
1413393215890760500,-0.0059531256556510925,0.027376921847462654,0.07568639516830444,9.738685607910156,-0.6945898532867432,-2.0669586658477783
1413393215895760500,-0.005960620939731598,0.0393269881606102,0.05520325526595116,9.919357299804688,-0.46716395020484924,-3.4233453273773193
1413393215900760500,0.023236669600009918,0.03400563448667526,0.0861741453409195,9.999131202697754,0.054807841777801514,-2.6741108894348145
1413393215905760500,-0.006055213510990143,0.027373572811484337,0.045357923954725266,9.201004028320312,0.0432601161301136,-2.589829206466675
1413393215910760500,-0.010836519300937653,0.07349163293838501,0.03384268283843994,9.26697826385498,0.19527046382427216,-3.091230869293213
1413393215915760500,-0.010640978813171387,0.03160712867975235,0.06820926070213318,9.02194595336914,-0.16127730906009674,-1.5325944423675537
1413393215920760500,-0.02187015861272812,-0.011839175596833229,0.07258297502994537,8.974709510803223,-0.08482232689857483,-3.030186891555786
1413393215925760500,-0.0002205297350883484,0.013948997482657433,0.07165078073740005,9.135051727294922,0.016157131642103195,-2.9499995708465576
1413393215930760500,0.0008520185947418213,-0.015725860372185707,0.08539076149463654,8.827369689941406,-0.15315259993076324,-2.3727316856384277
1413393215935760500,0.006583459675312042,-0.016181204468011856,0.11784958839416504,9.83862018585205,-0.0670141652226448,-3.712324857711792
1413393215940760500,0.020388968288898468,0.031259529292583466,0.14516550302505493,9.642057418823242,-0.17426863312721252,-1.9379719495773315
1413393215945760500,0.010793015360832214,0.0323910191655159,0.14283081889152527,9.430631637573242,-0.09552263468503952,-3.300143241882324
1413393215950760500,0.015826813876628876,0.06012904644012451,0.12228256464004517,9.811419486999512,0.13129645586013794,-3.264143943786621
1413393215955760500,-0.012092195451259613,0.026542844250798225,0.06556225568056107,8.922492980957031,0.011012883856892586,-1.6295723915100098
1413393215960760500,-0.016441386193037033,0.014498772099614143,0.04305649548768997,9.55180549621582,-0.11893832683563232,-3.842881202697754
1413393215965760500,-0.01930030807852745,0.048190757632255554,0.009981103241443634,9.413296699523926,-0.12424769997596741,-2.2485904693603516
1413393215970760500,-0.03531011566519737,-0.013536771759390831,0.01379731297492981,8.86694622039795,0.144470676779747,-2.735180616378784
1413393215975760500,-0.012030832469463348,0.05277228355407715,0.05364324152469635,10.097338676452637,-0.17831730842590332,-4.2533769607543945
1413393215980760500,0.0023290887475013733,0.04261317104101181,0.08911566436290741,8.677967071533203,-0.4472160339355469,-1.7776353359222412
1413393215985760500,0.015663571655750275,0.013281600549817085,0.11599881201982498,9.479700088500977,-0.42826607823371887,-3.6263656616210938
1413393215990760500,0.02414146065711975,0.091079480946064,0.09839725494384766,9.829261779785156,0.007978059351444244,-2.022348403930664
1413393215995760500,0.006554409861564636,0.010332521051168442,0.11466218531131744,8.278697967529297,0.44686010479927063,-2.2023470401763916
1413393216000760500,-0.0038722530007362366,0.026396023109555244,0.11146571487188339,10.522237777709961,-0.2254687249660492,-3.9952573776245117
1413393216005760500,-0.018860548734664917,0.03126836568117142,0.08208369463682175,8.650141716003418,-0.10770055651664734,-1.169996738433838
1413393216010760500,-0.010843463242053986,-0.023147916421294212,0.09513167291879654,9.094608306884766,0.11999019235372543,-3.5626628398895264
1413393216015760500,0.0018123313784599304,0.02539701946079731,0.07481078058481216,9.804356575012207,-0.8795284032821655,-2.2885019779205322
1413393216020760500,0.01001981645822525,-0.011406274512410164,0.08210389316082001,9.627525329589844,-0.21854403614997864,-2.0733211040496826
1413393216025760500,0.03112073242664337,0.05470699071884155,0.10077156871557236,10.316696166992188,-0.11739502847194672,-4.131899833679199
1413393216030760500,0.018493957817554474,0.06169211119413376,0.07658401876688004,8.595680236816406,-0.021322844550013542,-1.227003812789917
1413393216035760500,0.004589997231960297,0.014449937269091606,0.09146309643983841,9.21053695678711,0.5146660208702087,-3.318572759628296
1413393216040760500,-0.011900752782821655,0.08431968092918396,0.061339154839515686,9.648932456970215,-0.21008557081222534,-1.7811871767044067
1413393216045760500,-0.042357198894023895,-0.00540916807949543,0.0235292986035347,8.835530281066895,0.46106940507888794,-2.5812554359436035
1413393216050760500,-0.03452146798372269,0.05460873991250992,0.02847624570131302,9.648811340332031,-0.05788092687726021,-3.5337865352630615
1413393216055760500,-0.033378683030605316,-0.00889708660542965,0.021565373986959457,8.756660461425781,-0.48032358288764954,-1.3701461553573608
1413393216060760500,-0.0032858476042747498,0.045636534690856934,0.061647579073905945,10.31893539428711,-0.3280085325241089,-4.201468467712402
1413393216065760500,0.03162068873643875,0.07168975472450256,0.08371184766292572,8.660451889038086,-0.5265119075775146,-2.081662893295288
1413393216070760500,0.030281171202659607,-0.015969734638929367,0.10368843376636505,9.457619667053223,0.49379634857177734,-2.9589126110076904
1413393216075760500,0.022887110710144043,0.08972270786762238,0.11345245689153671,9.044697761535645,0.48142457008361816,-3.442750930786133
1413393216080760500,-0.016269266605377197,-0.03687010705471039,0.07461225986480713,8.174580574035645,0.2989635467529297,-1.425808072090149
1413393216085760500,-0.02978302538394928,0.029880696907639503,0.0874076709151268,10.598775863647461,0.43145474791526794,-4.476545810699463
1413393216090760500,-0.03367896378040314,0.033380232751369476,0.07657008618116379,8.186079978942871,-0.3872182071208954,-1.7487841844558716
1413393216095760500,-0.0269528329372406,-0.058678098022937775,0.07930859923362732,9.25928020477295,-0.13610373437404633,-2.793717622756958
1413393216100760500,-0.0023822709918022156,0.08068688958883286,0.08597350865602493,9.339194297790527,-0.4186720550060272,-2.1970200538635254
1413393216105760500,0.0008081197738647461,-0.06268125772476196,0.078132763504982,9.317277908325195,-0.044668372720479965,-2.3668320178985596
1413393216110760500,0.004507996141910553,0.11313843727111816,0.07121045142412186,10.831070899963379,-0.582848310470581,-4.066505432128906
1413393216115760500,0.015232525765895844,0.032663650810718536,0.062367089092731476,8.75777816772461,-0.48757505416870117,-1.5344399213790894
1413393216120760500,0.01430819183588028,0.07242569327354431,0.061097774654626846,10.72862434387207,0.15174536406993866,-3.9832069873809814
1413393216125760500,0.019825004041194916,0.10554085671901703,0.07766631245613098,7.738076210021973,-0.09997717291116714,-1.672513723373413
1413393216130760500,0.007938936352729797,-0.04878878593444824,0.06869746744632721,9.540593147277832,0.09284850209951401,-2.1353893280029297
1413393216135760500,0.007955916225910187,0.12475481629371643,0.07751491665840149,10.375520706176758,-0.17491482198238373,-3.7872331142425537
1413393216140760500,-0.008973784744739532,-0.03707315772771835,0.08561748266220093,7.757599353790283,0.359002023935318,-1.7241698503494263
1413393216145760500,-0.031181901693344116,0.045442335307598114,0.08907113969326019,11.4004487991333,0.14377330243587494,-4.4395751953125
1413393216150760500,-0.01915360614657402,0.1045844778418541,0.11442533135414124,8.05827808380127,-0.16046209633350372,-1.8181240558624268
1413393216155760500,-0.009592011570930481,-0.0715562105178833,0.1259233057498932,9.497048377990723,-0.004942651372402906,-3.472323417663574
1413393216160760500,-0.0023773089051246643,0.1159244030714035,0.11515854299068451,8.758581161499023,-0.543388843536377,-2.307886838912964
1413393216165760500,0.0038997530937194824,-0.09504018723964691,0.08645782619714737,9.612141609191895,-0.01117541640996933,-2.255803346633911
1413393216170760500,0.012161113321781158,0.07403836399316788,0.07266955077648163,11.195479393005371,-0.8809589743614197,-3.9684338569641113
1413393216175760500,0.0189785435795784,0.005030130967497826,0.05641242861747742,7.454801082611084,-0.02058567851781845,-1.2795106172561646
1413393216180760500,0.013482116162776947,-0.0025652535259723663,0.05796733871102333,11.43469524383545,0.4467327892780304,-3.685932159423828
1413393216185760500,0.0031863823533058167,0.12431313097476959,0.029681166633963585,8.93514347076416,0.07184524834156036,-2.420776128768921
1413393216190760500,-0.005424536764621735,-0.07800168544054031,0.07313424348831177,8.894951820373535,0.6930974125862122,-2.6421918869018555
1413393216195760500,-0.029764093458652496,0.09434149414300919,0.04570893198251724,10.206137657165527,-0.035088054835796356,-3.4175145626068115
1413393216200760500,-0.03595191240310669,-0.05495348572731018,0.09298334270715714,7.360300064086914,0.5366976857185364,-1.5427190065383911
1413393216205760500,-0.0438460111618042,-0.03954598307609558,0.09094163775444031,11.364845275878906,-0.6683252453804016,-3.5189831256866455
1413393216210760500,-0.021252334117889404,0.03265080600976944,0.09540800750255585,8.041892051696777,0.1399981677532196,-1.6910021305084229
1413393216215760500,0.0031189098954200745,-0.10718145221471786,0.09125155210494995,10.839380264282227,0.008794374763965607,-3.55942964553833
1413393216220760500,0.005354918539524078,0.054557278752326965,0.08682756125926971,8.673794746398926,-0.18620596826076508,-1.8447247743606567
1413393216225760500,0.011610835790634155,-0.11371108144521713,0.10514460504055023,9.354120254516602,0.509722113609314,-2.7067525386810303
1413393216230760500,0.012090198695659637,0.03166244179010391,0.0812547504901886,10.164168357849121,-0.6107232570648193,-2.8435733318328857
1413393216235760500,0.02599261701107025,-0.06109429895877838,0.11051584780216217,8.009851455688477,0.43354812264442444,-2.3757922649383545
1413393216240760500,0.018326535820961,-0.001449117437005043,0.05037746578454971,10.32040786743164,-0.6814082860946655,-2.9947407245635986
1413393216245760500,0.021218277513980865,0.021597502753138542,0.08235988020896912,8.097840309143066,0.47092404961586,-1.964510202407837
1413393216250760500,0.0029002800583839417,-0.06575355678796768,0.07709384709596634,10.178109169006348,0.2508692741394043,-2.8972041606903076
1413393216255760500,-0.019448649138212204,0.03377962112426758,0.05859759449958801,9.819995880126953,-0.04384322091937065,-2.6387805938720703
1413393216260760500,-0.01840411126613617,-0.05974770337343216,0.10745076835155487,8.982824325561523,0.6184561252593994,-2.7823405265808105
1413393216265760500,-0.033134736120700836,-0.020601125434041023,0.05471823737025261,9.643308639526367,-0.8164703845977783,-2.8831264972686768
1413393216270760500,0.005997039377689362,-0.059612952172756195,0.1539737433195114,8.720913887023926,0.04539874568581581,-2.857881546020508
1413393216275760500,0.01093023270368576,-0.05010201409459114,0.07540247589349747,9.7835693359375,-1.1259275674819946,-2.8747634887695312
1413393216280760500,0.02633713185787201,-0.04212608188390732,0.13965462148189545,8.849808692932129,0.6919177770614624,-3.0742833614349365
1413393216285760500,0.0032318085432052612,-0.061506226658821106,0.07353343814611435,9.702104568481445,-0.28155556321144104,-2.7306065559387207
1413393216290760500,-0.01573190465569496,0.0033776480704545975,0.07419523596763611,9.396661758422852,0.23517441749572754,-3.4409070014953613
1413393216295760500,0.009265512228012085,0.007811523973941803,0.09018560498952866,8.557361602783203,-0.28509822487831116,-2.1811811923980713
1413393216300760500,-0.0012248754501342773,-0.022255264222621918,0.04232797399163246,9.432193756103516,-0.6330536603927612,-2.79129695892334
1413393216305760500,0.04920313507318497,0.019946837797760963,0.1448076069355011,9.354482650756836,0.5075169801712036,-2.918091058731079
1413393216310760500,0.013463437557220459,0.0032199565321207047,0.054632846266031265,9.617568016052246,-0.11790098994970322,-2.5898914337158203
1413393216315760500,0.008132264018058777,0.03965750336647034,0.15644539892673492,9.177044868469238,1.2985788583755493,-3.120065927505493
1413393216320760500,-0.031631991267204285,-0.019232744351029396,0.07582035660743713,8.949414253234863,-0.2571357190608978,-2.669816493988037
1413393216325760500,-0.05205577611923218,0.013303449377417564,0.08639723062515259,9.340746879577637,0.5347827672958374,-3.4346277713775635
1413393216330760500,-0.01949593797326088,0.014171643182635307,0.050775136798620224,8.528158187866211,-0.8865300416946411,-2.0246403217315674
1413393216335760500,-0.017695821821689606,-0.0029636118561029434,0.07450143992900848,9.440511703491211,-0.2821931540966034,-3.8491106033325195
1413393216340760500,0.01839752495288849,0.0236778873950243,0.11147801578044891,8.245145797729492,-0.07652132213115692,-1.9663622379302979
1413393216345760500,-0.020616911351680756,-0.0767877921462059,0.0673828125,9.783783912658691,-0.32928818464279175,-3.3748936653137207
1413393216350760500,0.007933646440505981,0.03735280781984329,0.13705572485923767,9.78913402557373,0.5641873478889465,-3.1582417488098145
1413393216355760500,-0.024641603231430054,-0.05986298620700836,0.06493645161390305,8.972207069396973,-0.7470721006393433,-2.4467787742614746
1413393216360760500,0.004475101828575134,0.05187147855758667,0.1071445643901825,10.278566360473633,-0.017177598550915718,-4.041806697845459
1413393216365760500,0.013417072594165802,0.008575571700930595,0.04873066768050194,7.905080795288086,-0.9928686618804932,-1.6487563848495483
1413393216370760500,0.02582923322916031,0.0035177599638700485,0.0721832886338234,11.522400856018066,-0.16688962280750275,-4.508124351501465
1413393216375760500,0.03511588275432587,0.12467755377292633,0.07355716079473495,8.275115013122559,0.33172789216041565,-1.4119421243667603
1413393216380760500,-0.013100281357765198,-0.03654118627309799,0.10835379362106323,9.789347648620605,0.5038910508155823,-4.153529644012451
1413393216385760500,-0.012184001505374908,0.07719653844833374,0.09714202582836151,8.140698432922363,-0.15364812314510345,-1.5484428405761719
1413393216390760500,-0.03107830137014389,-0.11823403090238571,0.10699550807476044,9.238020896911621,-0.37993064522743225,-3.2403855323791504
1413393216395760500,0.014183178544044495,0.0349380299448967,0.10336613655090332,9.943769454956055,-0.6272033452987671,-2.4380550384521484
1413393216400760500,-0.006993822753429413,-0.12892356514930725,0.03656541556119919,8.325489044189453,-0.5790800452232361,-1.9297754764556885
1413393216405760500,0.02956470102071762,-0.043596722185611725,0.09017501771450043,11.072805404663086,0.0359620526432991,-3.8003814220428467
1413393216410760500,-0.005497433245182037,-0.05121096223592758,0.023408833891153336,8.941516876220703,0.11345572024583817,-1.3872997760772705
1413393216415760500,0.0034051090478897095,-0.03762780874967575,0.0902758240699768,12.176841735839844,-0.04231339693069458,-4.724726676940918
1413393216420760500,-0.017093848437070847,0.07343380153179169,-0.005010176450014114,9.285916328430176,-0.10440557450056076,-0.9322587847709656
1413393216425760500,-0.009625278413295746,0.017990441992878914,0.06348773092031479,10.940692901611328,0.4222610592842102,-4.3018999099731445
1413393216430760500,-0.012562744319438934,0.12305635213851929,0.006955862045288086,7.633458614349365,-0.1433144360780716,-1.0511575937271118
1413393216435760500,-0.018750466406345367,-0.007952388375997543,0.09129226952791214,9.743940353393555,0.12113004177808762,-3.602224826812744
1413393216440760500,0.015506304800510406,0.1296577751636505,0.05319657176733017,8.810802459716797,-0.30988532304763794,-1.7634813785552979
1413393216445760500,0.00786525011062622,-0.01224468369036913,0.14855781197547913,9.193649291992188,0.897592306137085,-3.898432970046997
1413393216450760500,0.003124229609966278,0.12339882552623749,0.10543397814035416,9.178043365478516,-0.38949447870254517,-2.502528667449951
1413393216455760500,-0.041799239814281464,-0.07730700820684433,0.07614416629076004,7.096792221069336,0.6716201305389404,-2.349588632583618
1413393216460760500,-0.021416272968053818,0.0002369079738855362,0.06753242015838623,9.325530052185059,-0.5444724559783936,-2.9175212383270264
1413393216465760500,-0.05385243147611618,-0.1739850789308548,-0.0019419416785240173,7.454827308654785,0.6739356517791748,-1.5417643785476685
1413393216470760500,-0.016371116042137146,-0.077498659491539,0.0816446989774704,11.436366081237793,-0.6451584100723267,-4.2725749015808105
1413393216475760500,-0.057786472141742706,-0.10649898648262024,-0.011284619569778442,7.099936485290527,0.5591171383857727,-1.5034773349761963
1413393216480760500,-0.004935167729854584,-0.12142852693796158,0.14575845003128052,11.536197662353516,-0.43416228890419006,-3.9033124446868896
1413393216485760500,-0.022409208118915558,-0.0423642173409462,0.051487479358911514,7.901127338409424,0.5198624730110168,-1.642514705657959
1413393216490760500,0.016310401260852814,-0.12700532376766205,0.18516913056373596,12.31631851196289,-0.5479728579521179,-4.594000816345215
1413393216495760500,-0.02060195803642273,0.017968909814953804,0.07109270989894867,8.101890563964844,0.9529287219047546,-1.7956275939941406
1413393216500760500,-0.020940624177455902,-0.02304237149655819,0.17590799927711487,10.951069831848145,0.16156773269176483,-4.938087463378906
1413393216505760500,-0.056197769939899445,0.09620685130357742,0.05315311998128891,8.420877456665039,-0.004725502338260412,-1.1036815643310547
1413393216510760500,-0.027282103896141052,-0.050583310425281525,0.13910265266895294,10.102514266967773,-0.3024694621562958,-3.8701860904693604
1413393216515760500,-0.033579036593437195,0.10425099730491638,0.029653409495949745,9.230072021484375,-0.4614466726779938,-2.3756191730499268
