#timestamp [ns],w_RS_S_x [rad s^-1],w_RS_S_y [rad s^-1],w_RS_S_z [rad s^-1],a_RS_S_x [m s^-2],a_RS_S_y [m s^-2],a_RS_S_z [m s^-2]
1413393212225760500,0.09494591130849153,0.02024581932313422,0.05864306286700947,9.128356708333332,0.10623870833333333,-2.606934458333333
1413393212230760500,0.05864306286700947,0.03560471674068433,0.05166174585903216,9.422556208333333,1.1604535833333331,-2.623278875
1413393212235760500,-0.01117010721276371,0.027925268031909273,0.06981317007977318,9.398039583333333,1.61809725,-2.705000958333333
1413393212240760500,-0.07260569688296412,0.033510321638291124,0.06981317007977318,9.496106083333332,0.6701210833333332,-2.8194118749999997
1413393212245760500,-0.09215338450530061,0.03630284844148206,0.07888888219014369,8.989429166666666,-0.13075533333333333,-2.7131731666666665
1413393212250760500,-0.05864306286700947,0.024434609527920613,0.10053096491487339,9.177389958333332,-0.8907707083333333,-2.582417833333333
1413393212255760500,-0.005585053606381855,0.009075712110370514,0.11379546723003027,9.299973083333333,-1.2340034583333332,-2.476179125
1413393212260760500,0.03700098014227979,0.013264502315156905,0.10053096491487339,9.586000375,-0.8172208333333333,-2.7458620000000002
1413393212265760500,0.0614355896702004,0.023736477827122883,0.09145525280450287,9.275456458333332,0.07354987499999999,-2.582417833333333
1413393212270760500,0.04468042885105484,0.017453292519943295,0.0767944870877505,9.536967125,0.4985047083333333,-2.6886565416666666
1413393212275760500,0.009773843811168246,0.028623399732707,0.060039326268604934,9.471589458333332,0.4004382083333333,-2.606934458333333
1413393212280760500,-0.01884955592153876,0.029321531433504733,0.07190756518216637,9.496106083333332,0.220649625,-2.9256505833333333
1413393212285760500,-0.032114058236695664,0.04258603374866164,0.08656833089891874,9.332661916666666,0.122583125,-2.705000958333333
1413393212290760500,-0.04328416544945937,0.023038346126325153,0.08447393579652555,9.398039583333333,-0.04903325,-2.8194118749999997
1413393212295760500,-0.0307177948351002,0.041887902047863905,0.09494591130849153,9.659550249999999,-0.3759215833333333,-2.9174783749999995
1413393212300760500,-0.01117010721276371,0.041887902047863905,0.09354964790689606,9.1201845,-0.43312704166666666,-2.4925235416666665
1413393212305760500,-0.0006981317007977319,0.024434609527920613,0.07749261878854824,9.291800875,-0.4903325,-2.59876225
1413393212310760500,0.020943951023931952,0.014660765716752367,0.07120943348136866,9.242767624999999,-0.4004382083333333,-2.5252123749999997
1413393212315760500,0.032812189937493394,0.008377580409572781,0.07539822368615504,9.447072833333333,-0.0980665,-2.655967708333333
1413393212320760500,0.02652900463031381,0.0013962634015954637,0.08936085770210968,9.496106083333332,0.269682875,-2.69682875
1413393212325760500,0.006283185307179587,0.01117010721276371,0.09773843811168245,9.447072833333333,0.44129925,-2.7376897916666665
1413393212330760500,-0.011868238913561441,0.027925268031909273,0.10122909661567112,9.7085835,0.2533384583333333,-2.8439284999999996
1413393212335760500,-0.028623399732707,0.03700098014227979,0.09145525280450287,9.757616749999999,0.0,-2.8684451249999996
1413393212340760500,-0.028623399732707,0.041887902047863905,0.07749261878854824,9.586000375,-0.17161637500000002,-2.754034208333333
1413393212345760500,-0.01815142422074103,0.04817108735504349,0.07051130178057091,9.324489708333333,-0.48216029166666663,-2.5006957499999998
1413393212350760500,0.005585053606381855,0.02583087292951608,0.0767944870877505,9.079323458333333,-0.5148491249999999,-2.3699404166666667
1413393212355760500,0.020943951023931952,0.016755160819145562,0.0879645943005142,9.201906583333333,-0.17978858333333333,-2.574245625
1413393212360760500,0.02234021442552742,0.008377580409572781,0.09075712110370514,9.283628666666665,0.057205458333333334,-2.6151066666666667
1413393212365760500,0.009075712110370514,0.005585053606381855,0.08307767239493008,9.487933875,0.13892754166666665,-2.7867230416666664
1413393212370760500,-0.002970963716506958,0.024877309799194336,0.07602265477180481,9.80708122253418,0.19338274002075195,-2.9649596214294434
1413393212375760500,-0.015701955184340477,0.04174993187189102,0.0664936900138855,9.54503059387207,0.03133624419569969,-2.83327579498291
1413393212380760500,-0.0242567528039217,0.029138382524251938,0.07034550607204437,9.366185188293457,-0.1652914583683014,-2.6680514812469482
1413393212385760500,-0.012250252068042755,0.0506698340177536,0.07540082186460495,9.456844329833984,-0.3136012852191925,-2.6751708984375
1413393212390760500,0.008126821368932724,0.032597512006759644,0.0879046618938446,8.852421760559082,-0.19898851215839386,-2.3959174156188965
1413393212395760500,0.0018373914062976837,0.000287473201751709,0.09945905953645706,9.253799438476562,0.13649488985538483,-2.5424816608428955
1413393212400760500,-0.008022619411349297,0.016409926116466522,0.09007851779460907,9.759445190429688,-0.04306528717279434,-2.775996446609497
1413393212405760500,-0.010717201977968216,0.028580274432897568,0.08378088474273682,9.626614570617676,-0.256969153881073,-2.9572012424468994
1413393212410760500,-0.0064390599727630615,0.01669638603925705,0.07852567732334137,9.211495399475098,-0.23211759328842163,-2.655904531478882
1413393212415760500,0.0019538290798664093,0.021881163120269775,0.07645706832408905,9.808095932006836,-0.343997597694397,-2.8812718391418457
1413393212420760500,0.018715765327215195,0.05003766715526581,0.08216755837202072,9.282732963562012,-0.14910511672496796,-2.5710256099700928
1413393212425760500,0.0242583230137825,0.02487136423587799,0.09967122972011566,9.015082359313965,0.10392770916223526,-2.5497548580169678
1413393212430760500,0.005887947976589203,0.00285923108458519,0.09521695226430893,9.458373069763184,0.3254719078540802,-2.7570595741271973
1413393212435760500,-0.015948012471199036,0.01437690481543541,0.089378722012043,9.488462448120117,0.2594669461250305,-2.6922903060913086
1413393212440760500,-0.033383723348379135,0.01824832707643509,0.08813561499118805,9.471999168395996,-0.13400568068027496,-2.726149082183838
1413393212445760500,-0.029721029102802277,0.022202491760253906,0.07226752489805222,9.4251070022583,-0.5676726698875427,-2.7278506755828857
1413393212450760500,-0.005036495625972748,0.02557951956987381,0.07371945679187775,9.497289657592773,-0.494174063205719,-2.685647964477539
1413393212455760500,0.026626139879226685,0.027063678950071335,0.08500149846076965,9.553032875061035,-0.2388027459383011,-2.7016243934631348
1413393212460760500,0.03274106979370117,0.03801323473453522,0.088411346077919,9.3982572555542,-0.09169512242078781,-2.6032865047454834
1413393212465760500,0.024907007813453674,0.031574591994285583,0.0796542763710022,9.334004402160645,0.2664586901664734,-2.6744582653045654
1413393212470760500,0.003814142197370529,0.028412118554115295,0.08592870086431503,9.227583885192871,0.4642697870731354,-2.5192017555236816
1413393212475760500,-0.019316978752613068,0.00893186405301094,0.08904275298118591,9.399203300476074,0.1299772560596466,-2.665834903717041
1413393212480760500,-0.03472193330526352,0.01144804060459137,0.08208067715167999,9.611827850341797,-0.19203771650791168,-2.8081235885620117
1413393212485760500,-0.02410278655588627,0.023454654961824417,0.08280547708272934,9.431718826293945,-0.265415221452713,-2.6939337253570557
1413393212490760500,-0.009951155632734299,0.018019001930952072,0.08497543632984161,9.424105644226074,-0.18143564462661743,-2.8236172199249268
1413393212495760500,0.003242652863264084,0.02496633678674698,0.082667276263237,9.505277633666992,-0.2559449076652527,-2.6293137073516846
1413393212500760500,0.01940150558948517,0.024814501404762268,0.07398870587348938,9.66765308380127,-0.25757578015327454,-2.7414915561676025
1413393212505760500,0.014531135559082031,0.031108371913433075,0.0672171339392662,9.292680740356445,-0.05166589468717575,-2.6609749794006348
1413393212510760500,0.012355722486972809,0.018611952662467957,0.07308512181043625,9.025127410888672,-0.09833769500255585,-2.5278289318084717
1413393212515760500,0.011615488678216934,0.001821964979171753,0.09334869682788849,9.262019157409668,-0.05079587548971176,-2.6180272102355957
1413393212520760500,-0.0023731812834739685,0.015097279101610184,0.08623025566339493,9.66773509979248,0.2094080001115799,-2.6682586669921875
1413393212525760500,-0.014324091374874115,0.033307820558547974,0.10018371045589447,9.49528980255127,0.3748176395893097,-2.741102457046509
1413393212530760500,-0.02787088416516781,0.020737528800964355,0.09251302480697632,9.342605590820312,-0.03409957140684128,-2.693740129470825
1413393212535760500,-0.02356341853737831,0.030522599816322327,0.08033406734466553,9.506353378295898,-0.47866877913475037,-2.7178847789764404
1413393212540760500,-0.0065355971455574036,0.03333422541618347,0.06788640469312668,9.341582298278809,-0.4372731149196625,-2.6435766220092773
1413393212545760500,0.015290290117263794,0.03180093318223953,0.07308460026979446,9.37497615814209,-0.4831007421016693,-2.6353352069854736
1413393212550760500,0.02790561318397522,0.025509685277938843,0.08297572284936905,9.228954315185547,-0.2557453513145447,-2.578489065170288
1413393212555760500,0.02857159823179245,0.013695765286684036,0.10091839730739594,9.284948348999023,0.2338905781507492,-2.6014599800109863
1413393212560760500,0.004667799919843674,0.01295863464474678,0.0992748886346817,9.552764892578125,0.6531775593757629,-2.7897396087646484
1413393212565760500,-0.02703583985567093,0.02893584966659546,0.08665960282087326,9.55262279510498,0.3997858166694641,-2.7506399154663086
1413393212570760500,-0.039680495858192444,0.03752691298723221,0.07338358461856842,9.423648834228516,-0.16723918914794922,-2.7586493492126465
1413393212575760500,-0.023421838879585266,0.027852173894643784,0.07150637358427048,9.497832298278809,-0.5194723010063171,-2.669550895690918
1413393212580760500,-0.0015811286866664886,0.03886038810014725,0.07109660655260086,9.57048511505127,-0.5419800877571106,-2.7005577087402344
1413393212585760500,0.0214737206697464,0.03251262009143829,0.08307866752147675,9.12114143371582,-0.3615526854991913,-2.4721083641052246
1413393212590760500,0.03064991533756256,0.015589311718940735,0.09044545888900757,9.4895658493042,0.021280059590935707,-2.6995368003845215
1413393212595760500,0.02294374629855156,0.024768128991127014,0.09851627796888351,9.47156810760498,0.3732548654079437,-2.5790181159973145
1413393212600760500,-0.010134361684322357,0.012377053499221802,0.08790022134780884,9.405460357666016,0.505553662776947,-2.7149009704589844
1413393212605760500,-0.031247491016983986,0.018595486879348755,0.07342870533466339,9.636290550231934,-0.058851610869169235,-2.7518410682678223
1413393212610760500,-0.02692612074315548,0.02552999183535576,0.06815885752439499,9.578768730163574,-0.40466171503067017,-2.742306709289551
1413393212615760500,-0.0038088150322437286,0.02148989960551262,0.07182241976261139,9.357857704162598,-0.6077016592025757,-2.5218734741210938
1413393212620760500,0.016497254371643066,0.02075657621026039,0.07591735571622849,9.326151847839355,-0.29612410068511963,-2.4700710773468018
1413393212625760500,0.02561882883310318,0.02831690013408661,0.08767084777355194,9.252649307250977,0.014804837293922901,-2.5921592712402344
1413393212630760500,0.016557469964027405,0.020633123815059662,0.0958976075053215,9.439594268798828,0.30779796838760376,-2.6755361557006836
1413393212635760500,-0.0065655820071697235,0.02276887744665146,0.09079964458942413,9.5617036819458,0.3816258907318115,-2.774620532989502
1413393212640760500,-0.029721692204475403,0.026350248605012894,0.07475371658802032,9.260409355163574,0.18618765473365784,-2.75003981590271
1413393212645760500,-0.029667817056179047,0.02010851353406906,0.07721628248691559,9.163861274719238,-0.22280913591384888,-2.659940004348755
1413393212650760500,-0.017116684466600418,0.018592581152915955,0.079535573720932,9.514676094055176,-0.6982280015945435,-2.636263370513916
1413393212655760500,0.01238175481557846,0.021354682743549347,0.08635322749614716,9.43977165222168,-0.567384660243988,-2.684974193572998
1413393212660760500,0.02711372822523117,0.02984059602022171,0.08757290244102478,9.309673309326172,-0.07474006712436676,-2.742048978805542
1413393212665760500,0.024981558322906494,0.029075007885694504,0.09654983878135681,9.326471328735352,0.20402935147285461,-2.734151601791382
1413393212670760500,0.0017911046743392944,0.02827880159020424,0.0830860510468483,9.529096603393555,0.29958897829055786,-2.8241491317749023
1413393212675760500,-0.01637355238199234,0.03043915331363678,0.07329640537500381,9.45479679107666,0.29128608107566833,-2.7591047286987305
1413393212680760500,-0.03038315661251545,0.031188510358333588,0.07374849915504456,9.366703033447266,-0.03365185856819153,-2.782956600189209
1413393212685760500,-0.026950430124998093,0.020741954445838928,0.08665727078914642,9.073952674865723,-0.33739301562309265,-2.579164505004883
1413393212690760500,-0.009474877268075943,0.01584617793560028,0.089900903403759,9.40858268737793,-0.6490969657897949,-2.6188724040985107
1413393212695760500,0.014511972665786743,0.019320767372846603,0.08816509693861008,9.497220039367676,-0.371113121509552,-2.7344729900360107
1413393212700760500,0.027145594358444214,0.024155624210834503,0.08807834982872009,9.47218132019043,-0.09935661405324936,-2.759568452835083
1413393212705760500,0.022213134914636612,0.023435380309820175,0.0845332145690918,9.374677658081055,0.23547159135341644,-2.799957275390625
1413393212710760500,0.0018402859568595886,0.027670063078403473,0.07268975675106049,9.529276847839355,0.22651934623718262,-2.816383123397827
1413393212715760500,-0.016374249011278152,0.03539276868104935,0.07444631308317184,9.356915473937988,0.2750564217567444,-2.651480197906494
1413393212720760500,-0.020649123936891556,0.03046981245279312,0.08519633114337921,9.284914016723633,-0.1076727956533432,-2.6097004413604736
1413393212725760500,-0.017194800078868866,0.023463204503059387,0.09124994277954102,9.326729774475098,-0.3138315975666046,-2.553252696990967
1413393212730760500,-0.0038671866059303284,0.018639400601387024,0.08955355733633041,9.350647926330566,-0.33865877985954285,-2.528130054473877
1413393212735760500,0.008118372410535812,0.017894364893436432,0.08954824507236481,9.431818008422852,-0.14985160529613495,-2.602268934249878
1413393212740760500,0.008119743317365646,0.014331169426441193,0.0776958167552948,9.480791091918945,-0.05948198586702347,-2.6523005962371826
1413393212745760500,0.006826277822256088,0.018536560237407684,0.06923248618841171,9.64340591430664,0.07837297022342682,-2.807720184326172
1413393212750760500,0.0012591257691383362,0.028441637754440308,0.06737135350704193,9.495918273925781,0.13661660254001617,-2.7184600830078125
1413393212755760500,-0.00651169940829277,0.0431097149848938,0.07388371229171753,9.537238121032715,-0.08367801457643509,-2.667870283126831
1413393212760760500,-0.005973786115646362,0.031182900071144104,0.08572137355804443,9.243906021118164,-0.24792340397834778,-2.495635509490967
1413393212765760500,-0.0010198652744293213,0.021267782896757126,0.08824247121810913,9.407502174377441,-0.09284082800149918,-2.600188732147217
1413393212770760500,-0.004491500556468964,0.016384337097406387,0.0951647236943245,9.45622730255127,0.10497571527957916,-2.6999683380126953
1413393212775760500,-0.010264270007610321,0.019291743636131287,0.0868193507194519,9.440089225769043,-0.20609331130981445,-2.6608333587646484
1413393212780760500,-0.008726667612791061,0.016564548015594482,0.08045847713947296,9.546808242797852,-0.27403002977371216,-2.8412065505981445
1413393212785760500,-0.005721546709537506,0.02709076553583145,0.07291683554649353,9.61941146850586,-0.12527786195278168,-2.850348472595215
1413393212790760500,0.0019727684557437897,0.029155097901821136,0.08287011086940765,9.422967910766602,-0.2043563276529312,-2.783865451812744
1413393212795760500,0.00953938439488411,0.033193014562129974,0.0821516364812851,9.26049518585205,-0.28878799080848694,-2.5304884910583496
1413393212800760500,0.014464311301708221,0.016989611089229584,0.08682724833488464,9.350757598876953,-0.0773032009601593,-2.568143129348755
1413393212805760500,0.01239476352930069,0.020594187080860138,0.0937664583325386,9.439516067504883,0.2850401997566223,-2.6830053329467773
1413393212810760500,-0.0018162056803703308,0.015180237591266632,0.09662362933158875,9.300990104675293,0.21185533702373505,-2.6105294227600098
1413393212815760500,-0.018702508881688118,0.02008991688489914,0.08119287341833115,9.343323707580566,-0.10173057019710541,-2.7091076374053955
1413393212820760500,-0.018501870334148407,0.013726823031902313,0.08266419172286987,9.628517150878906,-0.20068521797657013,-2.9393062591552734
1413393212825760500,-0.009278345853090286,0.031204573810100555,0.08077673614025116,9.577746391296387,-0.18205131590366364,-2.7606565952301025
1413393212830760500,-0.00236448273062706,0.03260132670402527,0.08486713469028473,9.512955665588379,-0.3940494656562805,-2.685575246810913
1413393212835760500,0.012410052120685577,0.042319267988204956,0.07702278345823288,9.41577434539795,-0.24952082335948944,-2.6767070293426514
1413393212840760500,0.018018919974565506,0.03182690590620041,0.08054995536804199,9.33339786529541,0.013486995361745358,-2.5442495346069336
1413393212845760500,0.01316051185131073,0.027559354901313782,0.08755442500114441,9.480046272277832,0.2852283716201782,-2.698935031890869
1413393212850760500,-0.0039103031158447266,0.01290755346417427,0.08123023808002472,9.162496566772461,0.17014683783054352,-2.5371882915496826
1413393212855760500,-0.01712019555270672,0.016409065574407578,0.07563510537147522,9.514506340026855,0.053720902651548386,-2.870953321456909
1413393212860760500,-0.023448601365089417,0.020129188895225525,0.08013098686933517,9.334417343139648,-0.12520137429237366,-2.6626369953155518
1413393212865760500,-0.012905959039926529,0.022904835641384125,0.0828169509768486,9.545968055725098,-0.3128877282142639,-2.6842122077941895
1413393212870760500,-0.0016977600753307343,0.03049444407224655,0.08403346687555313,9.521744728088379,-0.3871799409389496,-2.6532156467437744
1413393212875760500,0.01030607521533966,0.02826007455587387,0.07913721352815628,9.61071491241455,-0.22414174675941467,-2.6843419075012207
1413393212880760500,0.018044404685497284,0.0324825793504715,0.08341308683156967,9.30043888092041,0.05525459721684456,-2.5860354900360107
1413393212885760500,0.009572125971317291,0.029071196913719177,0.07772445678710938,9.211686134338379,0.20299850404262543,-2.6169652938842773
1413393212890760500,-0.006715133786201477,0.006739787757396698,0.07774578779935837,9.138830184936523,0.07965312898159027,-2.4544265270233154
1413393212895760500,-0.01637912541627884,0.015048578381538391,0.07998977601528168,9.75065803527832,0.004999086260795593,-2.8873167037963867
1413393212900760500,-0.016439223662018776,0.03269483149051666,0.08854281902313232,9.325155258178711,-0.19006817042827606,-2.5486059188842773
1413393212905760500,-0.015766886994242668,0.015211425721645355,0.08831820636987686,9.277965545654297,-0.38590994477272034,-2.7809252738952637
1413393212910760500,-0.0010382458567619324,0.020631618797779083,0.07693348079919815,9.588055610656738,-0.37121525406837463,-2.646841526031494
1413393212915760500,0.015260178595781326,0.031081363558769226,0.07624387741088867,9.764659881591797,-0.16634728014469147,-2.7734642028808594
1413393212920760500,0.016712240874767303,0.04373133182525635,0.07781444489955902,9.356321334838867,0.24339812994003296,-2.603647470474243
1413393212925760500,0.00034925714135169983,0.025555040687322617,0.07505429536104202,9.163576126098633,0.1378130316734314,-2.6169986724853516
1413393212930760500,-0.005310870707035065,0.017885524779558182,0.08777134865522385,9.253350257873535,-0.12588253617286682,-2.5288753509521484
1413393212935760500,-0.010039892047643661,0.006005838513374329,0.09054844081401825,9.578372955322266,-0.07726721465587616,-2.7732486724853516
1413393212940760500,-0.005136366933584213,0.023391038179397583,0.09941938519477844,9.398825645446777,-0.13171321153640747,-2.727303981781006
1413393212945760500,-0.007455963641405106,0.017970405519008636,0.08391843736171722,9.163958549499512,-0.2959847152233124,-2.61954927444458
1413393212950760500,0.008107896894216537,0.018058758229017258,0.08953867107629776,9.55543327331543,-0.29873982071876526,-2.7182137966156006
1413393212955760500,0.013915739953517914,0.02767246961593628,0.08061572164297104,9.838122367858887,0.11939158290624619,-2.938533067703247
1413393212960760500,0.004720684140920639,0.04078584909439087,0.07775609940290451,9.40502643585205,0.3266752362251282,-2.7920169830322266
1413393212965760500,-0.011586522683501244,0.03534143418073654,0.06452389806509018,9.212737083435059,-0.001798939541913569,-2.725586175918579
1413393212970760500,-0.008011091500520706,0.027791328728199005,0.07583712041378021,9.188213348388672,-0.16857363283634186,-2.4717767238616943
1413393212975760500,-0.0064885541796684265,0.01164957880973816,0.08842482417821884,9.366497993469238,-0.11709959805011749,-2.6734673976898193
1413393212980760500,-0.00939583033323288,0.01918838918209076,0.08899901062250137,9.423675537109375,-0.033452827483415604,-2.5958971977233887
1413393212985760500,-0.008111100643873215,0.012946493923664093,0.08826963603496552,9.384002685546875,-0.2965065836906433,-2.676729917526245
1413393212990760500,0.006758395582437515,0.020065106451511383,0.08548593521118164,9.530216217041016,-0.2990824282169342,-2.654167413711548
1413393212995760500,0.006185002624988556,0.02917834371328354,0.07411213964223862,9.716279983520508,0.04652531072497368,-2.8397340774536133
1413393213000760500,0.000528968870639801,0.03183222562074661,0.06645350158214569,9.315770149230957,0.3437075912952423,-2.7665674686431885
1413393213005760500,-0.01292085088789463,0.032470084726810455,0.06960994750261307,9.301972389221191,-0.025646314024925232,-2.749614715576172
1413393213010760500,-0.00800134614109993,0.0326070562005043,0.07954966276884079,9.204179763793945,-0.234087735414505,-2.455734968185425
1413393213015760500,0.0011394992470741272,0.02216748148202896,0.09045220166444778,9.342373847961426,-0.19896617531776428,-2.566904306411743
1413393213020760500,-0.001017555594444275,0.01369505375623703,0.09516926854848862,9.318266868591309,-0.08170177787542343,-2.651343822479248
1413393213025760500,-0.0004121623933315277,0.013652868568897247,0.09869558364152908,9.440756797790527,-0.33700475096702576,-2.6611502170562744
1413393213030760500,0.0052935890853405,0.017181091010570526,0.09025800228118896,9.602903366088867,-0.17700213193893433,-2.6619908809661865
1413393213035760500,0.00616065040230751,0.024187728762626648,0.0747961550951004,9.57719612121582,0.19410985708236694,-2.7908036708831787
1413393213040760500,-0.006560221314430237,0.027660582214593887,0.07083278149366379,9.455101013183594,0.22920019924640656,-2.7339706420898438
1413393213045760500,-0.0108074601739645,0.03115399181842804,0.0710088312625885,9.586810111999512,-0.11725125461816788,-2.7504966259002686
1413393213050760500,0.0011464543640613556,0.04449812322854996,0.08428139984607697,9.308574676513672,-0.2505587637424469,-2.464071035385132
1413393213055760500,0.0017834678292274475,0.027025803923606873,0.09049361944198608,9.02435302734375,-0.18156686425209045,-2.492488384246826
1413393213060760500,0.005215402692556381,0.009457122534513474,0.09382140636444092,9.197160720825195,-0.17225615680217743,-2.601475715637207
1413393213065760500,0.008065342903137207,0.01571052148938179,0.09723140299320221,9.562703132629395,-0.13429801166057587,-2.6197121143341064
1413393213070760500,0.006804697215557098,0.01644495502114296,0.08599585294723511,9.691812515258789,0.04489916190505028,-2.7265310287475586
1413393213075760500,-0.0037803128361701965,0.019298966974020004,0.07701651006937027,9.569746971130371,0.13734161853790283,-2.8084919452667236
1413393213080760500,-0.012248683720827103,0.02706626057624817,0.07237546890974045,9.358180046081543,0.03944335877895355,-2.7259366512298584
1413393213085760500,-0.009319838136434555,0.032626621425151825,0.074480339884758,9.48035717010498,-0.1013045608997345,-2.692552089691162
1413393213090760500,-0.00020047277212142944,0.03740498423576355,0.07504744827747345,9.406832695007324,-0.2238362580537796,-2.643207550048828
1413393213095760500,0.003185991197824478,0.031800493597984314,0.08550488203763962,9.130427360534668,-0.173854798078537,-2.5359649658203125
1413393213100760500,0.010135766118764877,0.009561825543642044,0.0897391214966774,9.082818031311035,-0.1491296887397766,-2.405120849609375
1413393213105760500,0.010267842561006546,0.008754923939704895,0.10151654481887817,9.603865623474121,0.0050990991294384,-2.6752099990844727
1413393213110760500,-0.0065945908427238464,0.01502157747745514,0.08678551018238068,9.601689338684082,0.14443019032478333,-2.751264810562134
1413393213115760500,-0.013607900589704514,0.01373639702796936,0.07980117201805115,9.504343032836914,0.0799608826637268,-2.816727876663208
1413393213120760500,-0.017731692641973495,0.023591656237840652,0.07436643540859222,9.546327590942383,-0.04338141158223152,-2.8173904418945312
1413393213125760500,-0.009954147040843964,0.03333380073308945,0.07295070588588715,9.569947242736816,-0.23162364959716797,-2.7995643615722656
1413393213130760500,-0.00587087869644165,0.04234730452299118,0.0708635151386261,9.479912757873535,-0.2640625238418579,-2.676846981048584
1413393213135760500,0.008091352880001068,0.04094557464122772,0.07791656255722046,9.244550704956055,-0.3698519170284271,-2.5204875469207764
1413393213140760500,0.013006884604692459,0.027702931314706802,0.089111328125,9.024700164794922,-0.10910236090421677,-2.322481393814087
1413393213145760500,0.015192382037639618,0.00031569600105285645,0.09657861292362213,9.489765167236328,0.0636763870716095,-2.698209762573242
1413393213150760500,0.0032578259706497192,0.01771891862154007,0.08599592745304108,9.626622200012207,0.23503617942333221,-2.7599997520446777
1413393213155760500,-0.0164833664894104,0.015812169760465622,0.07845766097307205,9.52065658569336,0.07135259360074997,-2.7430710792541504
1413393213160760500,-0.017832355573773384,0.02784452587366104,0.08421583473682404,9.456632614135742,-0.10920050740242004,-2.735093116760254
1413393213165760500,-0.014298297464847565,0.027074582874774933,0.08700138330459595,9.488777160644531,-0.23142635822296143,-2.757927179336548
1413393213170760500,-0.007955821231007576,0.03103862702846527,0.07921777665615082,9.659367561340332,-0.26421216130256653,-2.7094228267669678
1413393213175760500,0.011674977838993073,0.03944913297891617,0.08481469005346298,9.382469177246094,-0.35386452078819275,-2.6600191593170166
1413393213180760500,0.022884894162416458,0.034709662199020386,0.08899863064289093,8.918774604797363,-0.158485546708107,-2.478623628616333
1413393213185760500,0.019360948354005814,0.010268162935972214,0.09862776100635529,9.090824127197266,0.1861155778169632,-2.501410961151123
1413393213190760500,-0.0003059953451156616,0.010829918086528778,0.08955328911542892,9.725373268127441,0.30103591084480286,-2.8229150772094727
1413393213195760500,-0.013638246804475784,0.022702883929014206,0.08906868100166321,9.528085708618164,0.11176952719688416,-2.7442691326141357
1413393213200760500,-0.019958851858973503,0.02773861214518547,0.0778929591178894,9.358877182006836,-0.16711819171905518,-2.6449294090270996
1413393213205760500,-0.0192074216902256,0.02075609564781189,0.07346980273723602,9.522762298583984,-0.19072870910167694,-2.75834059715271
1413393213210760500,-0.010100128129124641,0.0290745347738266,0.07290806621313095,9.659092903137207,-0.2961018979549408,-2.7257843017578125
1413393213215760500,0.006784621626138687,0.04377051442861557,0.08152041584253311,9.357159614562988,-0.3624378740787506,-2.652024269104004
1413393213220760500,0.01869799941778183,0.030440393835306168,0.08424647152423859,8.943561553955078,-0.15866869688034058,-2.5038630962371826
1413393213225760500,0.01657058298587799,0.009427353739738464,0.09240168333053589,9.074676513671875,0.20287682116031647,-2.5096287727355957
1413393213230760500,0.0054307132959365845,0.00806143507361412,0.08880659937858582,9.766094207763672,0.2932261824607849,-2.8227484226226807
1413393213235760500,-0.010793518275022507,0.024884697049856186,0.08819962292909622,9.666718482971191,0.02169373631477356,-2.810137987136841
1413393213240760500,-0.01860946975648403,0.02634093537926674,0.07994118332862854,9.244154930114746,-0.15895803272724152,-2.6287174224853516
1413393213245760500,-0.017091622576117516,0.020061999559402466,0.07714872807264328,9.457609176635742,-0.07563300430774689,-2.806535482406616
1413393213250760500,-0.010831711813807487,0.028419382870197296,0.07580039650201797,9.74072265625,-0.3119742274284363,-2.694108486175537
1413393213255760500,0.0032545775175094604,0.0324615016579628,0.0729055255651474,9.560548782348633,-0.32272496819496155,-2.7090649604797363
1413393213260760500,0.01655372977256775,0.04580150544643402,0.07780766487121582,9.057134628295898,-0.20785704255104065,-2.4479012489318848
1413393213265760500,0.013762317597866058,0.01869221404194832,0.08625148236751556,8.903464317321777,0.19504794478416443,-2.418201208114624
1413393213270760500,0.003961246460676193,0.005990941077470779,0.09387458860874176,9.63625431060791,0.14620645344257355,-2.7403857707977295
1413393213275760500,-0.010064570233225822,0.021229363977909088,0.08329487591981888,9.83820629119873,0.004607238341122866,-2.907627820968628
1413393213280760500,-0.01575065217912197,0.030451908707618713,0.07986478507518768,9.292312622070312,-0.12584778666496277,-2.597194194793701
1413393213285760500,-0.015771469101309776,0.016660701483488083,0.08069943636655807,9.131906509399414,-0.1730094999074936,-2.6093926429748535
1413393213290760500,-0.0037894733250141144,0.01586630567908287,0.08417142182588577,9.530280113220215,-0.25514155626296997,-2.6921322345733643
1413393213295760500,0.005320247262716293,0.02201291173696518,0.08062546700239182,9.650532722473145,-0.33047690987586975,-2.7336626052856445
1413393213300760500,0.013761766254901886,0.04924338310956955,0.07850655913352966,9.48011589050293,-0.14250493049621582,-2.5716841220855713
1413393213305760500,0.012332618236541748,0.02284664660692215,0.08829665184020996,8.829573631286621,0.18681325018405914,-2.534240245819092
1413393213310760500,0.002546466886997223,0.0074341148138046265,0.10151301324367523,9.457416534423828,0.1624191552400589,-2.675102472305298
1413393213315760500,-0.01007905974984169,0.01643494889140129,0.08958064019680023,9.781304359436035,0.004471054766327143,-2.8164260387420654
1413393213320760500,-0.015716267749667168,0.03458116948604584,0.08338472992181778,9.381194114685059,-0.12592585384845734,-2.760061740875244
1413393213325760500,-0.0094253309071064,0.017224043607711792,0.08910786360502243,9.29468059539795,-0.22248521447181702,-2.6120336055755615
1413393213330760500,-0.0023853369057178497,0.022941656410694122,0.07983154058456421,9.530832290649414,-0.26374027132987976,-2.7247443199157715
1413393213335760500,0.006718676537275314,0.022158555686473846,0.0727948471903801,9.50347900390625,-0.15888969600200653,-2.6032888889312744
1413393213340760500,0.010997246950864792,0.03721867501735687,0.07015878707170486,9.700636863708496,-0.125254288315773,-2.839667797088623
1413393213345760500,0.011699281632900238,0.03735294193029404,0.07654603570699692,9.081181526184082,0.12860530614852905,-2.5712594985961914
1413393213350760500,0.003228209912776947,0.017376985400915146,0.08406055718660355,8.951427459716797,0.27657532691955566,-2.5335452556610107
1413393213355760500,-0.00869675911962986,0.012356322258710861,0.08753263205289841,9.530768394470215,0.08785096555948257,-2.732942819595337
1413393213360760500,-0.019256656989455223,0.02607259526848793,0.08489230275154114,9.675832748413086,-0.1835528314113617,-2.8084521293640137
1413393213365760500,-0.01017042063176632,0.02068318799138069,0.08555859327316284,9.236109733581543,-0.3871515095233917,-2.6375315189361572
1413393213370760500,-0.0037769675254821777,0.01736912503838539,0.07836771756410599,9.352189064025879,-0.20631514489650726,-2.6681711673736572
1413393213375760500,0.009606979787349701,0.022173047065734863,0.07985848933458328,9.513201713562012,-0.09996390342712402,-2.6353096961975098
1413393213380760500,0.008918225765228271,0.026126906275749207,0.07929140329360962,9.837825775146484,-0.052014656364917755,-2.880910873413086
1413393213385760500,0.004667177796363831,0.0422159880399704,0.07573451101779938,9.471250534057617,0.03766067326068878,-2.638315200805664
1413393213390760500,-0.004507731646299362,0.028466951102018356,0.08407960087060928,8.918356895446777,0.21118666231632233,-2.5014827251434326
1413393213395760500,-0.010149938985705376,0.009590979665517807,0.09112947434186935,9.286559104919434,-0.04989372938871384,-2.551994800567627
1413393213400760500,-0.016400177031755447,0.021280094981193542,0.08616271615028381,9.67630672454834,-0.20806851983070374,-2.7657012939453125
1413393213405760500,-0.010114053264260292,0.026929590851068497,0.08478406816720963,9.390094757080078,-0.28113070130348206,-2.6455235481262207
1413393213410760500,-0.0010287798941135406,0.01658128947019577,0.08202296495437622,9.433213233947754,-0.3041395843029022,-2.587293863296509
1413393213415760500,0.012337788939476013,0.024988777935504913,0.07989825308322906,9.44846248626709,-0.19871459901332855,-2.528980255126953
1413393213420760500,0.008854329586029053,0.01784878969192505,0.0826883465051651,9.536327362060547,-0.019100245088338852,-2.7482481002807617
1413393213425760500,0.006821490824222565,0.03662106394767761,0.07359939068555832,9.455534934997559,0.10457082837820053,-2.8244428634643555
1413393213430760500,-0.005214959383010864,0.02694806456565857,0.08488351106643677,8.991700172424316,0.16986456513404846,-2.536823034286499
1413393213435760500,-0.006608188152313232,0.011671029031276703,0.09746155142784119,9.33549690246582,-0.026661261916160583,-2.617204427719116
1413393213440760500,-0.011536162346601486,0.02002420276403427,0.09451030939817429,9.758292198181152,-0.17514504492282867,-2.75038480758667
1413393213445760500,-0.009461168199777603,0.026975929737091064,0.09105454385280609,9.292011260986328,-0.28064629435539246,-2.6606292724609375
1413393213450760500,0.0038595572113990784,0.012314766645431519,0.09393300116062164,9.163756370544434,-0.3210814297199249,-2.554619073867798
1413393213455760500,0.008819002658128738,0.01652776077389717,0.08121684938669205,9.433013916015625,-0.15005137026309967,-2.610532522201538
1413393213460760500,0.010329429060220718,0.01860969513654709,0.08254636824131012,9.593631744384766,0.03847646340727806,-2.8640403747558594
1413393213465760500,0.0011348947882652283,0.0332106277346611,0.07506951689720154,9.593810081481934,0.08774574846029282,-2.7037065029144287
1413393213470760500,-0.005103733390569687,0.03531821817159653,0.07368429005146027,9.399240493774414,0.16897770762443542,-2.676082134246826
1413393213475760500,-0.010085729882121086,0.031969182193279266,0.08415474742650986,9.105406761169434,0.1448693573474884,-2.4460673332214355
1413393213480760500,-0.014318905770778656,0.019274376332759857,0.09246979653835297,9.709339141845703,-0.17408797144889832,-2.7721903324127197
1413393213485760500,-0.008743971586227417,0.040811508893966675,0.08269692212343216,9.626422882080078,-0.36378541588783264,-2.6461093425750732
1413393213490760500,0.001768156886100769,0.019988663494586945,0.08480782806873322,9.178545951843262,-0.3381699025630951,-2.5203144550323486
1413393213495760500,0.010317914187908173,0.016529567539691925,0.07983909547328949,9.392969131469727,-0.10780730098485947,-2.7657485008239746
1413393213500760500,0.00951693207025528,0.015121515840291977,0.07848821580410004,9.333724021911621,-0.010088466107845306,-2.5869383811950684
1413393213505760500,-0.00021132826805114746,0.022691834717988968,0.07499545067548752,9.65106201171875,0.10340577363967896,-2.8962016105651855
1413393213510760500,-0.005100999027490616,0.03953193128108978,0.07300000637769699,9.398838996887207,0.19390644133090973,-2.6462087631225586
1413393213515760500,-0.011468170210719109,0.02353830635547638,0.08209151029586792,9.252819061279297,0.08873311430215836,-2.6737825870513916
1413393213520760500,-0.013632500544190407,0.01933193951845169,0.08828332275152206,9.391705513000488,-0.10068433731794357,-2.611328601837158
1413393213525760500,-0.011541992425918579,0.024794548749923706,0.09380457550287247,9.684697151184082,-0.42006751894950867,-2.8640191555023193
1413393213530760500,-0.004571348428726196,0.03820675611495972,0.08346796035766602,9.186402320861816,-0.39557936787605286,-2.4990234375
1413393213535760500,0.013070143759250641,-0.0002041049301624298,0.09598901867866516,9.196619987487793,-0.21424053609371185,-2.5846657752990723
1413393213540760500,0.015910282731056213,0.024219393730163574,0.08402813225984573,9.47353744506836,-0.0343700610101223,-2.6607463359832764
1413393213545760500,0.0025293156504631042,0.017215371131896973,0.07979040592908859,9.35714054107666,0.17735296487808228,-2.6590352058410645
1413393213550760500,-0.008634265512228012,0.02963036298751831,0.07147979736328125,9.749917030334473,0.12057376652956009,-2.9801559448242188
1413393213555760500,-0.011495977640151978,0.03187490254640579,0.07933218032121658,9.243847846984863,0.06333409994840622,-2.5478901863098145
1413393213560760500,-0.0135333351790905,0.025698862969875336,0.08834610134363174,9.464426040649414,-0.03499260172247887,-2.7796471118927
1413393213565760500,-0.012979000806808472,0.02912335842847824,0.08621271699666977,9.456045150756836,-0.23171983659267426,-2.5474610328674316
1413393213570760500,-0.00733531080186367,0.030294835567474365,0.08125539124011993,9.537589073181152,-0.4363940954208374,-2.7725024223327637
1413393213575760500,0.012345999479293823,0.026351936161518097,0.08905598521232605,9.048574447631836,-0.30592960119247437,-2.433082342147827
1413393213580760500,0.020877324044704437,0.008166197687387466,0.08817638456821442,9.498332023620605,0.022724667564034462,-2.771801233291626
1413393213585760500,0.008818894624710083,0.029016200453042984,0.08123341202735901,9.44762897491455,0.08848930150270462,-2.6457953453063965
1413393213590760500,-0.0023558028042316437,0.01781119778752327,0.07643570750951767,9.602200508117676,0.09522955864667892,-2.953615188598633
1413393213595760500,-0.007943479344248772,0.02833334356546402,0.08490452170372009,9.358000755310059,0.18510961532592773,-2.6633341312408447
1413393213600760500,-0.017105810344219208,0.015807587653398514,0.08685607463121414,9.47278118133545,0.007199952378869057,-2.804978132247925
1413393213605760500,-0.01643858663737774,0.036097653210163116,0.09029685705900192,9.63528823852539,-0.16640427708625793,-2.751817464828491
1413393213610760500,-0.008731938898563385,0.02845849096775055,0.0883946642279625,9.259830474853516,-0.32237619161605835,-2.6103129386901855
1413393213615760500,0.0032530948519706726,0.02837492525577545,0.08695078641176224,9.14732837677002,-0.28887853026390076,-2.512406826019287
1413393213620760500,0.012994293123483658,0.005322612822055817,0.08256077766418457,9.368014335632324,-0.2719484567642212,-2.5286197662353516
1413393213625760500,0.013178382068872452,0.025489233434200287,0.07763765007257462,9.814581871032715,0.07877028733491898,-2.872542381286621
1413393213630760500,0.0011492446064949036,0.024909943342208862,0.07654128968715668,9.210373878479004,0.11326567083597183,-2.629523515701294
1413393213635760500,-0.00795811228454113,0.014385167509317398,0.0772029310464859,9.416390419006348,0.12061796337366104,-2.7981655597686768
1413393213640760500,-0.010176047682762146,0.028490696102380753,0.07993054389953613,9.27719497680664,-0.08422930538654327,-2.5220413208007812
1413393213645760500,-0.014227163046598434,0.026291973888874054,0.08685574680566788,9.610572814941406,-0.03505236655473709,-2.9347269535064697
1413393213650760500,-0.012333506718277931,0.029040616005659103,0.08207010477781296,9.2931489944458,-0.31234726309776306,-2.499875068664551
1413393213655760500,-0.0023951157927513123,0.029752179980278015,0.08616814017295837,9.343399047851562,-0.2894633412361145,-2.689725399017334
1413393213660760500,0.010916538536548615,0.023661747574806213,0.08555592596530914,9.14687442779541,-0.25638315081596375,-2.3916566371917725
1413393213665760500,0.011764638125896454,0.01436377689242363,0.08260682970285416,9.676647186279297,-0.034734830260276794,-2.918574094772339
1413393213670760500,0.006726071238517761,0.03171972930431366,0.0813148096203804,9.357129096984863,0.07157375663518906,-2.5171892642974854
1413393213675760500,-0.002373185008764267,0.01298924908041954,0.07920345664024353,9.391091346740723,0.06310152262449265,-2.7718770503997803
1413393213680760500,-0.008680600672960281,0.03264402598142624,0.07849349081516266,9.464916229248047,0.038253191858530045,-2.662418842315674
1413393213685760500,-0.010757358744740486,0.014397263526916504,0.08475130796432495,9.504864692687988,-0.07550683617591858,-3.0258681774139404
1413393213690760500,-0.008035354316234589,0.03737930953502655,0.08904433250427246,9.610363006591797,-0.18268254399299622,-2.60748028755188
1413393213695760500,-0.006622988730669022,0.02561713010072708,0.08341401815414429,9.448151588439941,-0.2646254301071167,-2.7070181369781494
1413393213700760500,0.005297325551509857,0.03399284929037094,0.08406246453523636,9.301148414611816,-0.24011525511741638,-2.5058388710021973
1413393213705760500,0.010968506336212158,0.005991891026496887,0.08827219158411026,9.391204833984375,-0.07611086964607239,-2.6576240062713623
1413393213710760500,0.008955299854278564,0.029642008244991302,0.08828138560056686,9.545294761657715,0.12846362590789795,-2.7021706104278564
1413393213715760500,-0.004580669105052948,0.013706803321838379,0.08484949171543121,9.219155311584473,0.038860928267240524,-2.504544496536255
1413393213720760500,-0.007944688200950623,0.023486275225877762,0.08126682788133621,9.604145050048828,-0.027511227875947952,-2.8799095153808594
1413393213725760500,-0.005222629755735397,0.022909533232450485,0.08695004880428314,9.243938446044922,-0.11712073534727097,-2.506791830062866
1413393213730760500,-0.0072373561561107635,0.019984174519777298,0.08472026884555817,9.464539527893066,-0.0508560985326767,-2.861274003982544
1413393213735760500,-0.004555974155664444,0.02555045112967491,0.07848293334245682,9.26932144165039,-0.15746408700942993,-2.5726847648620605
1413393213740760500,-0.0002631768584251404,0.026223503053188324,0.07642798125743866,9.563007354736328,-0.21574923396110535,-2.81300950050354
1413393213745760500,0.011693622916936874,0.02924029529094696,0.08208727091550827,9.113710403442383,-0.06834234297275543,-2.5226731300354004
1413393213750760500,0.006806410849094391,0.01578950136899948,0.08684127032756805,9.554676055908203,0.08828314393758774,-2.812972068786621
1413393213755760500,-0.001704346388578415,0.02617330104112625,0.08483045548200607,9.260053634643555,0.14513248205184937,-2.4902424812316895
1413393213760760500,-0.010136563330888748,0.015050925314426422,0.07991843670606613,9.529656410217285,-0.12544555962085724,-2.7643566131591797
1413393213765760500,-0.005230169743299484,0.030531711876392365,0.08271688222885132,9.309510231018066,-0.1916319578886032,-2.4992778301239014
1413393213770760500,-0.004489704966545105,0.018640607595443726,0.08262293040752411,9.44846248626709,-0.18159660696983337,-2.7637815475463867
1413393213775760500,-0.004507720470428467,0.030487075448036194,0.07710009813308716,9.47253704071045,-0.09157611429691315,-2.613368272781372
1413393213780760500,-0.001711580902338028,0.019283179193735123,0.07652200013399124,9.35002326965332,-0.17405205965042114,-2.642284631729126
1413393213785760500,0.008170146495103836,0.03322683274745941,0.07575751841068268,9.342594146728516,-0.19113926589488983,-2.6605942249298096
1413393213790760500,0.005391936749219894,0.017933528870344162,0.0840289443731308,9.244622230529785,0.07170572876930237,-2.7488346099853516
1413393213795760500,-0.004424579441547394,0.02694941684603691,0.08686647564172745,9.48862075805664,0.21166124939918518,-2.725729465484619
1413393213800760500,-0.006643183529376984,0.02422364056110382,0.08767634630203247,9.341897010803223,-0.132748544216156,-2.570540189743042
1413393213805760500,-0.012196183204650879,0.022700171917676926,0.08267809450626373,9.741937637329102,-0.20114363729953766,-2.774707317352295
1413393213810760500,-0.003790542483329773,0.02067522332072258,0.08754545450210571,9.325027465820312,-0.14954526722431183,-2.5875957012176514
1413393213815760500,0.0011274442076683044,0.022055089473724365,0.08755730092525482,9.545829772949219,-0.20510177314281464,-2.7574820518493652
1413393213820760500,0.00461447611451149,0.025607630610466003,0.07922997325658798,9.480378150939941,-0.1915871649980545,-2.5560250282287598
1413393213825760500,0.0046534910798072815,0.027651958167552948,0.07707727700471878,9.618720054626465,-0.10163595527410507,-2.805640459060669
1413393213830760500,0.0046041980385780334,0.03399468958377838,0.0778299868106842,9.26807975769043,0.055465519428253174,-2.5226337909698486
1413393213835760500,-0.007310362532734871,0.01786692813038826,0.08058508485555649,9.358726501464844,0.11276864260435104,-2.5753870010375977
1413393213840760500,-0.0037348344922065735,0.028272446244955063,0.08622753620147705,9.464505195617676,0.00543599808588624,-2.63521671295166
1413393213845760500,-0.008010242134332657,0.02207518368959427,0.08210207521915436,9.37449836730957,-0.1583673506975174,-2.691749334335327
1413393213850760500,-0.005854494869709015,0.0312236025929451,0.08620335161685944,9.456805229187012,-0.133686363697052,-2.734260320663452
1413393213855760500,-0.0031671635806560516,0.015869110822677612,0.08264188468456268,9.32662582397461,-0.25500577688217163,-2.668684720993042
1413393213860760500,-0.0009557642042636871,0.0178142748773098,0.07417173683643341,9.611754417419434,-0.20718806982040405,-2.856485605239868
1413393213865760500,0.00893014669418335,0.023457448929548264,0.07575592398643494,9.38249397277832,-0.08470625430345535,-2.6781420707702637
1413393213870760500,0.011748328804969788,0.024140924215316772,0.08141909539699554,9.341877937316895,0.14525197446346283,-2.6752710342407227
1413393213875760500,-0.0009853392839431763,0.02070128172636032,0.08133555948734283,9.374988555908203,0.16173847019672394,-2.594514846801758
1413393213880760500,-0.010850613936781883,0.015135016292333603,0.08545950800180435,9.431668281555176,0.05448632687330246,-2.7403719425201416
1413393213885760500,-0.01159466989338398,0.02000301331281662,0.09114614129066467,9.309393882751465,-0.17463456094264984,-2.579770565032959
1413393213890760500,-0.007279330864548683,0.014368318021297455,0.09180703014135361,9.302190780639648,-0.1907179355621338,-2.659179210662842
1413393213895760500,-0.0017083995044231415,0.0221429280936718,0.0861029252409935,9.440722465515137,-0.32070907950401306,-2.6695330142974854
1413393213900760500,0.0038840360939502716,0.013100560754537582,0.0868682861328125,9.553839683532715,-0.2728393077850342,-2.6362760066986084
1413393213905760500,0.012364357709884644,0.0220465250313282,0.07357939332723618,9.782135963439941,-0.26449134945869446,-2.7677581310272217
1413393213910760500,0.012395691126585007,0.03321462124586105,0.0735342800617218,9.29996395111084,0.18568311631679535,-2.5537967681884766
1413393213915760500,0.005359165370464325,0.01714545115828514,0.08059864491224289,9.431732177734375,0.16328580677509308,-2.8292922973632812
1413393213920760500,-0.014374591410160065,0.02204854041337967,0.08495146781206131,9.455809593200684,0.103481225669384,-2.6205854415893555
1413393213925760500,-0.016485115513205528,0.022113528102636337,0.09259481728076935,9.349411964416504,-0.1341511607170105,-2.5599632263183594
1413393213930760500,-0.017167504876852036,0.027060210704803467,0.08757685869932175,9.253576278686523,-0.2883354127407074,-2.6676554679870605
1413393213935760500,-0.0023948363959789276,0.015129566192626953,0.08819985389709473,9.34384536743164,-0.44324472546577454,-2.6931443214416504
1413393213940760500,0.012354902923107147,0.009482979774475098,0.08896471560001373,9.391275405883789,-0.3221045732498169,-2.620183229446411
1413393213945760500,0.01946001499891281,0.012220200151205063,0.07841144502162933,9.765982627868652,-0.07625456154346466,-2.8081862926483154
1413393213950760500,0.01384299248456955,0.03252890706062317,0.06936196237802505,9.495787620544434,0.2759382426738739,-2.7918927669525146
1413393213955760500,-0.00033785030245780945,0.008789338171482086,0.07929516583681107,9.104503631591797,0.447978138923645,-2.495096206665039
1413393213960760500,-0.017854996025562286,0.001694798469543457,0.08066818118095398,9.692967414855957,0.2663610875606537,-2.543957471847534
1413393213965760500,-0.030441395938396454,0.010869242250919342,0.07429981976747513,9.519973754882812,0.11846219003200531,-2.5682430267333984
1413393213970760500,-0.03474036604166031,0.0017941445112228394,0.07509225606918335,9.513004302978516,-0.28935685753822327,-2.577688455581665
1413393213975760500,-0.021421676501631737,-0.007204689085483551,0.0632297545671463,9.498870849609375,-0.6246717572212219,-2.5549850463867188
1413393213980760500,0.027078628540039062,0.012542206794023514,0.06161332130432129,9.725528717041016,-1.0012211799621582,-2.554692268371582
1413393213985760500,0.07425875961780548,0.012515880167484283,0.06513643264770508,9.634732246398926,-0.6083669662475586,-2.7505109310150146
1413393213990760500,0.087566077709198,0.03593209385871887,0.08210296928882599,9.389514923095703,0.33475422859191895,-2.8238260746002197
1413393213995760500,0.036809518933296204,0.040617816150188446,0.1056460365653038,9.25668716430664,1.5778590440750122,-2.961334228515625
1413393214000760500,-0.052512139081954956,0.049219317734241486,0.13412249088287354,9.33678913116455,1.7721381187438965,-2.99428653717041
1413393214005760500,-0.12991294264793396,0.04810424894094467,0.1303136646747589,8.64834213256836,0.46293359994888306,-2.420327663421631
1413393214010760500,-0.12261908501386642,0.01877809315919876,0.1205071210861206,8.685500144958496,-1.3214486837387085,-2.3297955989837646
1413393214015760500,-0.03430796414613724,-0.004598081111907959,0.10770014673471451,9.039258003234863,-2.5016565322875977,-2.4509811401367188
1413393214020760500,0.061441101133823395,-0.027774356305599213,0.07071281969547272,9.557686805725098,-1.6941735744476318,-2.88381290435791
1413393214025760500,0.12513114511966705,0.009384267032146454,0.04310571774840355,10.076351165771484,-0.06487845629453659,-2.9460177421569824
1413393214030760500,0.08515240252017975,0.046029120683670044,0.030679084360599518,9.215977668762207,1.2438454627990723,-2.5801708698272705
1413393214035760500,0.0014244168996810913,0.03757166117429733,0.041179947555065155,9.402227401733398,1.8201767206192017,-2.7316317558288574
1413393214040760500,-0.06350201368331909,0.05125546455383301,0.08076164871454239,9.533933639526367,1.078632116317749,-2.7803595066070557
1413393214045760500,-0.09333758056163788,0.04912785440683365,0.1019429862499237,9.543601989746094,0.1780383437871933,-2.8947300910949707
1413393214050760500,-0.07447808980941772,0.05271817743778229,0.1128806546330452,9.694159507751465,-0.6907621622085571,-2.8574142456054688
1413393214055760500,-0.029337547719478607,0.06798665225505829,0.1036578118801117,9.260780334472656,-1.4181108474731445,-2.3742001056671143
1413393214060760500,0.026098914444446564,0.013507001101970673,0.09226229786872864,9.104720115661621,-1.200068473815918,-2.224259376525879
1413393214065760500,0.07270503789186478,0.013504981994628906,0.08326425403356552,9.447654724121094,-0.3718123137950897,-2.4462876319885254
1413393214070760500,0.06944696605205536,0.002544976770877838,0.08418679982423782,9.57624340057373,0.5070922374725342,-2.807098388671875
1413393214075760500,0.03022979199886322,0.0027479790151119232,0.08407057821750641,9.681864738464355,0.9313461184501648,-3.022770404815674
1413393214080760500,-0.01570776104927063,0.027202002704143524,0.07691960036754608,9.512568473815918,0.374517560005188,-2.687209367752075
1413393214085760500,-0.05254894495010376,0.0007339343428611755,0.07193039357662201,9.333291053771973,0.013655346818268299,-2.40386962890625
1413393214090760500,-0.03484754636883736,0.0039617568254470825,0.08894668519496918,9.121859550476074,-0.025013642385601997,-2.548077344894409
1413393214095760500,-0.02927238866686821,-0.0060508716851472855,0.09628503024578094,9.441299438476562,-0.2695675492286682,-2.7725298404693604
1413393214100760500,-0.017171749845147133,0.008821167051792145,0.0948006808757782,9.75943660736084,-0.3561922609806061,-2.9970853328704834
1413393214105760500,-0.001815691590309143,0.04158162325620651,0.06946446001529694,9.456188201904297,-0.561643660068512,-2.5337696075439453
1413393214110760500,0.01664101332426071,0.034519411623477936,0.05736544728279114,9.163276672363281,-0.5917161703109741,-2.372786045074463
1413393214115760500,0.033061809837818146,0.025615647435188293,0.0714554488658905,8.674457550048828,-0.10785406082868576,-2.534237861633301
1413393214120760500,0.03374160826206207,-0.0014636795967817307,0.09473738819360733,9.408061027526855,0.1389545053243637,-2.880944013595581
1413393214125760500,0.016118139028549194,0.04339490830898285,0.08840475231409073,9.985800743103027,0.3419056236743927,-3.1626291275024414
1413393214130760500,-0.007557246834039688,0.06440381705760956,0.07912363857030869,8.982002258300781,0.28471845388412476,-2.5725951194763184
1413393214135760500,-0.03385283797979355,0.022425666451454163,0.05926699563860893,9.320843696594238,-0.23790916800498962,-2.5838568210601807
1413393214140760500,-0.0384063757956028,0.028346803039312363,0.07341168075799942,9.049585342407227,0.004994204267859459,-2.6000514030456543
1413393214145760500,-0.02332516573369503,0.006994433701038361,0.09919710457324982,9.520434379577637,-0.24714940786361694,-2.8389525413513184
1413393214150760500,-0.010552803054451942,0.04196628928184509,0.09858474135398865,9.970969200134277,-0.48597320914268494,-3.032935619354248
1413393214155760500,0.009635873138904572,0.03778991103172302,0.08768809586763382,9.09646224975586,-0.495728999376297,-2.476264476776123
1413393214160760500,0.026397094130516052,0.0063902512192726135,0.07790225744247437,9.563475608825684,-0.6475877165794373,-2.651717185974121
1413393214165760500,0.036406874656677246,0.02556634321808815,0.07016187906265259,9.496111869812012,-0.026158545166254044,-2.718445062637329
1413393214170760500,0.03422488272190094,0.011738035827875137,0.1065598651766777,9.207917213439941,0.4732658863067627,-2.6503796577453613
1413393214175760500,0.013796310871839523,0.025932416319847107,0.1224580705165863,9.994606018066406,0.41575801372528076,-3.0860824584960938
1413393214180760500,-0.016023654490709305,0.03929512947797775,0.10393624007701874,9.079559326171875,0.2738710641860962,-2.4734625816345215
1413393214185760500,-0.025277193635702133,0.015409797430038452,0.08992874622344971,9.456209182739258,-0.20811840891838074,-2.427130937576294
1413393214190760500,-0.0285650584846735,0.024703744798898697,0.06812307983636856,9.587793350219727,-0.22414538264274597,-2.5687055587768555
1413393214195760500,-0.017077839002013206,0.007830046117305756,0.08061818033456802,8.90804672241211,0.0292530357837677,-2.4277474880218506
1413393214200760500,0.0013466104865074158,0.012933675199747086,0.09937474131584167,9.580485343933105,-0.14213094115257263,-2.781977653503418
1413393214205760500,0.0025550276041030884,0.030156973749399185,0.07480078935623169,9.375103950500488,-0.3159700036048889,-2.409482479095459
1413393214210760500,0.012444045394659042,0.016673840582370758,0.06498759239912033,9.390646934509277,-0.28998756408691406,-2.6569156646728516
1413393214215760500,0.020090598613023758,0.019260168075561523,0.04855892062187195,9.392646789550781,-0.253906786441803,-2.547130584716797
1413393214220760500,0.018155958503484726,0.03170282393693924,0.059995971620082855,9.406947135925293,0.23543477058410645,-2.632673978805542
1413393214225760500,0.009745635092258453,0.028232872486114502,0.09575466811656952,9.446263313293457,0.6769201755523682,-2.8874425888061523
1413393214230760500,-0.017236676067113876,0.038208626210689545,0.09738168120384216,9.512655258178711,0.31808504462242126,-2.7995550632476807
1413393214235760500,-0.03983209654688835,0.04251375049352646,0.07285710424184799,9.505697250366211,-0.24060511589050293,-2.8403267860412598
1413393214240760500,-0.03981214761734009,0.029950685799121857,0.0633162334561348,9.090005874633789,-0.43694618344306946,-2.505728006362915
1413393214245760500,-0.02478110045194626,0.019832678139209747,0.05853930115699768,9.523314476013184,-0.5811857581138611,-2.707911729812622
1413393214250760500,0.0021845661103725433,0.031036950647830963,0.07457385212182999,9.334062576293945,-0.26421263813972473,-2.678388833999634
1413393214255760500,0.027355782687664032,0.014478988945484161,0.11423096060752869,9.129626274108887,-0.19858919084072113,-2.660916566848755
1413393214260760500,0.02012031152844429,0.02138952538371086,0.09693961590528488,9.580235481262207,-0.25497865676879883,-2.891731023788452
1413393214265760500,0.005851712077856064,0.025585584342479706,0.06729833781719208,9.505099296569824,-0.2385534942150116,-2.68782639503479
1413393214270760500,0.009443476796150208,0.005308963358402252,0.07776454836130142,9.218945503234863,-0.04122747480869293,-2.635058641433716
1413393214275760500,-0.0037877261638641357,0.019232135266065598,0.06731362640857697,9.278226852416992,0.06530100852251053,-2.6922082901000977
1413393214280760500,-0.009363485500216484,0.029795296490192413,0.09652478992938995,9.537873268127441,0.14455737173557281,-2.8718643188476562
1413393214285760500,-0.010935422033071518,0.027156278491020203,0.12685531377792358,9.381360054016113,0.07062847167253494,-2.702198028564453
1413393214290760500,-0.02012009732425213,0.034761324524879456,0.11006692051887512,9.382918357849121,-0.21538659930229187,-2.5784220695495605
1413393214295760500,-0.02296445518732071,0.02768968790769577,0.07135078310966492,9.383831977844238,-0.43726906180381775,-2.504481792449951
1413393214300760500,-0.0016981475055217743,0.021403808146715164,0.06657136976718903,9.27684497833252,-0.4699803292751312,-2.503547191619873
1413393214305760500,0.014114491641521454,0.013559099286794662,0.06753171980381012,9.47297477722168,-0.19915416836738586,-2.815298080444336
1413393214310760500,0.02604532241821289,0.026912078261375427,0.09315743297338486,9.700654029846191,0.038404934108257294,-2.9405717849731445
1413393214315760500,0.02724241465330124,0.04742742329835892,0.11322963237762451,9.283004760742188,0.4552905857563019,-2.848640203475952
1413393214320760500,0.0037458352744579315,0.03117845207452774,0.09522491693496704,9.031878471374512,0.3252717852592468,-2.4301059246063232
1413393214325760500,-0.017339449375867844,0.004946961998939514,0.06787535548210144,9.702044486999512,0.0699722021818161,-2.705716371536255
1413393214330760500,-0.022143492475152016,0.026785973459482193,0.05753230303525925,9.593748092651367,-0.020648540928959846,-2.6766085624694824
1413393214335760500,-0.02761995978653431,0.01800178363919258,0.06843248009681702,9.1296968460083,-0.0023720921017229557,-2.5766656398773193
1413393214340760500,-0.017670953646302223,0.01095706969499588,0.0948636531829834,9.605155944824219,-0.11718267947435379,-2.783344030380249
1413393214345760500,-0.00015208125114440918,0.04465649276971817,0.10769343376159668,9.707732200622559,-0.20925769209861755,-2.6864278316497803
1413393214350760500,0.010997503995895386,0.0433369055390358,0.09011832624673843,9.14353084564209,-0.22423066198825836,-2.3655502796173096
1413393214355760500,0.013079807162284851,0.007761720567941666,0.057282160967588425,9.572190284729004,-0.17357181012630463,-2.64264178276062
1413393214360760500,0.00460704043507576,0.016058318316936493,0.039387382566928864,9.620305061340332,-0.14859865605831146,-2.717813491821289
1413393214365760500,0.0019134730100631714,0.02438947558403015,0.0558050312101841,9.308388710021973,-0.0015191342681646347,-2.7407960891723633
1413393214370760500,-0.005104243755340576,0.010473378002643585,0.08578165620565414,9.359292030334473,0.13000942766666412,-2.8566927909851074
1413393214375760500,-0.0023581497371196747,0.04792370647192001,0.10562291741371155,9.831916809082031,-0.09099548310041428,-2.8820793628692627
1413393214380760500,-0.0011261403560638428,0.04752179980278015,0.0985778272151947,8.956876754760742,-0.08403333276510239,-2.4714784622192383
1413393214385760500,-0.005377285182476044,0.010844551026821136,0.09035831689834595,8.951915740966797,-0.02651890367269516,-2.4115231037139893
1413393214390760500,-0.01665753871202469,0.00474131852388382,0.06323208659887314,9.573734283447266,-0.3203873038291931,-2.634247064590454
1413393214395760500,-0.013597618788480759,0.014336127787828445,0.06602227687835693,9.51307201385498,-0.28155460953712463,-2.8651092052459717
1413393214400760500,-0.002187110483646393,0.025395575910806656,0.0863463282585144,9.195442199707031,-0.17406876385211945,-2.7124428749084473
1413393214405760500,0.01048208400607109,0.023645862936973572,0.11052370071411133,9.751977920532227,-0.3278065323829651,-2.9646897315979004
1413393214410760500,0.019458603113889694,0.04660964757204056,0.1034659594297409,9.331833839416504,-0.07698997110128403,-2.5810129642486572
1413393214415760500,0.022179726511240005,0.03106975555419922,0.09101051837205887,9.209718704223633,0.21042375266551971,-2.558692693710327
1413393214420760500,0.0072466544806957245,0.011087972670793533,0.08220802247524261,9.20456314086914,0.15451960265636444,-2.478813886642456
1413393214425760500,-0.01591821387410164,0.008528534322977066,0.06514178216457367,9.767170906066895,-0.011808953247964382,-2.878682851791382
1413393214430760500,-0.020581694319844246,0.030153028666973114,0.07677901536226273,9.699835777282715,0.06139281764626503,-2.9408013820648193
1413393214435760500,-0.019836435094475746,0.04207949340343475,0.096050925552845,9.218841552734375,-0.050642747431993484,-2.5879220962524414
1413393214440760500,-0.005071625113487244,0.028333142399787903,0.10248254239559174,9.44910717010498,-0.3217942714691162,-2.7578301429748535
1413393214445760500,0.010274242609739304,0.031682781875133514,0.09056845307350159,9.471529006958008,-0.2748085558414459,-2.620516538619995
1413393214450760500,0.015226535499095917,0.03796864300966263,0.07862024009227753,9.209954261779785,0.07902468740940094,-2.486130475997925
1413393214455760500,0.0045664869248867035,0.0008925832808017731,0.06649679690599442,9.156566619873047,0.016170943155884743,-2.650216579437256
1413393214460760500,-0.00453224778175354,0.00105193629860878,0.05628880485892296,9.662264823913574,-0.07688895612955093,-2.807898998260498
1413393214465760500,-0.011368809267878532,0.03436185419559479,0.06978398561477661,9.626654624938965,-0.0115388548001647,-2.8901164531707764
1413393214470760500,-0.0064940303564071655,0.03147777169942856,0.09796514362096786,9.071731567382812,0.04012191668152809,-2.481452465057373
1413393214475760500,-0.009380517527461052,0.021850071847438812,0.10090528428554535,9.555352210998535,-0.05863958224654198,-2.7152795791625977
1413393214480760500,-0.00029783695936203003,0.03586040437221527,0.09197154641151428,9.544975280761719,-0.08558672666549683,-2.603550672531128
1413393214485760500,-0.0018110647797584534,0.029882140457630157,0.08098854124546051,8.989810943603516,-0.04360949248075485,-2.3548598289489746
1413393214490760500,-0.004537355154752731,0.002304553985595703,0.07005041837692261,9.55683422088623,-0.15709374845027924,-2.715860366821289
1413393214495760500,-0.010136829689145088,0.012226589024066925,0.06256414949893951,9.628496170043945,-0.28053948283195496,-2.767970323562622
1413393214500760500,-0.004334285855293274,0.03439722955226898,0.06690347194671631,9.65091323852539,-0.30517056584358215,-2.9557557106018066
1413393214505760500,0.006893467158079147,0.03281909227371216,0.09361784160137177,9.097332000732422,-0.11606981605291367,-2.638476848602295
1413393214510760500,0.011687900871038437,0.029454391449689865,0.10082800686359406,9.546732902526855,-0.1563381850719452,-2.7487833499908447
1413393214515760500,0.015147894620895386,0.03801447153091431,0.08984577655792236,9.446999549865723,0.04649815708398819,-2.6929337978363037
1413393214520760500,0.005860939621925354,0.022082440555095673,0.07959334552288055,9.129101753234863,0.08807899057865143,-2.4866857528686523
1413393214525760500,-0.018010495230555534,0.01418764516711235,0.06803862005472183,9.466954231262207,-0.05879358574748039,-2.7813780307769775
1413393214530760500,-0.020023424178361893,0.00815492495894432,0.07663433998823166,9.4163818359375,-0.1663956642150879,-2.743556499481201
1413393214535760500,-0.01344541646540165,0.03499578684568405,0.09076128900051117,9.634832382202148,-0.15844936668872833,-2.841013193130493
1413393214540760500,-0.007188241928815842,0.027865320444107056,0.10195538401603699,9.08096981048584,-0.23071910440921783,-2.580427408218384
1413393214545760500,0.012403927743434906,0.023237019777297974,0.10490691661834717,9.530498504638672,-0.34644630551338196,-2.733389377593994
1413393214550760500,0.023650072515010834,0.03385389596223831,0.09751762449741364,9.431173324584961,-0.06094031408429146,-2.652869462966919
1413393214555760500,0.016523264348506927,0.024148672819137573,0.08370533585548401,9.153437614440918,0.12933094799518585,-2.4782447814941406
1413393214560760500,-0.0011334195733070374,0.01146794855594635,0.07081756740808487,9.449782371520996,0.06374700367450714,-2.7239813804626465
1413393214565760500,-0.010847853496670723,0.010211773216724396,0.08023620396852493,9.570745468139648,0.004415891598910093,-2.7998485565185547
1413393214570760500,-0.01635470613837242,0.042635656893253326,0.08587072789669037,9.495625495910645,-0.06833259016275406,-2.6773152351379395
1413393214575760500,-0.017158575356006622,0.01942603290081024,0.09118922054767609,9.203585624694824,-0.12436928600072861,-2.5862839221954346
1413393214580760500,0.0018532723188400269,0.03300540894269943,0.09225265681743622,9.725911140441895,-0.23217469453811646,-2.7089736461639404
1413393214585760500,0.004678703844547272,0.041665732860565186,0.07750698924064636,9.389822006225586,-0.1261676698923111,-2.643458604812622
1413393214590760500,0.003160722553730011,0.01584441587328911,0.06574401259422302,8.974883079528809,-0.018542993813753128,-2.4458909034729004
1413393214595760500,-0.0024466924369335175,0.00502440333366394,0.06531558930873871,9.613612174987793,-0.05952289327979088,-2.658823251724243
1413393214600760500,-0.006503406912088394,0.012292850762605667,0.068391352891922,9.553658485412598,-0.06025056168437004,-2.684854507446289
1413393214605760500,-0.007849248126149178,0.0301063172519207,0.0850893035531044,9.544998168945312,-0.19833475351333618,-2.881528615951538
1413393214610760500,-0.005861800163984299,0.020094171166419983,0.08343799412250519,9.285866737365723,-0.100191131234169,-2.6707146167755127
1413393214615760500,0.0011681616306304932,0.03449525684118271,0.09152953326702118,9.692726135253906,-0.1328895539045334,-2.724802017211914
1413393214620760500,0.007481195032596588,0.03467932343482971,0.09299184381961823,9.446388244628906,-0.0024570298846811056,-2.7010252475738525
1413393214625760500,0.003806881606578827,0.033191122114658356,0.08330652117729187,9.121411323547363,-0.026856528595089912,-2.4953277111053467
1413393214630760500,-0.004632152616977692,0.012813683599233627,0.07435527443885803,9.368770599365234,-0.13321392238140106,-2.642242670059204
1413393214635760500,-0.006635431200265884,0.0032492391765117645,0.08572756499052048,9.57905387878418,-0.19906960427761078,-2.7100985050201416
1413393214640760500,-0.00512632355093956,0.034878917038440704,0.08067909628152847,9.659448623657227,-0.27226635813713074,-2.83290958404541
1413393214645760500,-0.0016730353236198425,0.026408735662698746,0.0861223116517067,9.089579582214355,-0.18179009854793549,-2.653674364089966
1413393214650760500,0.006810270249843597,0.017780207097530365,0.08958759903907776,9.482014656066895,-0.09200077503919601,-2.856031656265259
1413393214655760500,0.011682383716106415,0.031077377498149872,0.09102408587932587,9.593945503234863,-0.0026100524701178074,-2.6455705165863037
1413393214660760500,0.005212869495153427,0.03467357158660889,0.08120915293693542,9.087936401367188,-0.018644358962774277,-2.47780442237854
1413393214665760500,-0.0018312670290470123,0.012886855751276016,0.07847677916288376,9.123955726623535,0.030128873884677887,-2.5108697414398193
1413393214670760500,-0.009466851130127907,0.011522218585014343,0.07730291783809662,9.588353157043457,-0.043700724840164185,-2.5933713912963867
1413393214675760500,-0.010067004710435867,0.021611887961626053,0.08845914155244827,9.626250267028809,-0.20728512108325958,-2.7586190700531006
1413393214680760500,-0.012179912999272346,0.027105942368507385,0.0834210067987442,9.390384674072266,-0.09352494031190872,-2.6538290977478027
1413393214685760500,-0.0029655061662197113,0.03382137417793274,0.08680769056081772,9.522355079650879,-0.0839071124792099,-2.815108060836792
1413393214690760500,0.0089234858751297,0.036099761724472046,0.09528538584709167,9.34924030303955,-0.1250605583190918,-2.6121304035186768
1413393214695760500,0.013066649436950684,0.03191375732421875,0.09028907865285873,9.275672912597656,-0.04458627849817276,-2.502704620361328
1413393214700760500,0.001762092113494873,0.02113911882042885,0.07697246968746185,9.261308670043945,0.0875607430934906,-2.567789316177368
1413393214705760500,0.0011020638048648834,0.017033882439136505,0.08138203620910645,9.343032836914062,0.022944627329707146,-2.6422088146209717
1413393214710760500,-0.007984668016433716,0.010328825563192368,0.08916456997394562,9.595274925231934,-0.10923165082931519,-2.8324904441833496
1413393214715760500,-0.01291654258966446,0.026415452361106873,0.07988370209932327,9.545406341552734,-0.08512675017118454,-2.67885160446167
1413393214720760500,-0.017823632806539536,0.02633693441748619,0.07277282327413559,9.431625366210938,-0.07511758804321289,-2.8150031566619873
1413393214725760500,-0.00018491223454475403,0.03043253719806671,0.0876893550157547,9.44778060913086,-0.14120812714099884,-2.6211891174316406
1413393214730760500,0.006835050880908966,0.03320353478193283,0.08973860740661621,9.463944435119629,-0.17477867007255554,-2.724362373352051
1413393214735760500,0.00035538896918296814,0.024103064090013504,0.07344463467597961,9.317293167114258,-0.05183115229010582,-2.5217959880828857
1413393214740760500,-0.0010017789900302887,0.01640523225069046,0.07359462976455688,9.530421257019043,-0.05058730021119118,-2.6827800273895264
1413393214745760500,0.0039522722363471985,0.024277307093143463,0.08015105128288269,9.285146713256836,-0.19820721447467804,-2.571202516555786
1413393214750760500,-0.004449345171451569,0.020150277763605118,0.07635302096605301,9.39976692199707,-0.15811912715435028,-2.814469814300537
1413393214755760500,-0.012940308079123497,0.022100426256656647,0.07348020374774933,9.587117195129395,-0.018235210329294205,-2.785186290740967
1413393214760760500,0.0012239105999469757,0.0331888347864151,0.0913027971982956,9.471508979797363,0.015043480321764946,-2.701056718826294
1413393214765760500,0.004660509526729584,0.03257402777671814,0.09688837081193924,9.186863899230957,-0.10072833299636841,-2.5372958183288574
1413393214770760500,-0.001790415495634079,0.022735510021448135,0.08872273564338684,9.261731147766113,-0.10954515635967255,-2.6415207386016846
1413393214775760500,-0.003900095820426941,0.014970440417528152,0.08041495084762573,9.39133358001709,-0.0023643183521926403,-2.5941519737243652
1413393214780760500,0.005407657474279404,0.015087030827999115,0.09406408667564392,9.480374336242676,-0.11635768413543701,-2.602501392364502
1413393214785760500,0.00042684003710746765,0.020125240087509155,0.08628521859645844,9.261114120483398,-0.21565726399421692,-2.6521849632263184
1413393214790760500,-0.00455845519900322,0.01582339033484459,0.0748138502240181,9.538773536682129,-0.09344884008169174,-2.7505557537078857
1413393214795760500,-0.002315957099199295,0.02912158891558647,0.08135370910167694,9.561579704284668,0.031129878014326096,-2.791644811630249
1413393214800760500,0.0033605359494686127,0.03465656191110611,0.10177898406982422,9.495198249816895,0.046915240585803986,-2.6365931034088135
1413393214805760500,-0.0003191642463207245,0.034573547542095184,0.08674151450395584,9.325736045837402,-0.05224832519888878,-2.617995500564575
1413393214810760500,-0.008838264271616936,0.026217281818389893,0.07618740946054459,9.269137382507324,-0.06028085574507713,-2.5525684356689453
1413393214815760500,-0.005150511860847473,0.017186667770147324,0.07934337854385376,9.44040584564209,-0.14078067243099213,-2.7158524990081787
1413393214820760500,-0.005878731608390808,0.02212952822446823,0.08144379407167435,9.391036033630371,-0.20672914385795593,-2.595952272415161
1413393214825760500,-0.008669663220643997,0.015088021755218506,0.07346849143505096,9.530277252197266,-0.13362398743629456,-2.8070173263549805
1413393214830760500,-0.007199171930551529,0.028401363641023636,0.0715792179107666,9.578568458557129,0.022143976762890816,-2.760437250137329
1413393214835760500,0.001298699527978897,0.027018725872039795,0.0878724604845047,9.544751167297363,0.006354458164423704,-2.7093923091888428
1413393214840760500,0.004738595336675644,0.027586989104747772,0.09102232754230499,9.422844886779785,-0.027237091213464737,-2.7095329761505127
1413393214845760500,-0.0031319111585617065,0.026137661188840866,0.07465088367462158,9.456256866455078,-0.0273453276604414,-2.6760241985321045
1413393214850760500,-0.005259715020656586,0.019956830888986588,0.08418814092874527,9.260282516479492,-0.026675254106521606,-2.4955010414123535
1413393214855760500,0.003947090357542038,0.02005365490913391,0.09277666360139847,9.456964492797852,-0.26372575759887695,-2.675248861312866
1413393214860760500,-0.001057744026184082,0.017306827008724213,0.07913396507501602,9.236580848693848,-0.1752021163702011,-2.537971019744873
1413393214865760500,-0.008046045899391174,0.010878782719373703,0.06989350914955139,9.669081687927246,-0.06750321388244629,-2.8390731811523438
1413393214870760500,-0.00021891668438911438,0.02838212624192238,0.08216442912817001,9.463926315307617,0.031216200441122055,-2.728008270263672
1413393214875760500,0.001928955316543579,0.02909180149435997,0.09052005410194397,9.406632423400879,0.005631164647638798,-2.716762065887451
1413393214880760500,-0.0031037628650665283,0.03328195959329605,0.08252080529928207,9.31794548034668,-0.0111567173153162,-2.6028566360473633
1413393214885760500,-0.01158830150961876,0.029071390628814697,0.07283919304609299,9.407598495483398,-0.0755593329668045,-2.6664416790008545
1413393214890760500,-0.0016595050692558289,0.02484174072742462,0.0850045308470726,9.382915496826172,-0.24749258160591125,-2.570250988006592
1413393214895760500,0.004678506404161453,0.020653583109378815,0.08408250659704208,9.391780853271484,-0.2807665765285492,-2.6513068675994873
1413393214900760500,-0.0002654530107975006,0.010849107056856155,0.06917376816272736,9.530412673950195,-0.043403204530477524,-2.8324427604675293
1413393214905760500,-0.0065776631236076355,0.030528288334608078,0.07866032421588898,9.577900886535645,0.09661678224802017,-2.7351086139678955
1413393214910760500,-0.0037518776953220367,0.028506025671958923,0.08789360523223877,9.406482696533203,-0.10010005533695221,-2.6851911544799805
1413393214915760500,-0.0016017481684684753,0.02618371695280075,0.09374607354402542,9.472366333007812,-0.044782016426324844,-2.717709541320801
1413393214920760500,-0.00939936377108097,0.03104415535926819,0.08460573107004166,9.464094161987305,0.022438257932662964,-2.6594398021698
1413393214925760500,-0.00726311095058918,0.024839505553245544,0.09260407835245132,9.30892562866211,-0.01754847913980484,-2.6101083755493164
1413393214930760500,0.0031723566353321075,0.02000577002763748,0.08979326486587524,9.375555992126465,-0.48527175188064575,-2.562358856201172
1413393214935760500,0.0109025277197361,0.013704903423786163,0.08598990738391876,9.391423225402832,-0.2747320830821991,-2.5370020866394043
1413393214940760500,0.0038906484842300415,0.010226286947727203,0.0742097720503807,9.627401351928711,0.03152899816632271,-2.7656924724578857
1413393214945760500,0.0004101097583770752,0.027735993266105652,0.07797354459762573,9.496439933776855,0.048715490847826004,-2.718749761581421
1413393214950760500,-0.0030387677252292633,0.027686960995197296,0.07925088703632355,9.358174324035645,0.045356158167123795,-2.733421564102173
1413393214955760500,-0.0058379583060741425,0.02835497260093689,0.08539297431707382,9.415560722351074,0.1026027500629425,-2.6927056312561035
1413393214960760500,-0.016485944390296936,0.0206676684319973,0.07715722173452377,9.439815521240234,-0.04996956139802933,-2.658879041671753
1413393214965760500,-0.005217071622610092,0.027617458254098892,0.08420208096504211,9.423604965209961,-0.2970500588417053,-2.5618784427642822
1413393214970760500,0.004630956798791885,0.0172114335000515,0.08129928261041641,9.359240531921387,-0.37179458141326904,-2.585935115814209
1413393214975760500,0.005335476249456406,0.01304558664560318,0.07417723536491394,9.416267395019531,-0.15796580910682678,-2.7169723510742188
1413393214980760500,0.0011339634656906128,0.010944072157144547,0.07713666558265686,9.594717025756836,0.05590736120939255,-2.816335916519165
1413393214985760500,-0.0008930936455726624,0.031884945929050446,0.08076412975788116,9.602060317993164,0.0713043138384819,-2.7518341541290283
1413393214990760500,-0.004426002502441406,0.028401140123605728,0.08976895362138748,9.113165855407715,0.06243067979812622,-2.6023993492126465
1413393214995760500,-0.005847327411174774,0.029701504856348038,0.0896121934056282,9.489791870117188,0.013789854943752289,-2.7244105339050293
1413393215000760500,-0.011545425280928612,0.02276046946644783,0.08754569292068481,9.488591194152832,-0.08375807106494904,-2.611192464828491
1413393215005760500,0.0010965093970298767,0.02623559534549713,0.08404157310724258,9.504695892333984,-0.38684719800949097,-2.643444061279297
1413393215010760500,0.008766453713178635,0.010882578790187836,0.07423485070466995,9.163500785827637,-0.23282292485237122,-2.4804043769836426
1413393215015760500,0.010901205241680145,0.008770406246185303,0.061604373157024384,9.686066627502441,-0.18991157412528992,-2.78963565826416
1413393215020760500,0.010238256305456161,0.01657164841890335,0.0737752914428711,9.528014183044434,0.16105832159519196,-2.572002649307251
1413393215025760500,-0.007276052609086037,0.01794053614139557,0.08012209832668304,9.348945617675781,0.26781344413757324,-2.772149085998535
1413393215030760500,-0.024011384695768356,0.02406969666481018,0.08478620648384094,9.505332946777344,0.44680488109588623,-2.816183567047119
1413393215035760500,-0.04167516529560089,0.017899811267852783,0.08410300314426422,9.309060096740723,0.1696760058403015,-2.650607109069824
1413393215040760500,-0.04858977347612381,0.02286519482731819,0.08133815973997116,9.341803550720215,-0.036305151879787445,-2.5445542335510254
1413393215045760500,-0.04165809229016304,-0.006541889160871506,0.06804246455430984,9.351896286010742,-0.5832246541976929,-2.5040125846862793
1413393215050760500,-0.004411976784467697,0.0031731463968753815,0.0581870898604393,9.694570541381836,-1.090406894683838,-2.677110195159912
1413393215055760500,0.043427228927612305,0.022463414818048477,0.05068475753068924,9.203413963317871,-0.7391353845596313,-2.4739556312561035
1413393215060760500,0.0835556834936142,0.012406501919031143,0.08708059042692184,9.513543128967285,0.008049179799854755,-2.838984251022339
1413393215065760500,0.07971078902482986,0.03586316108703613,0.09741439670324326,9.266881942749023,0.6791192889213562,-2.497365713119507
1413393215070760500,0.01477791741490364,0.024630744010210037,0.08572009205818176,9.640708923339844,1.0278613567352295,-2.8277647495269775
1413393215075760500,-0.05685985088348389,0.045731835067272186,0.0893649309873581,9.388710021972656,0.8970076441764832,-2.864499092102051
1413393215080760500,-0.09411988407373428,0.03978298604488373,0.1025131568312645,8.543517112731934,-0.05839163064956665,-2.4197750091552734
1413393215085760500,-0.06703539192676544,0.004071004688739777,0.12987887859344482,9.020134925842285,-1.1728599071502686,-2.6172614097595215
1413393215090760500,0.0041037872433662415,0.01812693476676941,0.14188256859779358,9.383955955505371,-1.4439778327941895,-2.4243545532226562
1413393215095760500,0.05749422311782837,0.008778974413871765,0.11762326955795288,9.455700874328613,-0.9340453743934631,-2.6762256622314453
1413393215100760500,0.060767337679862976,-0.014492493122816086,0.06513446569442749,9.587676048278809,0.015921056270599365,-2.7384660243988037
1413393215105760500,0.02771991491317749,0.033224210143089294,0.02983245998620987,9.862576484680176,0.7101903557777405,-2.825361728668213
1413393215110760500,-0.015747718513011932,0.026587940752506256,0.029429379850625992,9.191961288452148,0.6209412217140198,-2.725353240966797
1413393215115760500,-0.030178073793649673,0.039580583572387695,0.06621891260147095,9.495965003967285,0.27596166729927063,-2.6676506996154785
1413393215120760500,-0.02029366046190262,0.05201694369316101,0.096289724111557,9.431469917297363,0.055152639746665955,-2.6580653190612793
1413393215125760500,-0.030412469059228897,0.032569535076618195,0.08690628409385681,9.50503921508789,-0.03427032008767128,-2.9196481704711914
1413393215130760500,-0.03291234374046326,0.05931989848613739,0.07642529159784317,9.114029884338379,-0.11050333082675934,-2.383406162261963
1413393215135760500,-0.018147606402635574,0.012957964092493057,0.08219414204359055,9.172423362731934,-0.4711514413356781,-2.517726182937622
1413393215140760500,0.01738763228058815,0.03250165283679962,0.09826751053333282,9.660400390625,-0.708424985408783,-2.605170726776123
1413393215145760500,0.04577276110649109,0.014416664838790894,0.09526149928569794,9.299457550048828,-0.19999749958515167,-2.586418867111206
1413393215150760500,0.03729192167520523,0.007077354937791824,0.0892401710152626,9.627121925354004,0.3186316192150116,-3.0206828117370605
1413393215155760500,0.006041564047336578,0.04226949065923691,0.07669255137443542,9.439230918884277,0.4813176393508911,-2.6792819499969482
1413393215160760500,-0.02667616307735443,-0.007232185453176498,0.07288046181201935,9.487743377685547,0.037866219878196716,-2.6581835746765137
1413393215165760500,-0.01877940073609352,0.0184524767100811,0.06835920363664627,9.888471603393555,-0.23242127895355225,-2.6940181255340576
1413393215170760500,-0.0016147829592227936,0.03618960082530975,0.07828585803508759,9.15317440032959,0.07269883155822754,-2.4935691356658936
1413393215175760500,-0.009285284206271172,-0.0008890964090824127,0.08183720707893372,9.39188003540039,0.15547852218151093,-2.951467990875244
1413393215180760500,-0.031330108642578125,0.03477470576763153,0.05533497408032417,9.727004051208496,-0.2000976949930191,-2.8275375366210938
1413393215185760500,-0.023673618212342262,0.03852401673793793,0.05727164074778557,9.103955268859863,-0.5294740200042725,-2.3497314453125
1413393215190760500,0.023807309567928314,-0.001598011702299118,0.08990881592035294,9.139655113220215,-0.6236201524734497,-2.4708502292633057
1413393215195760500,0.04848852753639221,0.0260479599237442,0.09698450565338135,9.40095043182373,-0.4006830155849457,-2.6356661319732666
1413393215200760500,0.03354264050722122,0.003107931464910507,0.10016709566116333,9.071470260620117,0.4158134162425995,-2.764481544494629
1413393215205760500,-0.00459706038236618,0.01936512440443039,0.08947086334228516,9.84750747680664,0.5877653360366821,-2.997213125228882
1413393215210760500,-0.037871863692998886,0.0613626092672348,0.06977328658103943,9.659878730773926,-0.05144207179546356,-2.6627748012542725
1413393215215760500,-0.02581445500254631,0.02015308290719986,0.08812591433525085,9.039372444152832,-0.38046279549598694,-2.4698774814605713
1413393215220760500,-0.006554022431373596,0.028357990086078644,0.09563639014959335,9.400359153747559,-0.3698771893978119,-2.446133613586426
1413393215225760500,-0.0027826614677906036,0.010573215782642365,0.08941197395324707,9.284948348999023,0.03236770257353783,-2.893458127975464
1413393215230760500,-0.010733682662248611,0.03035687655210495,0.07842957228422165,9.488340377807617,0.1113392561674118,-2.842974901199341
1413393215235760500,-0.014507029205560684,0.04414840042591095,0.06396976113319397,9.596376419067383,-0.4130682349205017,-2.720255136489868
1413393215240760500,0.009658344089984894,0.021549932658672333,0.0831318125128746,9.505149841308594,-0.43774574995040894,-2.711172103881836
1413393215245760500,0.03939317911863327,0.0381244495511055,0.10053198784589767,9.136874198913574,-0.0501493476331234,-2.4548752307891846
1413393215250760500,0.02656570076942444,0.002128817141056061,0.09493659436702728,9.023602485656738,0.360445111989975,-2.6068782806396484
1413393215255760500,0.0004282929003238678,0.006883028894662857,0.09803026169538498,9.798249244689941,0.593376100063324,-3.077080011367798
1413393215260760500,-0.03372018411755562,0.03695856034755707,0.07392615079879761,9.895569801330566,-0.03715270757675171,-2.737797737121582
1413393215265760500,-0.030703362077474594,0.026794612407684326,0.07389672845602036,9.471692085266113,-0.32287368178367615,-2.6276326179504395
1413393215270760500,-0.0022331848740577698,0.04183480143547058,0.08716227114200592,9.163444519042969,-0.20672063529491425,-2.4877095222473145
1413393215275760500,-0.00011426210403442383,0.007203124463558197,0.08884662389755249,8.926505088806152,-0.09861913323402405,-2.590198040008545
1413393215280760500,-0.012759007513523102,-0.00424811989068985,0.07083074003458023,10.051766395568848,0.044776301831007004,-3.070305824279785
1413393215285760500,-0.012384656816720963,0.04453475773334503,0.06771063804626465,9.519999504089355,-0.25795623660087585,-2.46893572807312
1413393215290760500,0.008917186409235,0.03437256067991257,0.06840874254703522,9.465456008911133,-0.5168648362159729,-2.7317147254943848
1413393215295760500,0.030826739966869354,0.020322203636169434,0.08492504805326462,8.886664390563965,-0.05878794938325882,-2.3743245601654053
1413393215300760500,0.023026444017887115,0.009278915822505951,0.09912334382534027,9.129140853881836,0.3603072762489319,-2.5880024433135986
1413393215305760500,-0.014354921877384186,0.013922873884439468,0.08072981983423233,9.904461860656738,0.3094584345817566,-3.086315393447876
1413393215310760500,-0.027970418334007263,0.033892303705215454,0.08676733821630478,9.389894485473633,-0.02091631479561329,-2.5329668521881104
1413393215315760500,-0.018677346408367157,0.014608506113290787,0.09218349307775497,9.613171577453613,-0.4848499894142151,-2.944866895675659
1413393215320760500,-0.00022316724061965942,0.0316532701253891,0.09177340567111969,9.114302635192871,-0.3369327187538147,-2.4585890769958496
1413393215325760500,0.0076217129826545715,0.015830326825380325,0.09695032238960266,9.022700309753418,0.08843691647052765,-2.5477452278137207
1413393215330760500,-0.008700547739863396,0.0033621452748775482,0.07788883149623871,9.686013221740723,-0.14065657556056976,-2.9724271297454834
1413393215335760500,-0.013037078082561493,0.030418094247579575,0.06285220384597778,9.448127746582031,-0.20933374762535095,-2.647312641143799
1413393215340760500,0.001872628927230835,0.023901764303445816,0.07471897453069687,9.58775806427002,-0.38653865456581116,-2.905865430831909
1413393215345760500,0.021106664091348648,0.0376870259642601,0.08560474961996078,9.448854446411133,-0.09005098044872284,-2.8268916606903076
1413393215350760500,0.014617424458265305,0.04577941447496414,0.0928676649928093,8.842767715454102,0.27699559926986694,-2.4284613132476807
1413393215355760500,-0.00745633989572525,0.0021818093955516815,0.07920520007610321,9.734574317932129,-0.026713207364082336,-2.903848648071289
1413393215360760500,-0.015220170840620995,0.02950146794319153,0.06907884776592255,9.863298416137695,-0.021553728729486465,-2.753979206085205
1413393215365760500,-0.005867823958396912,0.026308737695217133,0.08814375102519989,9.438215255737305,0.0383833684027195,-2.7651009559631348
1413393215370760500,-0.00645100325345993,0.024400755763053894,0.09475650638341904,9.221114158630371,0.08967549353837967,-2.7835910320281982
1413393215375760500,-0.010062102228403091,0.009608380496501923,0.09845196455717087,9.032055854797363,0.07806483656167984,-2.4298903942108154
1413393215380760500,-0.01857169345021248,-0.002701748162508011,0.07643476128578186,10.076419830322266,-0.4299456775188446,-2.936997175216675
1413393215385760500,-0.002363894134759903,0.016383998095989227,0.06410098075866699,9.650806427001953,-0.3640909790992737,-2.730529308319092
1413393215390760500,0.025964483618736267,0.016480665653944016,0.09781762957572937,9.268128395080566,0.19462774693965912,-2.7646424770355225
1413393215395760500,0.029935285449028015,0.039187461137771606,0.10329114645719528,8.813654899597168,-0.03178773820400238,-2.3487231731414795
1413393215400760500,-0.004671700298786163,-0.017619475722312927,0.08151619136333466,9.407325744628906,0.18310125172138214,-2.5490200519561768
1413393215405760500,-0.013069234788417816,0.00914597138762474,0.0602005198597908,9.89585018157959,0.04520995914936066,-2.782909631729126
1413393215410760500,-0.011527681723237038,0.029000308364629745,0.08598937094211578,9.35793685913086,-0.00826177280396223,-2.7589094638824463
1413393215415760500,-0.013612497597932816,0.020996402949094772,0.09885603189468384,8.911493301391602,0.02256420999765396,-2.43926739692688
1413393215420760500,-0.024340026080608368,-0.026647493243217468,0.08156299591064453,9.132081031799316,-0.1826261729001999,-2.3539559841156006
1413393215425760500,-0.019977794960141182,-0.00332079641520977,0.05345357209444046,10.296757698059082,-0.5756641626358032,-2.961965560913086
1413393215430760500,0.007603287696838379,0.03194044530391693,0.06870777904987335,9.461711883544922,-0.36364275217056274,-2.6316022872924805
1413393215435760500,0.03424091637134552,0.02629835531115532,0.08938439935445786,9.432830810546875,-0.27792540192604065,-2.717329978942871
1413393215440760500,0.021936483681201935,0.02309337630867958,0.06518301367759705,8.91096019744873,-0.22208842635154724,-2.1286396980285645
1413393215445760500,0.008241057395935059,-0.010021600872278214,0.055623166263103485,9.936212539672852,0.30715107917785645,-3.053713321685791
1413393215450760500,0.006911642849445343,0.04414096474647522,0.09495121240615845,9.363280296325684,0.5798770189285278,-2.7869668006896973
1413393215455760500,-0.0243680439889431,0.02541251853108406,0.10709648579359055,8.722990989685059,0.2535146474838257,-2.5587360858917236
1413393215460760500,-0.048387590795755386,0.011917755007743835,0.07881003618240356,9.306100845336914,-0.4050939083099365,-2.6118383407592773
1413393215465760500,-0.02978431060910225,-0.012511607259511948,0.08853692561388016,9.423855781555176,-0.36463022232055664,-2.6338584423065186
1413393215470760500,0.009904753416776657,0.023923389613628387,0.11459768563508987,9.772686004638672,-0.45907947421073914,-2.7679879665374756
1413393215475760500,0.021576836705207825,0.010595984756946564,0.10893665254116058,9.448775291442871,-0.43573325872421265,-2.8112294673919678
1413393215480760500,0.004394032061100006,0.01659710332751274,0.04845346510410309,9.457101821899414,-0.27394044399261475,-2.75241756439209
1413393215485760500,0.027395233511924744,0.018904712051153183,0.09122251719236374,9.56041145324707,0.3900737464427948,-2.856048822402954
1413393215490760500,0.02240724116563797,0.02976745367050171,0.10774346441030502,9.470050811767578,0.25423505902290344,-2.6367645263671875
1413393215495760500,-0.013788208365440369,0.04692888259887695,0.06952276080846786,9.733439445495605,-0.05233120918273926,-2.782423734664917
1413393215500760500,-0.02232850342988968,0.003207489848136902,0.06916199624538422,8.796144485473633,0.11065071076154709,-2.6345460414886475
1413393215505760500,0.001971159130334854,0.02704767882823944,0.10506286472082138,9.815774917602539,0.0064000654965639114,-2.6186788082122803
1413393215510760500,-0.007910512387752533,0.03338288515806198,0.09459363669157028,9.545333862304688,-0.0347483828663826,-2.879835605621338
1413393215515760500,-0.031013092026114464,0.006073366850614548,0.042890649288892746,8.607258796691895,-0.2578062415122986,-2.3416848182678223
1413393215520760500,0.005389455705881119,-0.01937476545572281,0.07590273022651672,9.501212120056152,-0.2736817002296448,-2.6659889221191406
1413393215525760500,0.026167243719100952,0.008712369948625565,0.09896493703126907,9.9531831741333,-0.06900477409362793,-2.662811756134033
1413393215530760500,0.0012614354491233826,0.03767482191324234,0.06893245130777359,9.746856689453125,-0.01774667203426361,-2.9945709705352783
1413393215535760500,-0.009062651544809341,-0.001553323119878769,0.06898650527000427,8.6822509765625,0.05520845204591751,-2.3596019744873047
1413393215540760500,0.006201058626174927,0.016333766281604767,0.09444141387939453,9.923267364501953,-0.09333033859729767,-2.681161642074585
1413393215545760500,0.002101536840200424,0.04740516096353531,0.10097812861204147,9.91773796081543,0.11155888438224792,-2.766829490661621
1413393215550760500,-0.017603881657123566,0.03830725699663162,0.06670410931110382,8.939693450927734,-0.30258095264434814,-2.396895408630371
1413393215555760500,0.0009287409484386444,0.006509486585855484,0.07789185643196106,9.061251640319824,-0.3708043396472931,-2.6012423038482666
1413393215560760500,0.02261563017964363,0.013686485588550568,0.10017018765211105,9.530467987060547,0.36387744545936584,-2.7158048152923584
1413393215565760500,-0.019296638667583466,0.023000016808509827,0.0655813217163086,9.486069679260254,0.25458505749702454,-2.789435386657715
1413393215570760500,-0.03306328505277634,0.005217589437961578,0.052834540605545044,8.9763822555542,-0.3704245984554291,-2.4663424491882324
1413393215575760500,-0.00011072680354118347,-0.002489060163497925,0.08753455430269241,9.075861930847168,-0.2033669501543045,-2.3636703491210938
1413393215580760500,-0.0047209784388542175,0.009071767330169678,0.08095893263816833,9.799630165100098,-0.03284761309623718,-2.8865132331848145
1413393215585760500,-0.02293412573635578,0.013882406055927277,0.06477101892232895,9.18554973602295,-0.21972234547138214,-2.629850149154663
1413393215590760500,0.003065042197704315,0.014207422733306885,0.08130621910095215,9.327430725097656,-0.5606899857521057,-2.6694140434265137
1413393215595760500,0.02616307884454727,0.03606545925140381,0.0949706882238388,10.232391357421875,-0.030223309993743896,-2.924266815185547
1413393215600760500,-0.00015208125114440918,0.07565111666917801,0.07539772987365723,9.76186752319336,0.19775716960430145,-2.914395809173584
1413393215605760500,-0.009942151606082916,0.05942055583000183,0.06773824989795685,8.54084587097168,-0.25351810455322266,-2.193903923034668
1413393215610760500,0.01047094538807869,0.007528513669967651,0.09356886893510818,9.590103149414062,0.03458494320511818,-2.843733310699463
1413393215615760500,-0.005565483123064041,0.05256526917219162,0.0956069603562355,9.380889892578125,0.34133031964302063,-2.660588026046753
1413393215620760500,-0.015444723889231682,0.0013099871575832367,0.09567658603191376,8.566374778747559,-0.21066386997699738,-2.566957473754883
1413393215625760500,0.01148054376244545,-0.02929110825061798,0.11761470884084702,9.80424690246582,-0.5536139607429504,-2.8531668186187744
1413393215630760500,0.015686631202697754,0.03325199335813522,0.11779790371656418,10.009554862976074,0.32869255542755127,-3.094515323638916
1413393215635760500,0.0023405104875564575,0.04855702072381973,0.10120687633752823,8.807926177978516,-0.09491007775068283,-2.539330005645752
1413393215640760500,0.004848740994930267,-0.05012645572423935,0.09706665575504303,9.13321590423584,-0.5107016563415527,-2.5625674724578857
1413393215645760500,0.0043831467628479,0.00304257869720459,0.0764274001121521,10.57445240020752,0.5057823061943054,-3.2082507610321045
1413393215650760500,-0.010604821145534515,0.054781168699264526,0.07932176440954208,9.165481567382812,0.2573662996292114,-2.8088948726654053
1413393215655760500,-0.02548651397228241,-0.03733532875776291,0.052735455334186554,8.748929977416992,-0.8347450494766235,-2.2453606128692627
1413393215660760500,-0.013462148606777191,-0.023226851597428322,0.035695940256118774,10.317399024963379,0.18358618021011353,-2.7321882247924805
1413393215665760500,0.002843238413333893,0.042141325771808624,0.07816918194293976,9.369572639465332,0.0034507745876908302,-2.592991352081299
1413393215670760500,-0.006187397986650467,-0.03607655316591263,0.04656470566987991,8.591609001159668,-0.7669936418533325,-2.823776960372925
1413393215675760500,0.01836594194173813,0.003083065152168274,0.06625457853078842,9.79512882232666,0.7004511952400208,-3.130011796951294
1413393215680760500,0.016156990081071854,0.049550339579582214,0.12096592038869858,8.95626449584961,0.5352523922920227,-2.699024200439453
1413393215685760500,-0.02661367878317833,-0.042710088193416595,0.09272490441799164,8.437026023864746,-0.6363087296485901,-3.0268919467926025
1413393215690760500,-0.014204608276486397,-0.019915100187063217,0.08903820067644119,10.056886672973633,0.2080497443675995,-3.213960886001587
1413393215695760500,0.022542539983987808,0.03640483319759369,0.14646697044372559,9.16792106628418,0.2883244752883911,-2.5046987533569336
1413393215700760500,-0.0034279413521289825,-0.03491966426372528,0.09915496408939362,8.550861358642578,-1.1084229946136475,-2.5041463375091553
1413393215705760500,-0.0025454461574554443,-0.058449435979127884,0.06091698631644249,9.599747657775879,0.0607779286801815,-3.3078558444976807
1413393215710760500,0.025009796023368835,0.017484277486801147,0.10910970717668533,9.951494216918945,0.09956277161836624,-2.7887465953826904
1413393215715760500,-0.016692403703927994,-0.014166463166475296,0.03834718465805054,9.021860122680664,-0.6414847373962402,-2.654437303543091
1413393215720760500,-0.016335684806108475,-0.020754797384142876,0.02608824521303177,10.01270866394043,0.4556596875190735,-3.1383213996887207
1413393215725760500,0.018674451857805252,0.04439796507358551,0.09902987629175186,9.609758377075195,-0.34104394912719727,-2.621309995651245
1413393215730760500,-0.009261295199394226,0.004789270460605621,0.045697860419750214,8.890954971313477,-0.3268040716648102,-2.7643141746520996
1413393215735760500,-0.007123056799173355,0.021763227880001068,0.07178938388824463,9.170710563659668,0.9411916136741638,-2.6510746479034424
1413393215740760500,-0.000545155256986618,0.020116671919822693,0.12609568238258362,9.489991188049316,-0.1585586965084076,-2.6887402534484863
1413393215745760500,-0.038293108344078064,0.008793767541646957,0.05920883268117905,8.698105812072754,-0.6594836115837097,-2.7590701580047607
1413393215750760500,-0.007866144180297852,-0.04141050949692726,0.11266344040632248,8.586030960083008,0.26874208450317383,-2.339595079421997
1413393215755760500,0.03139232099056244,-0.024955593049526215,0.15977764129638672,10.71686840057373,-0.6969738602638245,-3.1587138175964355
1413393215760760500,0.008146196603775024,0.011268720030784607,0.07639658451080322,9.379345893859863,-0.879041314125061,-3.0277366638183594
1413393215765760500,0.03403589874505997,-0.032802268862724304,0.11919285356998444,8.532160758972168,0.6859279274940491,-2.469810724258423
1413393215770760500,0.045072123408317566,-0.016165494918823242,0.12078053504228592,10.72698974609375,-0.47481900453567505,-3.2906582355499268
1413393215775760500,-0.012251131236553192,0.03223681449890137,0.04166445508599281,8.9611234664917,0.5590600371360779,-3.0148093700408936
1413393215780760500,-0.00540681928396225,-0.028896870091557503,0.11895181983709335,9.102412223815918,0.6744592785835266,-2.5029501914978027
1413393215785760500,-0.03777455538511276,0.02728601172566414,0.03034001961350441,10.875903129577637,-0.5700033903121948,-3.4460620880126953
1413393215790760500,-0.03717472404241562,0.06692925095558167,0.01971234381198883,8.480335235595703,0.30966246128082275,-2.3846209049224854
1413393215795760500,0.006730522960424423,-0.06437087804079056,0.11388367414474487,9.293946266174316,-0.29556161165237427,-2.5407817363739014
1413393215800760500,-0.019248349592089653,0.05650492012500763,0.03441956639289856,10.163298606872559,-0.6622073650360107,-3.2196543216705322
1413393215805760500,0.004225321114063263,0.04610908031463623,0.04701054096221924,7.590713024139404,0.6689161658287048,-2.0238802433013916
1413393215810760500,0.03705211728811264,-0.05756984278559685,0.1335393339395523,9.5600004196167,-0.24170038104057312,-2.8681347370147705
1413393215815760500,-0.005905207246541977,0.01697167009115219,0.07711014151573181,9.069084167480469,-0.32951638102531433,-2.870082378387451
1413393215820760500,0.01027584820985794,-0.022016000002622604,0.11652489006519318,8.033809661865234,0.908157467842102,-2.135148286819458
1413393215825760500,0.02123955637216568,-0.0038069039583206177,0.12669333815574646,10.842436790466309,-0.761944591999054,-3.119457960128784
1413393215830760500,-0.009538015350699425,0.010849013924598694,0.08560389280319214,9.020411491394043,-0.08048871159553528,-2.5181052684783936
1413393215835760500,0.006492104381322861,-0.05839712917804718,0.1116287112236023,9.950757026672363,0.15830424427986145,-2.7792859077453613
1413393215840760500,-0.028720691800117493,0.040098175406455994,0.012651786208152771,10.087639808654785,-0.3788473308086395,-3.228152275085449
1413393215845760500,-0.023914210498332977,0.05633234977722168,0.031088504940271378,9.075562477111816,0.23884858191013336,-2.4164397716522217
1413393215850760500,-0.0009708069264888763,0.049309298396110535,0.08983639627695084,10.239314079284668,-0.48606398701667786,-2.755739212036133
1413393215855760500,-0.028210483491420746,0.0752040296792984,0.054649144411087036,9.219744682312012,-0.3101118206977844,-3.0541560649871826
1413393215860760500,0.0099080391228199,0.037923358380794525,0.09750872105360031,8.19015121459961,0.33167919516563416,-2.1413819789886475
1413393215865760500,0.01986212655901909,0.0363539457321167,0.10341805964708328,9.053136825561523,-0.815304160118103,-2.164411783218384
1413393215870760500,0.009595904499292374,0.01556812971830368,0.08838684111833572,8.7803955078125,-0.07938292622566223,-2.7877347469329834
1413393215875760500,0.020827118307352066,-0.03673356771469116,0.12995806336402893,9.512643814086914,0.5615730881690979,-2.652588129043579
1413393215880760500,-0.022231407463550568,-0.02384036034345627,0.07454296946525574,9.769076347351074,-0.060560621321201324,-3.2013487815856934
1413393215885760500,-0.017543505877256393,0.021935857832431793,0.09761475771665573,9.633240699768066,0.39278414845466614,-3.084275960922241
1413393215890760500,-0.005705893039703369,0.025695208460092545,0.07507801800966263,9.746217727661133,-0.6924683451652527,-2.0657432079315186
1413393215895760500,-0.00504351407289505,0.03844163566827774,0.05449711158871651,9.928642272949219,-0.46805182099342346,-3.414128065109253
1413393215900760500,0.024496980011463165,0.032415032386779785,0.08693141490221024,10.00735855102539,0.052466634660959244,-2.6781136989593506
1413393215905760500,-0.005411088466644287,0.026209060102701187,0.045273635536432266,9.210575103759766,0.04918263480067253,-2.5800936222076416
1413393215910760500,-0.00994461216032505,0.07250194251537323,0.03406451642513275,9.27867603302002,0.1927940398454666,-3.087244987487793
1413393215915760500,-0.010531900450587273,0.030054539442062378,0.06849507242441177,9.02955436706543,-0.16283459961414337,-1.5277302265167236
1413393215920760500,-0.021186478435993195,-0.012583456933498383,0.07256244122982025,8.984225273132324,-0.08182733505964279,-3.014211893081665
1413393215925760500,0.0007533840835094452,0.012729063630104065,0.07229448854923248,9.149285316467285,0.01559061836451292,-2.9559173583984375
1413393215930760500,0.001712016761302948,-0.017401549965143204,0.08571645617485046,8.83854866027832,-0.14914466440677643,-2.371100425720215
1413393215935760500,0.007683645933866501,-0.017164641991257668,0.11830548942089081,9.849618911743164,-0.0692978948354721,-3.7064030170440674
1413393215940760500,0.021148502826690674,0.03002120926976204,0.1457003355026245,9.647378921508789,-0.1769777536392212,-1.9455186128616333
1413393215945760500,0.011693738400936127,0.031677015125751495,0.1424272656440735,9.438089370727539,-0.09130880236625671,-3.2842531204223633
1413393215950760500,0.016831688582897186,0.05904248356819153,0.12299463152885437,9.823816299438477,0.1283324956893921,-3.269261598587036
1413393215955760500,-0.012050041928887367,0.02447480335831642,0.06573702394962311,8.930362701416016,0.012012648396193981,-1.621698021888733
1413393215960760500,-0.01561768725514412,0.013762932270765305,0.04188358411192894,9.563542366027832,-0.1170358955860138,-3.8267760276794434
1413393215965760500,-0.018720565363764763,0.047522708773612976,0.010068640112876892,9.424551010131836,-0.12679725885391235,-2.259030818939209
1413393215970760500,-0.03471486642956734,-0.014820758253335953,0.014245159924030304,8.877473831176758,0.14627958834171295,-2.7204720973968506
1413393215975760500,-0.010924329981207848,0.051635757088661194,0.05384403467178345,10.112316131591797,-0.18069152534008026,-4.254773139953613
1413393215980760500,0.0031255558133125305,0.041511498391628265,0.09022043645381927,8.685295104980469,-0.446921706199646,-1.787926197052002
1413393215985760500,0.016960356384515762,0.011917810887098312,0.11593350023031235,9.489337921142578,-0.4284648299217224,-3.6113297939300537
1413393215990760500,0.024870432913303375,0.08933550119400024,0.09840260446071625,9.837600708007812,0.004220953211188316,-2.032862663269043
1413393215995760500,0.007312234491109848,0.00882834941148758,0.11548343300819397,8.286266326904297,0.4497207999229431,-2.1807711124420166
1413393216000760500,-0.0028832480311393738,0.025463327765464783,0.11132315546274185,10.537731170654297,-0.22268427908420563,-3.9891514778137207
1413393216005760500,-0.01929035410284996,0.030499570071697235,0.0823129415512085,8.658763885498047,-0.11538073420524597,-1.1706962585449219
1413393216010760500,-0.010008113458752632,-0.02395825833082199,0.09528304636478424,9.104575157165527,0.1214408129453659,-3.5377554893493652
1413393216015760500,0.002111416310071945,0.02431449666619301,0.07509641349315643,9.81823444366455,-0.8739915490150452,-2.3036751747131348
1413393216020760500,0.010670933872461319,-0.013046767562627792,0.08223803341388702,9.630853652954102,-0.2227245569229126,-2.061007022857666
1413393216025760500,0.0323813259601593,0.053680598735809326,0.1003451943397522,10.328434944152832,-0.11675693839788437,-4.123526573181152
1413393216030760500,0.01878620684146881,0.06082497537136078,0.07744655758142471,8.602102279663086,-0.01864776760339737,-1.2274349927902222
1413393216035760500,0.005405053496360779,0.012759119272232056,0.09175558388233185,9.219757080078125,0.5105507969856262,-3.289914846420288
1413393216040760500,-0.012075359001755714,0.0827709287405014,0.06116008758544922,9.65682315826416,-0.20964889228343964,-1.7860429286956787
1413393216045760500,-0.04170554131269455,-0.006497569382190704,0.02372933179140091,8.842232704162598,0.46215784549713135,-2.5573313236236572
1413393216050760500,-0.033590398728847504,0.05345238745212555,0.028202306479215622,9.665755271911621,-0.05809961259365082,-3.533092975616455
1413393216055760500,-0.03378918021917343,-0.009692274034023285,0.0219554603099823,8.770232200622559,-0.47932133078575134,-1.36790931224823
1413393216060760500,-0.001703307032585144,0.04452548176050186,0.06183958798646927,10.329156875610352,-0.33403635025024414,-4.18192195892334
1413393216065760500,0.03273523598909378,0.07074575126171112,0.08387972414493561,8.670313835144043,-0.5250516533851624,-2.0982635021209717
1413393216070760500,0.03155279904603958,-0.017582036554813385,0.10415543615818024,9.463847160339355,0.4967159032821655,-2.940040111541748
1413393216075760500,0.023858588188886642,0.08832958340644836,0.11373254656791687,9.058989524841309,0.48169180750846863,-3.4448723793029785
1413393216080760500,-0.016321849077939987,-0.03800751268863678,0.07471472024917603,8.182157516479492,0.2994006276130676,-1.4158992767333984
1413393216085760500,-0.02861793339252472,0.028784222900867462,0.08705084025859833,10.609500885009766,0.4276643693447113,-4.454686641693115
1413393216090760500,-0.03369041532278061,0.032617658376693726,0.07716599106788635,8.196337699890137,-0.38421642780303955,-1.7644060850143433
1413393216095760500,-0.02625799924135208,-0.059490934014320374,0.07945239543914795,9.27030086517334,-0.13448984920978546,-2.7755589485168457
1413393216100760500,-0.001750711351633072,0.07966059446334839,0.08628995716571808,9.352395057678223,-0.4212464988231659,-2.205859899520874
1413393216105760500,0.0017262399196624756,-0.06416833400726318,0.07839310169219971,9.321976661682129,-0.043596114963293076,-2.3572728633880615
1413393216110760500,0.005623422563076019,0.1115056574344635,0.07077129930257797,10.845507621765137,-0.5821677446365356,-4.062071800231934
1413393216115760500,0.015484519302845001,0.03195260465145111,0.06243414059281349,8.76462173461914,-0.48767349123954773,-1.5387221574783325
1413393216120760500,0.01574575901031494,0.07078223675489426,0.06088358536362648,10.736839294433594,0.15402446687221527,-3.9611265659332275
1413393216125760500,0.02066178247332573,0.1044091284275055,0.07859337329864502,7.7453694343566895,-0.09562883526086807,-1.6790480613708496
1413393216130760500,0.008467383682727814,-0.05080515891313553,0.0689828172326088,9.54613971710205,0.09397411346435547,-2.111940860748291
1413393216135760500,0.00897882878780365,0.12311412394046783,0.07743937522172928,10.391030311584473,-0.1748380810022354,-3.7814950942993164
1413393216140760500,-0.008522920310497284,-0.037694964557886124,0.08634671568870544,7.7611589431762695,0.3596455454826355,-1.7190495729446411
1413393216145760500,-0.030269527807831764,0.04414618760347366,0.08856385201215744,11.413702964782715,0.14501070976257324,-4.416983127593994
1413393216150760500,-0.018647752702236176,0.10385718941688538,0.11518845707178116,8.06386661529541,-0.16000676155090332,-1.8344701528549194
1413393216155760500,-0.00834643840789795,-0.07270370423793793,0.12620893120765686,9.501737594604492,-0.006354315672069788,-3.4520742893218994
1413393216160760500,-0.0015929937362670898,0.11424340307712555,0.11560889333486557,8.775344848632812,-0.5411061644554138,-2.322662115097046
1413393216165760500,0.004522576928138733,-0.0964536964893341,0.08653545379638672,9.618350982666016,-0.012917258776724339,-2.2427592277526855
1413393216170760500,0.01320856437087059,0.07231751084327698,0.07216578722000122,11.215240478515625,-0.8772282600402832,-3.9639718532562256
1413393216175760500,0.019802916795015335,0.00498194620013237,0.05710690841078758,7.458691120147705,-0.021771620959043503,-1.2731688022613525
1413393216180760500,0.014668088406324387,-0.004278238862752914,0.0573754645884037,11.444392204284668,0.447640985250473,-3.6626315116882324
1413393216185760500,0.0038852356374263763,0.12336759269237518,0.02979253977537155,8.947152137756348,0.07579005509614944,-2.4355528354644775
1413393216190760500,-0.004617895931005478,-0.07906004786491394,0.07380661368370056,8.894536972045898,0.6895453929901123,-2.622218370437622
1413393216195760500,-0.028965812176465988,0.0921933650970459,0.0455031543970108,10.22400951385498,-0.03446609899401665,-3.4169886112213135
1413393216200760500,-0.035720400512218475,-0.05579691752791405,0.09391703456640244,7.362818717956543,0.5380477905273438,-1.530970573425293
1413393216205760500,-0.0431038923561573,-0.04145798459649086,0.09130153059959412,11.379998207092285,-0.6667162179946899,-3.5027968883514404
1413393216210760500,-0.02041216567158699,0.03177787363529205,0.0963529646396637,8.049989700317383,0.13985690474510193,-1.6938203573226929
1413393216215760500,0.0044520944356918335,-0.10828252136707306,0.09079552441835403,10.84304428100586,0.013667663559317589,-3.5410988330841064
1413393216220760500,0.006035469472408295,0.05319491773843765,0.0868721604347229,8.688782691955566,-0.1824038028717041,-1.855812668800354
1413393216225760500,0.012476343661546707,-0.11436565965414047,0.10578161478042603,9.354310989379883,0.5101980566978455,-2.6859865188598633
1413393216230760500,0.012919411063194275,0.02960972487926483,0.08122100681066513,10.177092552185059,-0.6053833365440369,-2.8477208614349365
1413393216235760500,0.02702801674604416,-0.06182606518268585,0.11126653850078583,8.017333030700684,0.43098434805870056,-2.365675449371338
1413393216240760500,0.01903330534696579,-0.0032088514417409897,0.05023809149861336,10.334444999694824,-0.678253173828125,-2.990130662918091
1413393216245760500,0.021926529705524445,0.01995208114385605,0.08236150443553925,8.11036205291748,0.47184908390045166,-1.9604356288909912
1413393216250760500,0.0036368370056152344,-0.06696316599845886,0.07723532617092133,10.18131160736084,0.25262677669525146,-2.8821656703948975
1413393216255760500,-0.018872512504458427,0.03157889097929001,0.059087395668029785,9.8324556350708,-0.04287217929959297,-2.641868829727173
1413393216260760500,-0.01792006939649582,-0.06031002104282379,0.10818689316511154,8.98629379272461,0.6172288656234741,-2.7697336673736572
1413393216265760500,-0.032751478254795074,-0.02196022868156433,0.0548924021422863,9.656201362609863,-0.8083856105804443,-2.8858017921447754
1413393216270760500,0.007108982652425766,-0.06088467314839363,0.15458598732948303,8.729647636413574,0.04488246887922287,-2.8556785583496094
1413393216275760500,0.011502590030431747,-0.0513334721326828,0.07507443428039551,9.791986465454102,-1.120745301246643,-2.8777055740356445
1413393216280760500,0.027409911155700684,-0.043396614491939545,0.1402367204427719,8.8610258102417,0.6923238039016724,-3.0689260959625244
1413393216285760500,0.0036215372383594513,-0.06256037205457687,0.07384714484214783,9.710672378540039,-0.27506378293037415,-2.7320313453674316
1413393216290760500,-0.014913232997059822,0.0022542253136634827,0.0736415758728981,9.40798568725586,0.23328322172164917,-3.436109781265259
1413393216295760500,0.01013534888625145,0.007497802376747131,0.09056336432695389,8.56530475616455,-0.28788694739341736,-2.1849684715270996
1413393216300760500,-0.00043652579188346863,-0.024045180529356003,0.042330216616392136,9.443807601928711,-0.6299791932106018,-2.785372495651245
1413393216305760500,0.050648033618927,0.018392805010080338,0.14577269554138184,9.365150451660156,0.5044124722480774,-2.9179251194000244
1413393216310760500,0.013991955667734146,0.0019365772604942322,0.05491107329726219,9.626309394836426,-0.11448942869901657,-2.5880868434906006
1413393216315760500,0.00896453857421875,0.03874216228723526,0.15670368075370789,9.18459415435791,1.2942436933517456,-3.108699083328247
1413393216320760500,-0.031752146780490875,-0.02045302838087082,0.07589215040206909,8.959957122802734,-0.2540987432003021,-2.671900749206543
1413393216325760500,-0.05121384561061859,0.012326858937740326,0.08622157573699951,9.349909782409668,0.5340175032615662,-3.4240775108337402
1413393216330760500,-0.019290193915367126,0.013463344424962997,0.05093780532479286,8.542402267456055,-0.8842309713363647,-2.0288243293762207
1413393216335760500,-0.016592735424637794,-0.004010086879134178,0.07447677850723267,9.451275825500488,-0.28299006819725037,-3.83559513092041
1413393216340760500,0.01954130455851555,0.02231951430439949,0.11270233988761902,8.257586479187012,-0.07550149410963058,-1.9763253927230835
1413393216345760500,-0.02012810856103897,-0.07780556380748749,0.06724300980567932,9.793292999267578,-0.3267624080181122,-3.3610100746154785
1413393216350760500,0.009393367916345596,0.03657447546720505,0.13744999468326569,9.796440124511719,0.560593843460083,-3.1657211780548096
1413393216355760500,-0.02452121116220951,-0.06091735512018204,0.06526750326156616,8.981147766113281,-0.7421704530715942,-2.447373151779175
1413393216360760500,0.006077263504266739,0.050990015268325806,0.10623300820589066,10.289254188537598,-0.019150981679558754,-4.036088466644287
1413393216365760500,0.013243630528450012,0.007977120578289032,0.04898461326956749,7.918612480163574,-0.9889605641365051,-1.6542019844055176
1413393216370760500,0.027433723211288452,0.002049945294857025,0.07221656292676926,11.531655311584473,-0.16554735600948334,-4.487706661224365
1413393216375760500,0.03588269650936127,0.12345258891582489,0.07417530566453934,8.282447814941406,0.33242738246917725,-1.421397089958191
1413393216380760500,-0.012493506073951721,-0.03747506067156792,0.1082199290394783,9.796601295471191,0.5070587396621704,-4.124279499053955
1413393216385760500,-0.011960502713918686,0.0762106329202652,0.09820040315389633,8.151143074035645,-0.15127050876617432,-1.5600345134735107
1413393216390760500,-0.030641796067357063,-0.11925342679023743,0.10704270005226135,9.244205474853516,-0.38225167989730835,-3.218748092651367
1413393216395760500,0.015283934772014618,0.03360855579376221,0.10337187349796295,9.953831672668457,-0.624139130115509,-2.449493646621704
1413393216400760500,-0.007190857082605362,-0.1298796832561493,0.03645689785480499,8.339035987854004,-0.5746240615844727,-1.919630765914917
1413393216405760500,0.030970528721809387,-0.04466553032398224,0.08947733044624329,11.084493637084961,0.035554006695747375,-3.7919158935546875
1413393216410760500,-0.005874063819646835,-0.05221271514892578,0.024117078632116318,8.953621864318848,0.10966295003890991,-1.3877527713775635
1413393216415760500,0.0049211978912353516,-0.03831169009208679,0.09021870046854019,12.181034088134766,-0.04402007907629013,-4.69927978515625
1413393216420760500,-0.01888478361070156,0.07213610410690308,-0.005793437361717224,9.295198440551758,-0.11660514771938324,-0.9403030276298523
1413393216425760500,-0.008047930896282196,0.016842752695083618,0.06311765313148499,10.945442199707031,0.4224188029766083,-4.263240337371826
1413393216430760500,-0.012564610689878464,0.12242971360683441,0.007083706557750702,7.636980056762695,-0.14174248278141022,-1.0504167079925537
1413393216435760500,-0.01766291633248329,-0.009603556245565414,0.09107662737369537,9.751908302307129,0.11657916009426117,-3.5677502155303955
1413393216440760500,0.01642972230911255,0.1281501054763794,0.05410200357437134,8.818758964538574,-0.3083147406578064,-1.7716013193130493
1413393216445760500,0.009186983108520508,-0.013553794473409653,0.14925464987754822,9.203486442565918,0.8963280916213989,-3.873744487762451
1413393216450760500,0.0038962289690971375,0.12274099886417389,0.10572711378335953,9.191533088684082,-0.38331902027130127,-2.5180304050445557
1413393216455760500,-0.04230306297540665,-0.07919615507125854,0.07626453042030334,7.108269214630127,0.6696196794509888,-2.329667568206787
1413393216460760500,-0.020545389503240585,-0.001034218817949295,0.06689681112766266,9.341148376464844,-0.539349377155304,-2.91740083694458
1413393216465760500,-0.053848687559366226,-0.17633658647537231,-0.001662708818912506,7.465640068054199,0.6761729717254639,-1.5268102884292603
1413393216470760500,-0.015320975333452225,-0.0785026103258133,0.08145870268344879,11.454839706420898,-0.6446634531021118,-4.259600639343262
1413393216475760500,-0.0581895112991333,-0.10656949132680893,-0.0108642578125,7.111717224121094,0.5582051277160645,-1.5091402530670166
1413393216480760500,-0.0032641030848026276,-0.12231599539518356,0.1464168280363083,11.542506217956543,-0.4323766529560089,-3.8855645656585693
1413393216485760500,-0.02202286571264267,-0.042855191975831985,0.05236024409532547,7.909079074859619,0.5193382501602173,-1.6524558067321777
1413393216490760500,0.017713777720928192,-0.12874016165733337,0.1846432089805603,12.32011604309082,-0.5462544560432434,-4.578437805175781
1413393216495760500,-0.02054419368505478,0.017434202134609222,0.0715162456035614,8.111116409301758,0.9502871036529541,-1.8060113191604614
1413393216500760500,-0.01937740296125412,-0.02399272285401821,0.17540225386619568,10.954376220703125,0.1667407751083374,-4.913686752319336
1413393216505760500,-0.057104941457509995,0.09592171013355255,0.053184717893600464,8.429434776306152,-0.00720812426880002,-1.1128522157669067
1413393216510760500,-0.025916047394275665,-0.052569761872291565,0.1388692855834961,10.105338096618652,-0.3059917688369751,-3.840820789337158
1413393216515760500,-0.03325214609503746,0.10269913077354431,0.029730897396802902,9.24456787109375,-0.4594416320323944,-2.3898322582244873
