#timestamp [ns],w_RS_S_x [rad s^-1],w_RS_S_y [rad s^-1],w_RS_S_z [rad s^-1],a_RS_S_x [m s^-2],a_RS_S_y [m s^-2],a_RS_S_z [m s^-2]
1413393212225760500,0.09494591130849153,0.02024581932313422,0.05864306286700947,9.128356708333332,0.10623870833333333,-2.606934458333333
1413393212230760500,0.05864306286700947,0.03560471674068433,0.05166174585903216,9.422556208333333,1.1604535833333331,-2.623278875
1413393212235760500,-0.01117010721276371,0.027925268031909273,0.06981317007977318,9.398039583333333,1.61809725,-2.705000958333333
1413393212240760500,-0.07260569688296412,0.033510321638291124,0.06981317007977318,9.496106083333332,0.6701210833333332,-2.8194118749999997
1413393212245760500,-0.09215338450530061,0.03630284844148206,0.07888888219014369,8.989429166666666,-0.13075533333333333,-2.7131731666666665
1413393212250760500,-0.05864306286700947,0.024434609527920613,0.10053096491487339,9.177389958333332,-0.8907707083333333,-2.582417833333333
1413393212255760500,-0.005585053606381855,0.009075712110370514,0.11379546723003027,9.299973083333333,-1.2340034583333332,-2.476179125
1413393212260760500,0.03700098014227979,0.013264502315156905,0.10053096491487339,9.586000375,-0.8172208333333333,-2.7458620000000002
1413393212265760500,0.0614355896702004,0.023736477827122883,0.09145525280450287,9.275456458333332,0.07354987499999999,-2.582417833333333
1413393212270760500,0.04468042885105484,0.017453292519943295,0.0767944870877505,9.536967125,0.4985047083333333,-2.6886565416666666
1413393212275760500,0.009773843811168246,0.028623399732707,0.060039326268604934,9.471589458333332,0.4004382083333333,-2.606934458333333
1413393212280760500,-0.01884955592153876,0.029321531433504733,0.07190756518216637,9.496106083333332,0.220649625,-2.9256505833333333
1413393212285760500,-0.032114058236695664,0.04258603374866164,0.08656833089891874,9.332661916666666,0.122583125,-2.705000958333333
1413393212290760500,-0.04328416544945937,0.023038346126325153,0.08447393579652555,9.398039583333333,-0.04903325,-2.8194118749999997
1413393212295760500,-0.0307177948351002,0.041887902047863905,0.09494591130849153,9.659550249999999,-0.3759215833333333,-2.9174783749999995
1413393212300760500,-0.01117010721276371,0.041887902047863905,0.09354964790689606,9.1201845,-0.43312704166666666,-2.4925235416666665
1413393212305760500,-0.0006981317007977319,0.024434609527920613,0.07749261878854824,9.291800875,-0.4903325,-2.59876225
1413393212310760500,0.020943951023931952,0.014660765716752367,0.07120943348136866,9.242767624999999,-0.4004382083333333,-2.5252123749999997
1413393212315760500,0.032812189937493394,0.008377580409572781,0.07539822368615504,9.447072833333333,-0.0980665,-2.655967708333333
1413393212320760500,0.02652900463031381,0.0013962634015954637,0.08936085770210968,9.496106083333332,0.269682875,-2.69682875
1413393212325760500,0.006283185307179587,0.01117010721276371,0.09773843811168245,9.447072833333333,0.44129925,-2.7376897916666665
1413393212330760500,-0.011868238913561441,0.027925268031909273,0.10122909661567112,9.7085835,0.2533384583333333,-2.8439284999999996
1413393212335760500,-0.028623399732707,0.03700098014227979,0.09145525280450287,9.757616749999999,0.0,-2.8684451249999996
1413393212340760500,-0.028623399732707,0.041887902047863905,0.07749261878854824,9.586000375,-0.17161637500000002,-2.754034208333333
1413393212345760500,-0.01815142422074103,0.04817108735504349,0.07051130178057091,9.324489708333333,-0.48216029166666663,-2.5006957499999998
1413393212350760500,0.005585053606381855,0.02583087292951608,0.0767944870877505,9.079323458333333,-0.5148491249999999,-2.3699404166666667
1413393212355760500,0.020943951023931952,0.016755160819145562,0.0879645943005142,9.201906583333333,-0.17978858333333333,-2.574245625
1413393212360760500,0.02234021442552742,0.008377580409572781,0.09075712110370514,9.283628666666665,0.057205458333333334,-2.6151066666666667
1413393212365760500,0.009075712110370514,0.005585053606381855,0.08307767239493008,9.487933875,0.13892754166666665,-2.7867230416666664
1413393212370760500,-0.003874272108078003,0.02597012184560299,0.076698437333107,9.802794456481934,0.19690586626529694,-2.963913917541504
1413393212375760500,-0.0163586363196373,0.04273035377264023,0.06698254495859146,9.541703224182129,0.03410227224230766,-2.833632469177246
1413393212380760500,-0.024784155189990997,0.03002806566655636,0.07050256431102753,9.362010955810547,-0.1608607918024063,-2.6713509559631348
1413393212385760500,-0.012979082763195038,0.051624447107315063,0.0753655657172203,9.451196670532227,-0.3075518012046814,-2.6790642738342285
1413393212390760500,0.0071312785148620605,0.03345843404531479,0.08795838057994843,8.846799850463867,-0.19360746443271637,-2.4027793407440186
1413393212395760500,0.0008314847946166992,0.0012708250433206558,0.09972672909498215,9.248152732849121,0.1428559273481369,-2.5497870445251465
1413393212400760500,-0.00896485149860382,0.01744767837226391,0.09051452577114105,9.753735542297363,-0.036000460386276245,-2.776491641998291
1413393212405760500,-0.011730626225471497,0.0293638426810503,0.08428052067756653,9.622063636779785,-0.24911825358867645,-2.95635724067688
1413393212410760500,-0.00744948536157608,0.01742049865424633,0.07888709008693695,9.206002235412598,-0.22624090313911438,-2.655163526535034
1413393212415760500,0.0011430233716964722,0.02314627356827259,0.07666898518800735,9.802058219909668,-0.34120434522628784,-2.881335973739624
1413393212420760500,0.01785440742969513,0.050973065197467804,0.08242250233888626,9.279594421386719,-0.14538614451885223,-2.5727415084838867
1413393212425760500,0.02326039969921112,0.025655729696154594,0.09984341263771057,9.011324882507324,0.10763396322727203,-2.557931900024414
1413393212430760500,0.00510069727897644,0.004230298101902008,0.09538640826940536,9.45310115814209,0.32925644516944885,-2.7611286640167236
1413393212435760500,-0.01653391867876053,0.015506504103541374,0.08986464142799377,9.484966278076172,0.2654320299625397,-2.695934772491455
1413393212440760500,-0.034079909324645996,0.018667565658688545,0.08860763907432556,9.467531204223633,-0.1270764321088791,-2.7286996841430664
1413393212445760500,-0.030566178262233734,0.023041492328047752,0.07245077937841415,9.418328285217285,-0.5599842667579651,-2.7275428771972656
1413393212450760500,-0.00600191205739975,0.026711663231253624,0.07398061454296112,9.491172790527344,-0.4860013425350189,-2.6865386962890625
1413393212455760500,0.02542698383331299,0.027858635410666466,0.08519421517848969,9.548347473144531,-0.2342812865972519,-2.7036304473876953
1413393212460760500,0.03169479966163635,0.03884933143854141,0.08844375610351562,9.395087242126465,-0.08864656090736389,-2.605588912963867
1413393212465760500,0.024041853845119476,0.03284250944852829,0.08019194006919861,9.330208778381348,0.27186399698257446,-2.6794819831848145
1413393212470760500,0.0030623972415924072,0.029545558616518974,0.08653217554092407,9.223920822143555,0.4683344066143036,-2.525397777557373
1413393212475760500,-0.02005019038915634,0.009797448292374611,0.08916442841291428,9.395153999328613,0.13239745795726776,-2.6714870929718018
1413393212480760500,-0.03535276651382446,0.012426584959030151,0.08231872320175171,9.60667610168457,-0.18565943837165833,-2.8092737197875977
1413393212485760500,-0.024944506585597992,0.02440822683274746,0.08315856754779816,9.426283836364746,-0.2574267089366913,-2.6953907012939453
1413393212490760500,-0.010990090668201447,0.018917197361588478,0.0850166380405426,9.41867446899414,-0.17596599459648132,-2.8261899948120117
1413393212495760500,0.002342909574508667,0.025796549394726753,0.0828704908490181,9.500053405761719,-0.2505488991737366,-2.630014419555664
1413393212500760500,0.018446847796440125,0.02570389024913311,0.07460490614175797,9.663498878479004,-0.2502577006816864,-2.7438864707946777
1413393212505760500,0.013460136950016022,0.0321105420589447,0.06758593767881393,9.288921356201172,-0.04484667629003525,-2.66335129737854
1413393212510760500,0.011425778269767761,0.019630448892712593,0.07324957847595215,9.018884658813477,-0.09499114751815796,-2.532489061355591
1413393212515760500,0.010818630456924438,0.002783535048365593,0.09363235533237457,9.255430221557617,-0.0480814166367054,-2.6219663619995117
1413393212520760500,-0.0032330304384231567,0.01604231633245945,0.0865495353937149,9.66481876373291,0.21294426918029785,-2.670729160308838
1413393212525760500,-0.01513904333114624,0.03419974446296692,0.10045263171195984,9.492961883544922,0.37872785329818726,-2.7451236248016357
1413393212530760500,-0.028387032449245453,0.021710848435759544,0.09272906929254532,9.336730003356934,-0.02892027422785759,-2.6961750984191895
1413393212535760500,-0.024317070841789246,0.0314226895570755,0.08065542578697205,9.499594688415527,-0.470203161239624,-2.7194645404815674
1413393212540760500,-0.007491692900657654,0.034150563180446625,0.06835559010505676,9.33668327331543,-0.4287436902523041,-2.6463935375213623
1413393212545760500,0.014281116425991058,0.03269664943218231,0.07330167293548584,9.36985969543457,-0.4780226945877075,-2.6380324363708496
1413393212550760500,0.026773303747177124,0.026602094992995262,0.08299952000379562,9.222657203674316,-0.2511908710002899,-2.5811827182769775
1413393212555760500,0.02746337652206421,0.014792723581194878,0.10124920308589935,9.280659675598145,0.23734326660633087,-2.6063199043273926
1413393212560760500,0.0038087964057922363,0.013839496299624443,0.09977714717388153,9.551217079162598,0.6547406315803528,-2.7936410903930664
1413393212565760500,-0.027704454958438873,0.029915442690253258,0.08706164360046387,9.550686836242676,0.40369030833244324,-2.752977132797241
1413393212570760500,-0.040248990058898926,0.038540564477443695,0.07390745729207993,9.418246269226074,-0.16004341840744019,-2.7611846923828125
1413393212575760500,-0.02417919784784317,0.02869228832423687,0.07175610959529877,9.49122142791748,-0.5123589634895325,-2.6706886291503906
1413393212580760500,-0.0025160610675811768,0.03973608464002609,0.07108967751264572,9.565248489379883,-0.5352204442024231,-2.7030603885650635
1413393212585760500,0.020499736070632935,0.033400967717170715,0.08316861838102341,9.116761207580566,-0.3559471070766449,-2.4755661487579346
1413393212590760500,0.029540807008743286,0.016706248745322227,0.09067632257938385,9.484491348266602,0.02623351477086544,-2.7034544944763184
1413393212595760500,0.02182510495185852,0.025958465412259102,0.09896892309188843,9.468748092651367,0.3779391348361969,-2.581408977508545
1413393212600760500,-0.010887116193771362,0.013215603306889534,0.08860313892364502,9.403636932373047,0.5101239085197449,-2.7206783294677734
1413393212605760500,-0.03185991197824478,0.01943814940750599,0.07384141534566879,9.631682395935059,-0.05493466928601265,-2.752227544784546
1413393212610760500,-0.027696438133716583,0.026616087183356285,0.06827463209629059,9.573493957519531,-0.39878639578819275,-2.743708610534668
1413393212615760500,-0.004585817456245422,0.022349530830979347,0.0719033032655716,9.352644920349121,-0.6019559502601624,-2.524160861968994
1413393212620760500,0.015742138028144836,0.02153533138334751,0.07608465850353241,9.320684432983398,-0.2912503778934479,-2.4752371311187744
1413393212625760500,0.02464769035577774,0.02931508980691433,0.08790262043476105,9.24795150756836,0.018431643024086952,-2.597846031188965
1413393212630760500,0.015498526394367218,0.021724166348576546,0.09617181122303009,9.435601234436035,0.31294524669647217,-2.6798479557037354
1413393212635760500,-0.007510483264923096,0.023756789043545723,0.09129587560892105,9.558609008789062,0.3886268138885498,-2.777113199234009
1413393212640760500,-0.03046335279941559,0.027260588482022285,0.075412318110466,9.25633430480957,0.19116894900798798,-2.7530152797698975
1413393212645760500,-0.030486591160297394,0.020872967317700386,0.07752558588981628,9.157086372375488,-0.21938998997211456,-2.663085460662842
1413393212650760500,-0.01791386306285858,0.019515646621584892,0.07943692058324814,9.507598876953125,-0.6927867531776428,-2.63767671585083
1413393212655760500,0.011436425149440765,0.022401629015803337,0.08644106239080429,9.434521675109863,-0.5593659281730652,-2.686861515045166
1413393212660760500,0.026131033897399902,0.03066840209066868,0.08787637948989868,9.304560661315918,-0.07059404999017715,-2.745055675506592
1413393212665760500,0.02398054301738739,0.030058229342103004,0.09685014933347702,9.321264266967773,0.20586073398590088,-2.736722946166992
1413393212670760500,0.0009378790855407715,0.02940363995730877,0.08365892618894577,9.525551795959473,0.3056340515613556,-2.825878143310547
1413393212675760500,-0.01723756641149521,0.03140964359045029,0.07400981336832047,9.45217514038086,0.2983706593513489,-2.7609386444091797
1413393212680760500,-0.031181134283542633,0.032043613493442535,0.07401825487613678,9.36220932006836,-0.030491061508655548,-2.785479784011841
1413393212685760500,-0.027720831334590912,0.021611100062727928,0.08651455491781235,9.067253112792969,-0.3326733112335205,-2.5815939903259277
1413393212690760500,-0.010247752070426941,0.01672365330159664,0.08991514146327972,9.401276588439941,-0.6422184109687805,-2.6215672492980957
1413393212695760500,0.01345767080783844,0.020229293033480644,0.08852189779281616,9.492051124572754,-0.3632475435733795,-2.7361671924591064
1413393212700760500,0.02612575888633728,0.025083867833018303,0.08848857879638672,9.46815299987793,-0.09540996700525284,-2.7611300945281982
1413393212705760500,0.021266430616378784,0.024483246728777885,0.08505305647850037,9.369482040405273,0.23895889520645142,-2.801684617996216
1413393212710760500,0.0009645894169807434,0.028681768104434013,0.07327769696712494,9.525527000427246,0.2312588095664978,-2.817336082458496
1413393212715760500,-0.017225399613380432,0.03628189116716385,0.0747278481721878,9.354523658752441,0.28065377473831177,-2.654723882675171
1413393212720760500,-0.021387934684753418,0.03136126697063446,0.08515527099370956,9.280577659606934,-0.10407054424285889,-2.6142513751983643
1413393212725760500,-0.017929665744304657,0.024443989619612694,0.09132741391658783,9.320680618286133,-0.30818676948547363,-2.557154655456543
1413393212730760500,-0.0047036707401275635,0.01952964998781681,0.08990448713302612,9.344820976257324,-0.3311172425746918,-2.5330898761749268
1413393212735760500,0.00720389187335968,0.018750974908471107,0.08989214897155762,9.426892280578613,-0.14326642453670502,-2.6062474250793457
1413393212740760500,0.007209219038486481,0.015300508588552475,0.07803910225629807,9.476203918457031,-0.05491948127746582,-2.6546149253845215
1413393212745760500,0.005868494510650635,0.019603287801146507,0.06980299949645996,9.639063835144043,0.08320137858390808,-2.8092639446258545
1413393212750760500,0.00030982494354248047,0.029351184144616127,0.06779292225837708,9.49251937866211,0.1419343203306198,-2.7196662425994873
1413393212755760500,-0.007409542798995972,0.04396330565214157,0.07393687218427658,9.534000396728516,-0.07841808348894119,-2.6704790592193604
1413393212760760500,-0.006743736565113068,0.03216053545475006,0.08576906472444534,9.239604949951172,-0.24257118999958038,-2.4998762607574463
1413393212765760500,-0.001856692135334015,0.02236037887632847,0.08851434290409088,9.402975082397461,-0.08826874196529388,-2.6062707901000977
1413393212770760500,-0.005388729274272919,0.017377140000462532,0.09548573195934296,9.45199203491211,0.1093599796295166,-2.7044599056243896
1413393212775760500,-0.01094353199005127,0.02011937089264393,0.08721403777599335,9.435151100158691,-0.20087836682796478,-2.6632511615753174
1413393212780760500,-0.009538881480693817,0.017484163865447044,0.08092229068279266,9.540704727172852,-0.26610180735588074,-2.8419861793518066
1413393212785760500,-0.006777562201023102,0.02805514447391033,0.07324212044477463,9.614969253540039,-0.1199575886130333,-2.8498263359069824
1413393212790760500,0.0009615868330001831,0.030016032978892326,0.0830010324716568,9.418744087219238,-0.2005859762430191,-2.7848293781280518
1413393212795760500,0.008676201105117798,0.034092977643013,0.0822644904255867,9.255451202392578,-0.28300780057907104,-2.532334327697754
1413393212800760500,0.013477832078933716,0.018166473135352135,0.08711430430412292,9.345849990844727,-0.07126294821500778,-2.573038101196289
1413393212805760500,0.011432871222496033,0.02166726626455784,0.09416596591472626,9.436121940612793,0.28769204020500183,-2.6878550052642822
1413393212810760500,-0.0025194138288497925,0.016011053696274757,0.0969696044921875,9.296806335449219,0.21543250977993011,-2.614854097366333
1413393212815760500,-0.019342876970767975,0.020943881943821907,0.08164820820093155,9.33694076538086,-0.0952174961566925,-2.712092876434326
1413393212820760500,-0.019351623952388763,0.01474774070084095,0.08301825821399689,9.622220039367676,-0.1928793042898178,-2.939730644226074
1413393212825760500,-0.010214738547801971,0.032127246260643005,0.08084635436534882,9.573569297790527,-0.1763080358505249,-2.76035213470459
1413393212830760500,-0.0032291561365127563,0.033420585095882416,0.084986612200737,9.50837230682373,-0.38908565044403076,-2.686784029006958
1413393212835760500,0.011427514255046844,0.043251365423202515,0.07742072641849518,9.410314559936523,-0.24211999773979187,-2.6787121295928955
1413393212840760500,0.0169687420129776,0.0329083576798439,0.08085231482982635,9.329421043395996,0.019263729453086853,-2.5492053031921387
1413393212845760500,0.012120962142944336,0.0286101121455431,0.0878932997584343,9.476916313171387,0.2890959084033966,-2.704277992248535
1413393212850760500,-0.004591897130012512,0.013857332989573479,0.08170494437217712,9.158275604248047,0.17303507030010223,-2.5412135124206543
1413393212855760500,-0.017908670008182526,0.01743541844189167,0.07606518268585205,9.508580207824707,0.0591011643409729,-2.875171184539795
1413393212860760500,-0.02427283674478531,0.020995372906327248,0.08021516352891922,9.328819274902344,-0.11877995729446411,-2.6631593704223633
1413393212865760500,-0.013703390955924988,0.023750992491841316,0.08290128409862518,9.541111946105957,-0.3068808615207672,-2.6867716312408447
1413393212870760500,-0.002505674958229065,0.03137637674808502,0.0843091607093811,9.516231536865234,-0.38186711072921753,-2.6542677879333496
1413393212875760500,0.009285524487495422,0.029306000098586082,0.07948749512434006,9.606536865234375,-0.217484250664711,-2.687041997909546
1413393212880760500,0.01699313521385193,0.033466778695583344,0.08368602395057678,9.29654312133789,0.06182669475674629,-2.5899555683135986
1413393212885760500,0.008630841970443726,0.03003937564790249,0.07816100120544434,9.207237243652344,0.20681190490722656,-2.6225523948669434
1413393212890760500,-0.007449895143508911,0.007668895646929741,0.07819655537605286,9.133875846862793,0.08163037151098251,-2.4596033096313477
1413393212895760500,-0.017206065356731415,0.01607096754014492,0.0801943838596344,9.745569229125977,0.010671096853911877,-2.8910000324249268
1413393212900760500,-0.017251692712306976,0.033486559987068176,0.0885414183139801,9.320751190185547,-0.183224156498909,-2.5487380027770996
1413393212905760500,-0.016530439257621765,0.01607353426516056,0.08853238075971603,9.271585464477539,-0.3814146816730499,-2.78550386428833
1413393212910760500,-0.0018108934164047241,0.021628020331263542,0.07733560353517532,9.581463813781738,-0.3658471405506134,-2.646059036254883
1413393212915760500,0.01419919729232788,0.03214503079652786,0.07668517529964447,9.761397361755371,-0.15955856442451477,-2.7761480808258057
1413393212920760500,0.015616744756698608,0.044587597250938416,0.0781640112400055,9.354220390319824,0.2492590695619583,-2.6064107418060303
1413393212925760500,-0.000399567186832428,0.02659863792359829,0.0753406286239624,9.158223152160645,0.14047546684741974,-2.622480869293213
1413393212930760500,-0.006095409393310547,0.018946999683976173,0.08795149624347687,9.247620582580566,-0.12085451185703278,-2.5324771404266357
1413393212935760500,-0.01100873202085495,0.006848903372883797,0.09065382927656174,9.574240684509277,-0.06949885189533234,-2.776893138885498
1413393212940760500,-0.006041213870048523,0.024259233847260475,0.09966825693845749,9.394949913024902,-0.1271139681339264,-2.728316307067871
1413393212945760500,-0.008054830133914948,0.018979394808411598,0.0844200849533081,9.156655311584473,-0.2924586236476898,-2.622798442840576
1413393212950760500,0.007172077894210815,0.018924126401543617,0.0898975133895874,9.548425674438477,-0.29152339696884155,-2.719360828399658
1413393212955760500,0.012818530201911926,0.02862703613936901,0.08086740225553513,9.835217475891113,0.1264360100030899,-2.93939208984375
1413393212960760500,0.003793656826019287,0.0417916476726532,0.07818068563938141,9.403922080993652,0.32981377840042114,-2.793738842010498
1413393212965760500,-0.012275367975234985,0.03634721785783768,0.06495015323162079,9.206452369689941,0.0021669596899300814,-2.7284438610076904
1413393212970760500,-0.008924528956413269,0.028754079714417458,0.07601369917392731,9.18178653717041,-0.16041912138462067,-2.4753103256225586
1413393212975760500,-0.007489889860153198,0.012481173500418663,0.08851534128189087,9.362167358398438,-0.11068090796470642,-2.6795265674591064
1413393212980760500,-0.010215185582637787,0.020059606060385704,0.08923564851284027,9.41956901550293,-0.030432209372520447,-2.5981369018554688
1413393212985760500,-0.008809775114059448,0.013964973390102386,0.088605597615242,9.377265930175781,-0.29202789068222046,-2.6794097423553467
1413393212990760500,0.005764216184616089,0.02102230302989483,0.08580432832241058,9.523635864257812,-0.29095521569252014,-2.6542818546295166
1413393212995760500,0.005175888538360596,0.030005397275090218,0.07459324598312378,9.71261215209961,0.053321897983551025,-2.8417298793792725
1413393213000760500,-0.0003371387720108032,0.032790735363960266,0.06701154261827469,9.314183235168457,0.34501680731773376,-2.769108772277832
1413393213005760500,-0.013717405498027802,0.03351303189992905,0.06973900645971298,9.296500205993652,-0.02310231141746044,-2.752765417098999
1413393213010760500,-0.008966982364654541,0.03357505053281784,0.07942375540733337,9.198030471801758,-0.225211501121521,-2.4590537548065186
1413393213015760500,0.00025556981563568115,0.02299833483994007,0.09069561213254929,9.337911605834961,-0.1916837841272354,-2.5732760429382324
1413393213020760500,-0.001811005175113678,0.014575576409697533,0.09562911093235016,9.313318252563477,-0.07963094860315323,-2.6551244258880615
1413393213025760500,-0.0011989176273345947,0.014627648517489433,0.09900674968957901,9.434440612792969,-0.33319997787475586,-2.663302183151245
1413393213030760500,0.00436854362487793,0.018161242827773094,0.09062625467777252,9.597408294677734,-0.16758430004119873,-2.6627719402313232
1413393213035760500,0.005173102021217346,0.025092264637351036,0.07529059797525406,9.574280738830566,0.19976173341274261,-2.793175220489502
1413393213040760500,-0.007326379418373108,0.028665298596024513,0.07114190608263016,9.45261287689209,0.22920772433280945,-2.7361536026000977
1413393213045760500,-0.011584393680095673,0.03210623562335968,0.07113561034202576,9.58245849609375,-0.11268230527639389,-2.7521774768829346
1413393213050760500,0.0001502782106399536,0.04543261229991913,0.08438025414943695,9.304537773132324,-0.24026024341583252,-2.467082977294922
1413393213055760500,0.0008944496512413025,0.027947572991251945,0.09070573002099991,9.019071578979492,-0.17527036368846893,-2.500629186630249
1413393213060760500,0.004482880234718323,0.010407727211713791,0.09416305273771286,9.190469741821289,-0.1706082820892334,-2.60626220703125
1413393213065760500,0.007176324725151062,0.016674542799592018,0.09764567017555237,9.556962966918945,-0.12903957068920135,-2.6219117641448975
1413393213070760500,0.005756065249443054,0.01740637607872486,0.08651024103164673,9.688056945800781,0.05319894105195999,-2.727879762649536
1413393213075760500,-0.004567638039588928,0.020248429849743843,0.07742179185152054,9.566234588623047,0.14279189705848694,-2.809589385986328
1413393213080760500,-0.012951217591762543,0.028030766174197197,0.07255788892507553,9.353734016418457,0.041512925177812576,-2.7279891967773438
1413393213085760500,-0.010285809636116028,0.03350228816270828,0.07454978674650192,9.476137161254883,-0.0961293950676918,-2.6951968669891357
1413393213090760500,-0.0011930391192436218,0.03834480047225952,0.07526528835296631,9.40284538269043,-0.2156827598810196,-2.6463990211486816
1413393213095760500,0.0024006888270378113,0.03288399428129196,0.08587030321359634,9.125237464904785,-0.16725708544254303,-2.54142165184021
1413393213100760500,0.009286962449550629,0.010483907535672188,0.0900169312953949,9.075927734375,-0.14704151451587677,-2.4106268882751465
1413393213105760500,0.009259425103664398,0.009629171341657639,0.10182395577430725,9.598185539245605,0.009813601151108742,-2.678797960281372
1413393213110760500,-0.007466152310371399,0.016012871637940407,0.0872558206319809,9.598620414733887,0.1519172489643097,-2.7527060508728027
1413393213115760500,-0.014373667538166046,0.014678733423352242,0.08020608127117157,9.500568389892578,0.08528634160757065,-2.8181557655334473
1413393213120760500,-0.018565788865089417,0.024511760100722313,0.07458586990833282,9.54100227355957,-0.04025311395525932,-2.8172719478607178
1413393213125760500,-0.010963276028633118,0.03422756493091583,0.0731034055352211,9.565743446350098,-0.22624434530735016,-2.800779342651367
1413393213130760500,-0.006698697805404663,0.043231889605522156,0.07107169181108475,9.476546287536621,-0.2562882900238037,-2.679090976715088
1413393213135760500,0.007237866520881653,0.04194904863834381,0.07818029075860977,9.239602088928223,-0.3640395402908325,-2.524409770965576
1413393213140760500,0.012073412537574768,0.028690507635474205,0.08933565765619278,9.01855182647705,-0.10526865720748901,-2.3292429447174072
1413393213145760500,0.014187254011631012,0.0012599993497133255,0.09698744118213654,9.483967781066895,0.06761275231838226,-2.7039198875427246
1413393213150760500,0.002378135919570923,0.018717272207140923,0.08656054735183716,9.623455047607422,0.24086453020572662,-2.760680675506592
1413393213155760500,-0.01725263148546219,0.01678493432700634,0.07876431196928024,9.51707649230957,0.0760778933763504,-2.744535446166992
1413393213160760500,-0.01860089600086212,0.028688037768006325,0.08431672304868698,9.451057434082031,-0.10443456470966339,-2.7360992431640625
1413393213165760500,-0.015126518905162811,0.02801571600139141,0.08710277080535889,9.48405933380127,-0.22533273696899414,-2.760279417037964
1413393213170760500,-0.008808210492134094,0.03204634040594101,0.07946060597896576,9.656122207641602,-0.2575543522834778,-2.711296558380127
1413393213175760500,0.010749660432338715,0.040420278906822205,0.08513665199279785,9.378093719482422,-0.3482910990715027,-2.662729024887085
1413393213180760500,0.02185852825641632,0.03566874563694,0.08931081742048264,8.912273406982422,-0.1524827927350998,-2.484281539916992
1413393213185760500,0.018323853611946106,0.01123415119946003,0.09903701394796371,9.084146499633789,0.19069646298885345,-2.5089333057403564
1413393213190760500,-0.0011104941368103027,0.011786088347434998,0.0900641605257988,9.721524238586426,0.30444958806037903,-2.8255913257598877
1413393213195760500,-0.014438018202781677,0.023657260462641716,0.08925119042396545,9.525246620178223,0.11669426411390305,-2.744729995727539
1413393213200760500,-0.020754747092723846,0.028624719008803368,0.07805362343788147,9.353056907653809,-0.1605236530303955,-2.646962881088257
1413393213205760500,-0.019954055547714233,0.02171926759183407,0.0738830640912056,9.516207695007324,-0.18429437279701233,-2.760120153427124
1413393213210760500,-0.01089458167552948,0.030050894245505333,0.07317694276571274,9.655755996704102,-0.2914765179157257,-2.727436065673828
1413393213215760500,0.00576617568731308,0.04454033076763153,0.08157134056091309,9.353562355041504,-0.3562438189983368,-2.65505051612854
1413393213220760500,0.017689421772956848,0.031462810933589935,0.08445503562688828,8.937104225158691,-0.15180830657482147,-2.5085155963897705
1413393213225760500,0.015616558492183685,0.010598365217447281,0.09285581856966019,9.068042755126953,0.20707498490810394,-2.5166444778442383
1413393213230760500,0.004450678825378418,0.009008059278130531,0.08934049308300018,9.762166023254395,0.2954391539096832,-2.825500249862671
1413393213235760500,-0.011685788631439209,0.02565300650894642,0.08854693919420242,9.664227485656738,0.027118319645524025,-2.809380054473877
1413393213240760500,-0.019320286810398102,0.027272818610072136,0.08017279207706451,9.238897323608398,-0.15177910029888153,-2.6308257579803467
1413393213245760500,-0.01784054934978485,0.021110182628035545,0.07732091844081879,9.450593948364258,-0.07006604224443436,-2.809797763824463
1413393213250760500,-0.011602193117141724,0.029304837808012962,0.07594919204711914,9.737042427062988,-0.3088430166244507,-2.694608211517334
1413393213255760500,0.002334609627723694,0.033290185034275055,0.07326029241085052,9.558113098144531,-0.31569477915763855,-2.711552143096924
1413393213260760500,0.01558636873960495,0.04682859033346176,0.07817722856998444,9.051702499389648,-0.19994953274726868,-2.4512970447540283
1413393213265760500,0.01278415322303772,0.019784806296229362,0.08651223033666611,8.896132469177246,0.19901733100414276,-2.427299737930298
1413393213270760500,0.0030245035886764526,0.006917549297213554,0.0941440612077713,9.631367683410645,0.14823637902736664,-2.7442262172698975
1413393213275760500,-0.010957859456539154,0.02213161252439022,0.08366715908050537,9.835407257080078,0.010576906614005566,-2.9066760540008545
1413393213280760500,-0.016552239656448364,0.03138051927089691,0.080245740711689,9.288470268249512,-0.11839589476585388,-2.5981717109680176
1413393213285760500,-0.01646171510219574,0.01761751063168049,0.08091508597135544,9.123784065246582,-0.16836903989315033,-2.6143550872802734
1413393213290760500,-0.004607118666172028,0.016781365498900414,0.08429205417633057,9.524529457092285,-0.2516755163669586,-2.6947009563446045
1413393213295760500,0.004394546151161194,0.022876055911183357,0.08084653317928314,9.648036003112793,-0.3242562711238861,-2.735952854156494
1413393213300760500,0.012814164161682129,0.05020276457071304,0.07882104814052582,9.476621627807617,-0.1342085748910904,-2.5733282566070557
1413393213305760500,0.011430412530899048,0.023990092799067497,0.08863978087902069,8.822327613830566,0.19129717350006104,-2.541362762451172
1413393213310760500,0.0016019195318222046,0.008440693840384483,0.10187406837940216,9.451834678649902,0.16401632130146027,-2.679361343383789
1413393213315760500,-0.010977543890476227,0.017222808673977852,0.0899280309677124,9.778203964233398,0.010613706894218922,-2.817086696624756
1413393213320760500,-0.01653950661420822,0.03547969460487366,0.0836845189332962,9.378579139709473,-0.11743873357772827,-2.7611403465270996
1413393213325760500,-0.010196037590503693,0.018297160044312477,0.08926086127758026,9.287307739257812,-0.21789437532424927,-2.614361047744751
1413393213330760500,-0.003224790096282959,0.02388347126543522,0.08008876442909241,9.524046897888184,-0.26010075211524963,-2.727539300918579
1413393213335760500,0.00585465133190155,0.02289939858019352,0.07326510548591614,9.501119613647461,-0.15279076993465424,-2.6055421829223633
1413393213340760500,0.010027788579463959,0.03819514811038971,0.07048121094703674,9.69718074798584,-0.11787135154008865,-2.8419978618621826
1413393213345760500,0.010705709457397461,0.03860952705144882,0.07664616405963898,9.075605392456055,0.13376547396183014,-2.5739498138427734
1413393213350760500,0.002337515354156494,0.018325822427868843,0.08447497338056564,8.944999694824219,0.2791227102279663,-2.5413641929626465
1413393213355760500,-0.009562715888023376,0.013045215979218483,0.08798579126596451,9.52547550201416,0.09217442572116852,-2.7357800006866455
1413393213360760500,-0.02007056027650833,0.0270941611379385,0.08498362451791763,9.672432899475098,-0.17497724294662476,-2.8091628551483154
1413393213365760500,-0.010964453220367432,0.021716007962822914,0.08577226847410202,9.230337142944336,-0.3810132145881653,-2.6392290592193604
1413393213370760500,-0.0045816898345947266,0.018265848979353905,0.07880313694477081,9.344314575195312,-0.20257261395454407,-2.671048641204834
1413393213375760500,0.008643433451652527,0.022983869537711143,0.08014924824237823,9.508748054504395,-0.09545538574457169,-2.6377830505371094
1413393213380760500,0.007968291640281677,0.027103019878268242,0.07951895147562027,9.835561752319336,-0.045241616666316986,-2.8824973106384277
1413393213385760500,0.0037100613117218018,0.04332146793603897,0.07601922005414963,9.468376159667969,0.04362906515598297,-2.6384401321411133
1413393213390760500,-0.0053504109382629395,0.029530150815844536,0.08442448079586029,8.91260814666748,0.2144688367843628,-2.5088534355163574
1413393213395760500,-0.01094430685043335,0.01033521257340908,0.09140840917825699,9.28011703491211,-0.046244122087955475,-2.557223081588745
1413393213400760500,-0.017244696617126465,0.02219797484576702,0.0863819569349289,9.672003746032715,-0.20028573274612427,-2.768272876739502
1413393213405760500,-0.010985009372234344,0.027930045500397682,0.08508770167827606,9.386567115783691,-0.27499112486839294,-2.64705491065979
1413393213410760500,-0.0018124133348464966,0.017530573531985283,0.08228645473718643,9.425944328308105,-0.30047664046287537,-2.589667558670044
1413393213415760500,0.011420682072639465,0.025857219472527504,0.08014463633298874,9.442671775817871,-0.19314786791801453,-2.5319011211395264
1413393213420760500,0.007970362901687622,0.018764352425932884,0.08304934203624725,9.533838272094727,-0.012753359042108059,-2.7521703243255615
1413393213425760500,0.005828842520713806,0.03757673501968384,0.07392804324626923,9.452314376831055,0.10913947224617004,-2.8259117603302
1413393213430760500,-0.006079882383346558,0.02809700183570385,0.08506916463375092,8.98656177520752,0.17374828457832336,-2.541620969772339
1413393213435760500,-0.007478475570678711,0.012626685202121735,0.09772127121686935,9.329242706298828,-0.022382814437150955,-2.6223199367523193
1413393213440760500,-0.012311510741710663,0.020826691761612892,0.0947597324848175,9.753471374511719,-0.16826535761356354,-2.751673698425293
1413393213445760500,-0.010284170508384705,0.027870582416653633,0.09137813746929169,9.288809776306152,-0.27360349893569946,-2.663377523422241
1413393213450760500,0.003049984574317932,0.01330137625336647,0.09423502534627914,9.156583786010742,-0.31613215804100037,-2.5577080249786377
1413393213455760500,0.007926121354103088,0.017482267692685127,0.08146952092647552,9.42566204071045,-0.1450037658214569,-2.613581418991089
1413393213460760500,0.009327977895736694,0.019502943381667137,0.08300235122442245,9.590609550476074,0.04386855661869049,-2.8664982318878174
1413393213465760500,0.0002563595771789551,0.034077152609825134,0.07539504766464233,9.591465950012207,0.0935761034488678,-2.7034599781036377
1413393213470760500,-0.0060337260365486145,0.03646068274974823,0.07382073998451233,9.395028114318848,0.17386700212955475,-2.679237127304077
1413393213475760500,-0.010936550796031952,0.032994724810123444,0.08448788523674011,9.100564002990723,0.14848747849464417,-2.4516708850860596
1413393213480760500,-0.015107981860637665,0.020093170925974846,0.0927649438381195,9.704184532165527,-0.1686740219593048,-2.776576519012451
1413393213485760500,-0.009559184312820435,0.0417773500084877,0.08286137878894806,9.622941970825195,-0.3550258278846741,-2.6459314823150635
1413393213490760500,0.0008974224328994751,0.020972730591893196,0.08519205451011658,9.173524856567383,-0.3319907486438751,-2.5247652530670166
1413393213495760500,0.009364470839500427,0.017450815066695213,0.08019764721393585,9.385353088378906,-0.10411814600229263,-2.769146680831909
1413393213500760500,0.008623450994491577,0.01602565310895443,0.0787188783288002,9.329407691955566,-0.00566849997267127,-2.589434862136841
1413393213505760500,-0.0011545568704605103,0.023618726059794426,0.07544185221195221,9.648425102233887,0.10947169363498688,-2.8989462852478027
1413393213510760500,-0.006063200533390045,0.04056723415851593,0.07321065664291382,9.395009994506836,0.19854937493801117,-2.6466593742370605
1413393213515760500,-0.012317843735218048,0.024644536897540092,0.08222843706607819,9.24772834777832,0.09229081124067307,-2.679548501968384
1413393213520760500,-0.014394193887710571,0.0201712716370821,0.0886588767170906,9.385948181152344,-0.09523757547140121,-2.61429762840271
1413393213525760500,-0.012364119291305542,0.02567543275654316,0.09407269954681396,9.679911613464355,-0.41317126154899597,-2.865973472595215
1413393213530760500,-0.0053973570466041565,0.03908324986696243,0.0836821049451828,9.181971549987793,-0.3887225389480591,-2.5005791187286377
1413393213535760500,0.012119166553020477,0.0007735881954431534,0.09629633277654648,9.189495086669922,-0.2092539221048355,-2.5899128913879395
1413393213540760500,0.01495455950498581,0.025089172646403313,0.08435181528329849,9.467509269714355,-0.030184395611286163,-2.662341594696045
1413393213545760500,0.001630336046218872,0.01810397394001484,0.0801844596862793,9.354394912719727,0.18229638040065765,-2.663154125213623
1413393213550760500,-0.009568735957145691,0.03060190938413143,0.07188370823860168,9.746023178100586,0.12549397349357605,-2.980714797973633
1413393213555760500,-0.012345343828201294,0.03306930512189865,0.07943122833967209,9.239294052124023,0.06799966096878052,-2.5489466190338135
1413393213560760500,-0.014380916953086853,0.026564432308077812,0.08856327831745148,9.459726333618164,-0.02997118979692459,-2.7853760719299316
1413393213565760500,-0.013669930398464203,0.029857313260436058,0.08654128015041351,9.451323509216309,-0.22612865269184113,-2.548574447631836
1413393213570760500,-0.00818856805562973,0.031381189823150635,0.08154432475566864,9.533333778381348,-0.429225355386734,-2.776667594909668
1413393213575760500,0.01131952553987503,0.027315353974699974,0.08932337909936905,9.04262924194336,-0.2992427349090576,-2.435537099838257
1413393213580760500,0.0198785662651062,0.009023403748869896,0.08856423199176788,9.492040634155273,0.027131754904985428,-2.776904344558716
1413393213585760500,0.007964000105857849,0.02991308458149433,0.08158285170793533,9.443952560424805,0.09263559430837631,-2.646531343460083
1413393213590760500,-0.003280453383922577,0.01884331740438938,0.07675175368785858,9.599020004272461,0.10139396786689758,-2.956320285797119
1413393213595760500,-0.008875973522663116,0.029350338503718376,0.08506517112255096,9.354026794433594,0.1899566799402237,-2.663224458694458
1413393213600760500,-0.017885178327560425,0.016911106184124947,0.08714229613542557,9.468223571777344,0.010091937147080898,-2.8096961975097656
1413393213605760500,-0.017151810228824615,0.03685850650072098,0.09070725739002228,9.630814552307129,-0.1598358452320099,-2.7521235942840576
1413393213610760500,-0.009559348225593567,0.029342344030737877,0.08857032656669617,9.255633354187012,-0.314608633518219,-2.614283561706543
1413393213615760500,0.002251178026199341,0.02937108837068081,0.08713829517364502,9.141240119934082,-0.28323617577552795,-2.51678204536438
1413393213620760500,0.012136414647102356,0.0062554981559515,0.08302471041679382,9.360727310180664,-0.2669944763183594,-2.532503366470337
1413393213625760500,0.012166514992713928,0.026360711082816124,0.07813293486833572,9.810599327087402,0.08498355001211166,-2.874298572540283
1413393213630760500,0.0001793205738067627,0.02580847032368183,0.07671191543340683,9.20724105834961,0.11716433614492416,-2.630624294281006
1413393213635760500,-0.008818015456199646,0.015426883473992348,0.07739835232496262,9.411059379577637,0.12486866116523743,-2.8013668060302734
1413393213640760500,-0.010895930230617523,0.029423130676150322,0.08018676936626434,9.271607398986816,-0.07937896996736526,-2.5242748260498047
1413393213645760500,-0.015119977295398712,0.02719920687377453,0.08719997107982635,9.607083320617676,-0.029925627633929253,-2.940208673477173
1413393213650760500,-0.013042859733104706,0.029911117628216743,0.08233991265296936,9.28842544555664,-0.30734705924987793,-2.500101089477539
1413393213655760500,-0.0032701194286346436,0.030844980850815773,0.08646787703037262,9.337142944335938,-0.28206101059913635,-2.695561170578003
1413393213660760500,0.009972959756851196,0.024430489167571068,0.08581282943487167,9.140456199645996,-0.25091010332107544,-2.394272804260254
1413393213665760500,0.010757729411125183,0.015246991068124771,0.08295068144798279,9.671825408935547,-0.030148763209581375,-2.9235596656799316
1413393213670760500,0.005822688341140747,0.03272116929292679,0.08164181560277939,9.354310035705566,0.07692860066890717,-2.516429901123047
1413393213675760500,-0.0032887235283851624,0.014070015400648117,0.07949776202440262,9.386316299438477,0.06853508204221725,-2.777252197265625
1413393213680760500,-0.009526148438453674,0.03346513956785202,0.07874742150306702,9.459630966186523,0.0427185595035553,-2.662773847579956
1413393213685760500,-0.011564873158931732,0.015417924150824547,0.08511461317539215,9.501168251037598,-0.07104814052581787,-3.0297961235046387
1413393213690760500,-0.008817784488201141,0.03833167254924774,0.08927486091852188,9.607269287109375,-0.17663557827472687,-2.6057283878326416
1413393213695760500,-0.0074668750166893005,0.026597993448376656,0.08363614976406097,9.44301986694336,-0.25798219442367554,-2.711599826812744
1413393213700760500,0.0044267624616622925,0.03490160405635834,0.08445807546377182,9.296109199523926,-0.2340436577796936,-2.508227825164795
1413393213705760500,0.010030508041381836,0.006926381960511208,0.08857526630163193,9.385760307312012,-0.07082846760749817,-2.662961006164551
1413393213710760500,0.007903322577476501,0.03058937005698681,0.08851107209920883,9.542264938354492,0.13391055166721344,-2.703585386276245
1413393213715760500,-0.005358681082725525,0.014701329171657562,0.08512488007545471,9.214836120605469,0.04324091598391533,-2.5085272789001465
1413393213720760500,-0.008850902318954468,0.024398190900683403,0.08159239590167999,9.598379135131836,-0.021097153425216675,-2.8830513954162598
1413393213725760500,-0.006057508289813995,0.023833638057112694,0.08715032786130905,9.239242553710938,-0.11207456141710281,-2.5080087184906006
1413393213730760500,-0.008097156882286072,0.02091607265174389,0.08512860536575317,9.460365295410156,-0.04638686776161194,-2.866647243499756
1413393213735760500,-0.005312174558639526,0.02645810879766941,0.07883437722921371,9.26338005065918,-0.152850940823555,-2.5734517574310303
1413393213740760500,-0.0012021735310554504,0.02732442133128643,0.0766730010509491,9.557479858398438,-0.2087334245443344,-2.8173668384552
1413393213745760500,0.01067933440208435,0.03001139871776104,0.0823291540145874,9.10818862915039,-0.06225186586380005,-2.5248467922210693
1413393213750760500,0.005889266729354858,0.016738200560212135,0.0871831625699997,9.5501070022583,0.0925137996673584,-2.8175673484802246
1413393213755760500,-0.002570323646068573,0.02717280574142933,0.08512832224369049,9.255999565124512,0.14936864376068115,-2.4924988746643066
1413393213760760500,-0.01097533106803894,0.01605767197906971,0.08017466217279434,9.524791717529297,-0.11943844705820084,-2.7689497470855713
1413393213765760500,-0.006071567535400391,0.031331636011600494,0.08296810835599899,9.30407428741455,-0.18499146401882172,-2.4998490810394287
1413393213770760500,-0.005280099809169769,0.019651660695672035,0.08298592269420624,9.443593978881836,-0.17693312466144562,-2.7688262462615967
1413393213775760500,-0.005327820777893066,0.031348489224910736,0.077435702085495,9.467823028564453,-0.08740077167749405,-2.6141183376312256
1413393213780760500,-0.0025736987590789795,0.020300215110182762,0.07674574851989746,9.345319747924805,-0.16883276402950287,-2.6465165615081787
1413393213785760500,0.007177382707595825,0.03413400799036026,0.07601483166217804,9.337242126464844,-0.184501051902771,-2.662952423095703
1413393213790760500,0.004455246031284332,0.018888579681515694,0.0843808650970459,9.239311218261719,0.07666662335395813,-2.7525746822357178
1413393213795760500,-0.005328357219696045,0.027907786890864372,0.08723337948322296,9.48515796661377,0.21481230854988098,-2.728290319442749
1413393213800760500,-0.007481381297111511,0.025151370093226433,0.08785529434680939,9.337202072143555,-0.12810899317264557,-2.5731945037841797
1413393213805760500,-0.013063140213489532,0.023677634075284004,0.08291099965572357,9.737099647521973,-0.19257253408432007,-2.776675224304199
1413393213810760500,-0.004625186324119568,0.02165593020617962,0.08789994567632675,9.320816040039062,-0.14440257847309113,-2.589851140975952
1413393213815760500,0.00032228976488113403,0.022992709651589394,0.08787030726671219,9.541470527648926,-0.2018803507089615,-2.76066255569458
1413393213820760500,0.0037124454975128174,0.02648583985865116,0.07947999984025955,9.475560188293457,-0.18479213118553162,-2.5565884113311768
1413393213825760500,0.0037236586213111877,0.02867279015481472,0.07739576697349548,9.615328788757324,-0.09463446587324142,-2.809340715408325
1413393213830760500,0.0037583857774734497,0.034939929842948914,0.07810328900814056,9.263988494873047,0.05942097306251526,-2.524658679962158
1413393213835760500,-0.008144326508045197,0.018843619152903557,0.08090167492628098,9.354326248168945,0.11622308939695358,-2.5815045833587646
1413393213840760500,-0.004677966237068176,0.029220731928944588,0.08654766529798508,9.459762573242188,0.011141026392579079,-2.6384010314941406
1413393213845760500,-0.008826270699501038,0.023065218701958656,0.08227764070034027,9.369780540466309,-0.1514175981283188,-2.695708751678467
1413393213850760500,-0.006784997880458832,0.03209351748228073,0.08644524961709976,9.451278686523438,-0.12733498215675354,-2.736435651779175
1413393213855760500,-0.003928914666175842,0.016825592145323753,0.08303829282522202,9.320716857910156,-0.2514643669128418,-2.6707944869995117
1413393213860760500,-0.0018765777349472046,0.01878569833934307,0.07456749677658081,9.606417655944824,-0.20135264098644257,-2.8583664894104004
1413393213865760500,0.00792357325553894,0.024400031194090843,0.07601916790008545,9.3782958984375,-0.07764378935098648,-2.6792397499084473
1413393213870760500,0.010803714394569397,0.02511679194867611,0.0816303938627243,9.337870597839355,0.1499597728252411,-2.679340362548828
1413393213875760500,-0.0018224120140075684,0.021732790395617485,0.08157137036323547,9.370051383972168,0.16404253244400024,-2.597830295562744
1413393213880760500,-0.011723466217517853,0.016038788482546806,0.08584782481193542,9.427295684814453,0.05964863672852516,-2.7448410987854004
1413393213885760500,-0.012352809309959412,0.02086176536977291,0.0913987085223198,9.304510116577148,-0.16707435250282288,-2.581810235977173
1413393213890760500,-0.008129216730594635,0.015313176438212395,0.09197860211133957,9.296101570129395,-0.18422698974609375,-2.663154363632202
1413393213895760500,-0.0025094598531723022,0.023074297234416008,0.08647273480892181,9.434426307678223,-0.3169836103916168,-2.670792579650879
1413393213900760500,0.003025367856025696,0.014008598402142525,0.08716800808906555,9.549039840698242,-0.26725560426712036,-2.6380512714385986
1413393213905760500,0.011350564658641815,0.02294006384909153,0.07382029294967651,9.777923583984375,-0.25721287727355957,-2.767723798751831
1413393213910760500,0.011473022401332855,0.03423946350812912,0.07397236675024033,9.296980857849121,0.19109134376049042,-2.5571646690368652
1413393213915760500,0.004524894058704376,0.018162282183766365,0.0809510126709938,9.42752456665039,0.1646725833415985,-2.834367275238037
1413393213920760500,-0.015145152807235718,0.023050004616379738,0.08500160276889801,9.452115058898926,0.10803679376840591,-2.622260093688965
1413393213925760500,-0.017318718135356903,0.022987699136137962,0.09278873354196548,9.346084594726562,-0.12661829590797424,-2.565194845199585
1413393213930760500,-0.017940446734428406,0.02789575420320034,0.08793561160564423,9.247262954711914,-0.2825818955898285,-2.6716482639312744
1413393213935760500,-0.0032647252082824707,0.016114575788378716,0.08850234746932983,9.336478233337402,-0.4383946657180786,-2.695417642593384
1413393213940760500,0.011449232697486877,0.010480504482984543,0.08930446207523346,9.385650634765625,-0.3159971237182617,-2.6221015453338623
1413393213945760500,0.01840108633041382,0.013146009296178818,0.07876461744308472,9.761711120605469,-0.07017775624990463,-2.8089282512664795
1413393213950760500,0.012831330299377441,0.03345640003681183,0.06969654560089111,9.492876052856445,0.2802426815032959,-2.7932238578796387
1413393213955760500,-0.0011271834373474121,0.009929068386554718,0.07956907153129578,9.101117134094238,0.45065927505493164,-2.501018524169922
1413393213960760500,-0.01856187731027603,0.002800961956381798,0.08087345957756042,9.68938159942627,0.2704596221446991,-2.5481417179107666
1413393213965760500,-0.031212665140628815,0.011774303391575813,0.07458660751581192,9.517810821533203,0.1256561279296875,-2.5733091831207275
1413393213970760500,-0.035346731543540955,0.0026594270020723343,0.07536564022302628,9.508976936340332,-0.28358370065689087,-2.5819218158721924
1413393213975760500,-0.022126972675323486,-0.006260808557271957,0.06333689391613007,9.491240501403809,-0.6188506484031677,-2.55635929107666
1413393213980760500,0.026099279522895813,0.013398775830864906,0.06192341819405556,9.718988418579102,-0.9941198825836182,-2.555098533630371
1413393213985760500,0.07298922538757324,0.01316082663834095,0.06564440578222275,9.629648208618164,-0.5994412899017334,-2.7514281272888184
1413393213990760500,0.08632035553455353,0.036965206265449524,0.08229765295982361,9.387267112731934,0.3378221392631531,-2.8255186080932617
1413393213995760500,0.036100178956985474,0.04193919152021408,0.10607387125492096,9.258188247680664,1.5775322914123535,-2.9646453857421875
1413393214000760500,-0.052910178899765015,0.05007219314575195,0.1348441243171692,9.340490341186523,1.7731176614761353,-2.9982333183288574
1413393214005760500,-0.12997131049633026,0.04880440980195999,0.13040822744369507,8.64340877532959,0.4691886901855469,-2.429561138153076
1413393214010760500,-0.12286141514778137,0.01969890482723713,0.12063351273536682,8.67487907409668,-1.3107041120529175,-2.3376283645629883
1413393214015760500,-0.03576352447271347,-0.002737516537308693,0.10747000575065613,9.020698547363281,-2.4916763305664062,-2.4496607780456543
1413393214020760500,0.059516921639442444,-0.02644325979053974,0.07085811346769333,9.54554271697998,-1.6869686841964722,-2.8814563751220703
1413393214025760500,0.12328189611434937,0.01038232259452343,0.04393937438726425,10.071701049804688,-0.06454254686832428,-2.9388175010681152
1413393214030760500,0.08427584171295166,0.046906597912311554,0.03136742115020752,9.215489387512207,1.240449070930481,-2.5801291465759277
1413393214035760500,0.0011798739433288574,0.038433097302913666,0.04161664843559265,9.405338287353516,1.822429895401001,-2.7358462810516357
1413393214040760500,-0.06385798752307892,0.05237329751253128,0.08092625439167023,9.537220001220703,1.081794261932373,-2.7851574420928955
1413393214045760500,-0.09398403018712997,0.0500456765294075,0.1019207090139389,9.543407440185547,0.1850750595331192,-2.900029420852661
1413393214050760500,-0.07520771771669388,0.053740933537483215,0.11281201988458633,9.688098907470703,-0.6838782429695129,-2.8589181900024414
1413393214055760500,-0.029900193214416504,0.0688251480460167,0.10390132665634155,9.252748489379883,-1.414332389831543,-2.3772950172424316
1413393214060760500,0.025250419974327087,0.014115575700998306,0.09280683100223541,9.097270011901855,-1.1904886960983276,-2.2311320304870605
1413393214065760500,0.07140351831912994,0.014337042346596718,0.08362361788749695,9.442891120910645,-0.36217808723449707,-2.450693368911743
1413393214070760500,0.0682201236486435,0.0038970094174146652,0.08439607918262482,9.574850082397461,0.510439395904541,-2.8094522953033447
1413393214075760500,0.02901466190814972,0.004102347418665886,0.0843588337302208,9.682887077331543,0.9313527941703796,-3.0211081504821777
1413393214080760500,-0.016564570367336273,0.028064711019396782,0.07735335826873779,9.511653900146484,0.3750728368759155,-2.6858019828796387
1413393214085760500,-0.05277639627456665,0.0015776045620441437,0.07256340980529785,9.332237243652344,0.016592377796769142,-2.410109281539917
1413393214090760500,-0.035254500806331635,0.004890242591500282,0.08928699791431427,9.118023872375488,-0.021953919902443886,-2.5585224628448486
1413393214095760500,-0.029658064246177673,-0.0049936603754758835,0.0961918756365776,9.43464469909668,-0.26661255955696106,-2.7781119346618652
1413393214100760500,-0.018091805279254913,0.009828982874751091,0.09484665095806122,9.752206802368164,-0.34699079394340515,-2.997185468673706
1413393214105760500,-0.0028001219034194946,0.04187881201505661,0.0698089748620987,9.450553894042969,-0.5500293970108032,-2.53200364112854
1413393214110760500,0.015491247177124023,0.0349818617105484,0.0578867606818676,9.156473159790039,-0.5821635723114014,-2.377459764480591
1413393214115760500,0.03176097571849823,0.026632631197571754,0.07185684144496918,8.666925430297852,-0.10155738145112991,-2.541367530822754
1413393214120760500,0.03256632387638092,-0.00023865513503551483,0.0947711244225502,9.402936935424805,0.13794927299022675,-2.8832483291625977
1413393214125760500,0.014949150383472443,0.04467342793941498,0.08858969062566757,9.982948303222656,0.341348797082901,-3.1593515872955322
1413393214130760500,-0.008315011858940125,0.06513188779354095,0.07972048223018646,8.979395866394043,0.2872876822948456,-2.5733442306518555
1413393214135760500,-0.03391871601343155,0.023384885862469673,0.060095030814409256,9.312921524047852,-0.23326709866523743,-2.589693069458008
1413393214140760500,-0.03885195404291153,0.02951500378549099,0.073910653591156,9.042720794677734,0.01394395250827074,-2.607724666595459
1413393214145760500,-0.024152696132659912,0.007907336577773094,0.09894431382417679,9.516508102416992,-0.24259953200817108,-2.8434574604034424
1413393214150760500,-0.011645041406154633,0.04295361787080765,0.0980234295129776,9.964038848876953,-0.4801647663116455,-3.0288662910461426
1413393214155760500,0.008438177406787872,0.038570843636989594,0.08787378668785095,9.09188175201416,-0.4861889183521271,-2.47416615486145
1413393214160760500,0.02527029812335968,0.007165903225541115,0.07893477380275726,9.557265281677246,-0.640075147151947,-2.653470754623413
1413393214165760500,0.03519213944673538,0.026423858478665352,0.07112682610750198,9.492572784423828,-0.01850728690624237,-2.720029592514038
1413393214170760500,0.03326760232448578,0.013040410354733467,0.10671684890985489,9.208587646484375,0.4740932285785675,-2.6564362049102783
1413393214175760500,0.013045176863670349,0.02739785425364971,0.12205716222524643,9.990445137023926,0.41449400782585144,-3.086498498916626
1413393214180760500,-0.016570523381233215,0.03996690362691879,0.1038467213511467,9.076239585876465,0.2795425355434418,-2.4751296043395996
1413393214185760500,-0.0256199911236763,0.016079293563961983,0.09088394045829773,9.452691078186035,-0.20089136064052582,-2.4348151683807373
1413393214190760500,-0.029071927070617676,0.02568708173930645,0.0690261572599411,9.581949234008789,-0.21692727506160736,-2.5735485553741455
1413393214195760500,-0.018027111887931824,0.008983278647065163,0.08063262701034546,8.904168128967285,0.03533462807536125,-2.436479330062866
1413393214200760500,0.00015240907669067383,0.013943927362561226,0.09897547960281372,9.572915077209473,-0.13600128889083862,-2.7855606079101562
1413393214205760500,0.0014527291059494019,0.030580563470721245,0.07459361851215363,9.369582176208496,-0.3055506944656372,-2.408428907394409
1413393214210760500,0.011354342103004456,0.01760750077664852,0.06573521345853806,9.3870267868042,-0.28194573521614075,-2.6623260974884033
1413393214215760500,0.019296549260616302,0.02033119462430477,0.049840349704027176,9.386357307434082,-0.25156423449516296,-2.5491509437561035
1413393214220760500,0.017208173871040344,0.032739557325839996,0.06046505644917488,9.402691841125488,0.2370084971189499,-2.638594388961792
1413393214225760500,0.008758485317230225,0.02929655648767948,0.09541288018226624,9.44432544708252,0.6774327158927917,-2.8918087482452393
1413393214230760500,-0.01790720969438553,0.03906182944774628,0.09698127210140228,9.509828567504883,0.32030537724494934,-2.801225185394287
1413393214235760500,-0.04042724519968033,0.04348378628492355,0.07327258586883545,9.50068473815918,-0.23133671283721924,-2.842284917831421
1413393214240760500,-0.04035055637359619,0.03078468330204487,0.06455682963132858,9.083891868591309,-0.4270569086074829,-2.509124279022217
1413393214245760500,-0.025584079325199127,0.020742854103446007,0.05915915220975876,9.51589584350586,-0.5767647624015808,-2.711669683456421
1413393214250760500,0.0008872300386428833,0.03211725503206253,0.07422607392072678,9.328399658203125,-0.2591746747493744,-2.679389715194702
1413393214255760500,0.026032917201519012,0.015282152220606804,0.11373163759708405,9.125139236450195,-0.19340015947818756,-2.6625864505767822
1413393214260760500,0.01906926929950714,0.022333668544888496,0.09694858640432358,9.57330322265625,-0.24993979930877686,-2.8902759552001953
1413393214265760500,0.0051125288009643555,0.026659661903977394,0.0685029849410057,9.50092887878418,-0.23322266340255737,-2.686828136444092
1413393214270760500,0.008771538734436035,0.006179401651024818,0.07913517951965332,9.215385437011719,-0.03867305442690849,-2.6386523246765137
1413393214275760500,-0.004537671804428101,0.02018178068101406,0.06720364838838577,9.27194595336914,0.0660715326666832,-2.695358991622925
1413393214280760500,-0.010224111378192902,0.030822327360510826,0.09593317657709122,9.533843040466309,0.149537593126297,-2.874558210372925
1413393214285760500,-0.011684931814670563,0.027954621240496635,0.12659256160259247,9.377906799316406,0.07799156755208969,-2.704416275024414
1413393214290760500,-0.020898833870887756,0.03565208613872528,0.11018088459968567,9.37817668914795,-0.2080247700214386,-2.5816266536712646
1413393214295760500,-0.023565545678138733,0.028596391901373863,0.07265858352184296,9.37794303894043,-0.42918017506599426,-2.5079922676086426
1413393214300760500,-0.002496078610420227,0.02218407578766346,0.06774093210697174,9.270195960998535,-0.46214163303375244,-2.508495330810547
1413393214305760500,0.012765638530254364,0.014601733535528183,0.0670270249247551,9.467680931091309,-0.1933259814977646,-2.817634105682373
1413393214310760500,0.024680018424987793,0.028022101148962975,0.0926842987537384,9.697190284729004,0.042655475437641144,-2.9394593238830566
1413393214315760500,0.02626657485961914,0.0482165589928627,0.11357952654361725,9.280425071716309,0.45965591073036194,-2.850971221923828
1413393214320760500,0.003050960600376129,0.03219611197710037,0.09563715755939484,9.027905464172363,0.32787156105041504,-2.4355483055114746
1413393214325760500,-0.017881691455841064,0.0062790121883153915,0.06900598853826523,9.697175025939941,0.07543141394853592,-2.7112672328948975
1413393214330760500,-0.02274375408887863,0.027746064588427544,0.05843973904848099,9.59024429321289,-0.013073021546006203,-2.6795783042907715
1413393214335760500,-0.028497353196144104,0.01875702477991581,0.06790745258331299,9.124777793884277,0.0038250000216066837,-2.5828239917755127
1413393214340760500,-0.018690600991249084,0.011909615248441696,0.09424290060997009,9.598421096801758,-0.11099465936422348,-2.7849280834198
1413393214345760500,-0.0011346638202667236,0.045584551990032196,0.10786933451890945,9.703686714172363,-0.20072151720523834,-2.686433792114258
1413393214350760500,0.009956732392311096,0.043985918164253235,0.09081900119781494,9.141254425048828,-0.21800214052200317,-2.370382070541382
1413393214355760500,0.012189283967018127,0.00883999653160572,0.05845058709383011,9.566344261169434,-0.1685892939567566,-2.6459801197052
1413393214360760500,0.0038080736994743347,0.017452320083975792,0.040099967271089554,9.614359855651855,-0.144086092710495,-2.7185773849487305
1413393214365760500,0.000883154571056366,0.025116099044680595,0.05551360547542572,9.30470085144043,0.0018256843322888017,-2.7448344230651855
1413393214370760500,-0.0060073137283325195,0.01106768287718296,0.08531087636947632,9.355079650878906,0.13169482350349426,-2.858579158782959
1413393214375760500,-0.00310526043176651,0.04914374649524689,0.10573144257068634,9.827424049377441,-0.08751781284809113,-2.8820745944976807
1413393214380760500,-0.0018633976578712463,0.048423610627651215,0.09929035604000092,8.952360153198242,-0.07717915624380112,-2.4766557216644287
1413393214385760500,-0.0061498284339904785,0.011614227667450905,0.09119436144828796,8.94551944732666,-0.020617440342903137,-2.4192447662353516
1413393214390760500,-0.017332643270492554,0.0060845185071229935,0.06366981565952301,9.565576553344727,-0.3153693675994873,-2.6371309757232666
1413393214395760500,-0.014562413096427917,0.015265695750713348,0.06604183465242386,9.507762908935547,-0.27443575859069824,-2.866964340209961
1413393214400760500,-0.0032691210508346558,0.025827234610915184,0.08607913553714752,9.190312385559082,-0.16859713196754456,-2.712979555130005
1413393214405760500,0.009406127035617828,0.02467661164700985,0.11044439673423767,9.745490074157715,-0.324008047580719,-2.9635062217712402
1413393214410760500,0.018504448235034943,0.047672055661678314,0.1041131466627121,9.328590393066406,-0.06986980885267258,-2.5809125900268555
1413393214415760500,0.02121531218290329,0.03199044615030289,0.09191150218248367,9.20710563659668,0.21405360102653503,-2.565638303756714
1413393214420760500,0.006514161825180054,0.012365715578198433,0.08254838734865189,9.199389457702637,0.15613143146038055,-2.483532428741455
1413393214425760500,-0.01651802659034729,0.009713048115372658,0.06532364338636398,9.76117992401123,-0.004852476995438337,-2.882603883743286
1413393214430760500,-0.021419331431388855,0.0307027418166399,0.07701413333415985,9.696310043334961,0.06963878870010376,-2.9410886764526367
1413393214435760500,-0.020748145878314972,0.04273511469364166,0.0959533229470253,9.215513229370117,-0.04615073651075363,-2.5903637409210205
1413393214440760500,-0.006043285131454468,0.029460398480296135,0.10256216675043106,9.442567825317383,-0.31534337997436523,-2.7601397037506104
1413393214445760500,0.009317979216575623,0.03283996134996414,0.09119890630245209,9.466715812683105,-0.26539045572280884,-2.6217875480651855
1413393214450760500,0.014140695333480835,0.03888579457998276,0.07922302186489105,9.20716667175293,0.0845392495393753,-2.4921350479125977
1413393214455760500,0.0037236884236335754,0.001834288239479065,0.06674114614725113,9.149920463562012,0.017958063632249832,-2.6548802852630615
1413393214460760500,-0.005309775471687317,0.002138456329703331,0.05667043849825859,9.655792236328125,-0.07160254567861557,-2.8091542720794678
1413393214465760500,-0.012329116463661194,0.03506045043468475,0.070110984146595,9.623238563537598,-0.005655357148498297,-2.8918704986572266
1413393214470760500,-0.007409259676933289,0.032157525420188904,0.0978129580616951,9.06825065612793,0.04320214316248894,-2.4840354919433594
1413393214475760500,-0.010117828845977783,0.023105306550860405,0.10097886621952057,9.549359321594238,-0.05391201004385948,-2.719165086746216
1413393214480760500,-0.001210629940032959,0.03712625801563263,0.09250617772340775,9.540876388549805,-0.07880911976099014,-2.605558156967163
1413393214485760500,-0.002633996307849884,0.030464867129921913,0.08145273476839066,8.98580265045166,-0.03793223574757576,-2.3621842861175537
1413393214490760500,-0.005371123552322388,0.0031929239630699158,0.07042048871517181,9.550006866455078,-0.15194152295589447,-2.7198476791381836
1413393214495760500,-0.010969772934913635,0.013430649414658546,0.06299155950546265,9.622843742370605,-0.2743682563304901,-2.768744468688965
1413393214500760500,-0.005377456545829773,0.03506070375442505,0.06713272631168365,9.646822929382324,-0.2994801104068756,-2.956704616546631
1413393214505760500,0.00588623434305191,0.03347053378820419,0.09343321621417999,9.092327117919922,-0.11138499528169632,-2.638118028640747
1413393214510760500,0.010792657732963562,0.030860377475619316,0.10093732178211212,9.542015075683594,-0.15247267484664917,-2.751230478286743
1413393214515760500,0.01424524188041687,0.03912770003080368,0.09051855653524399,9.442755699157715,0.05105994641780853,-2.6957640647888184
1413393214520760500,0.00507548451423645,0.022775812074542046,0.08019869029521942,9.125650405883789,0.0918087586760521,-2.4926085472106934
1413393214525760500,-0.01865595579147339,0.01517179049551487,0.06842014193534851,9.460334777832031,-0.053122710436582565,-2.7855708599090576
1413393214530760500,-0.020779162645339966,0.009225377812981606,0.07686807215213776,9.41041374206543,-0.15950672328472137,-2.7449429035186768
1413393214535760500,-0.014427773654460907,0.03575630486011505,0.0907670259475708,9.63085651397705,-0.1528472900390625,-2.8423569202423096
1413393214540760500,-0.0081491619348526,0.02864464558660984,0.10175855457782745,9.075775146484375,-0.22574001550674438,-2.5810961723327637
1413393214545760500,0.0114564448595047,0.02441147156059742,0.10512299835681915,9.524567604064941,-0.33846551179885864,-2.735393762588501
1413393214550760500,0.022557958960533142,0.03489848971366882,0.09823515266180038,9.426312446594238,-0.053994081914424896,-2.6548290252685547
1413393214555760500,0.015543438494205475,0.024938909336924553,0.08436816930770874,9.150272369384766,0.1317422091960907,-2.4841511249542236
1413393214560760500,-0.00176895409822464,0.012458804994821548,0.07127076387405396,9.443760871887207,0.06770481914281845,-2.72815203666687
1413393214565760500,-0.011621706187725067,0.011310586705803871,0.08034299314022064,9.565979957580566,0.011624171398580074,-2.80178165435791
1413393214570760500,-0.017279431223869324,0.043435245752334595,0.0857706218957901,9.492288589477539,-0.06305225938558578,-2.6794662475585938
1413393214575760500,-0.017865151166915894,0.02022075094282627,0.09133631736040115,9.198357582092285,-0.12037684768438339,-2.5894758701324463
1413393214580760500,0.0009799376130104065,0.034193702042102814,0.0926424190402031,9.720808029174805,-0.22478562593460083,-2.7109053134918213
1413393214585760500,0.0036187171936035156,0.04264046251773834,0.07791818678379059,9.385589599609375,-0.11896476149559021,-2.647007465362549
1413393214590760500,0.0023040324449539185,0.016478201374411583,0.06631435453891754,8.96989631652832,-0.013879552483558655,-2.4518885612487793
1413393214595760500,-0.003202304244041443,0.006206603720784187,0.06576318293809891,9.60732364654541,-0.05499366670846939,-2.6624486446380615
1413393214600760500,-0.007513090968132019,0.013383103534579277,0.06842626631259918,9.549654960632324,-0.05452198535203934,-2.687242269515991
1413393214605760500,-0.008808992803096771,0.030781293287873268,0.08511233329772949,9.541345596313477,-0.19339731335639954,-2.8830931186676025
1413393214610760500,-0.006631672382354736,0.020972585305571556,0.08366050571203232,9.280370712280273,-0.09512783586978912,-2.6705849170684814
1413393214615760500,0.0002585500478744507,0.03574073314666748,0.09182849526405334,9.68834114074707,-0.12793217599391937,-2.7274458408355713
1413393214620760500,0.006475009024143219,0.03555338829755783,0.09340834617614746,9.442938804626465,0.002634406089782715,-2.7039904594421387
1413393214625760500,0.003065764904022217,0.03394351899623871,0.08378127217292786,9.117280006408691,-0.021206093952059746,-2.5005273818969727
1413393214630760500,-0.005387432873249054,0.01399398036301136,0.07474162429571152,9.361939430236816,-0.12708783149719238,-2.646789073944092
1413393214635760500,-0.007516771554946899,0.0042262207716703415,0.0858793780207634,9.57361125946045,-0.1932818740606308,-2.711606979370117
1413393214640760500,-0.006044253706932068,0.03564167767763138,0.08077928423881531,9.65548038482666,-0.26683539152145386,-2.8337600231170654
1413393214645760500,-0.0025466978549957275,0.02723792754113674,0.08640037477016449,9.084076881408691,-0.1761297583580017,-2.6546876430511475
1413393214650760500,0.005860090255737305,0.018936360254883766,0.08992161601781845,9.475804328918457,-0.0865212231874466,-2.858276605606079
1413393214655760500,0.010714761912822723,0.03214073181152344,0.09121372550725937,9.59010124206543,0.0018379510147497058,-2.646301746368408
1413393214660760500,0.004413798451423645,0.035364918410778046,0.08174166083335876,9.084484100341797,-0.013892841525375843,-2.4839932918548584
1413393214665760500,-0.0025384724140167236,0.013870051130652428,0.07904201745986938,9.117264747619629,0.03614276647567749,-2.51678729057312
1413393214670760500,-0.01025901734828949,0.01276806928217411,0.07733959704637527,9.582132339477539,-0.03826635703444481,-2.59753680229187
1413393214675760500,-0.010974392294883728,0.02242215909063816,0.08849387615919113,9.622274398803711,-0.20186622440814972,-2.760772705078125
1413393214680760500,-0.013004884123802185,0.027728667482733727,0.08366984128952026,9.386378288269043,-0.08690615743398666,-2.6548783779144287
1413393214685760500,-0.003953412175178528,0.03502789884805679,0.08704786002635956,9.51696491241455,-0.0778384879231453,-2.81744647026062
1413393214690760500,0.007896587252616882,0.037138648331165314,0.09559612721204758,9.34467887878418,-0.11949850618839264,-2.6139371395111084
1413393214695760500,0.012122079730033875,0.03260166198015213,0.09074655920267105,9.27196216583252,-0.03807651624083519,-2.5081608295440674
1413393214700760500,0.0009700432419776917,0.022196432575583458,0.07746262103319168,9.256999969482422,0.0920524150133133,-2.5737051963806152
1413393214705760500,0.00020653009414672852,0.018210792914032936,0.08168430626392365,9.337397575378418,0.02697666920721531,-2.6471450328826904
1413393214710760500,-0.008853591978549957,0.011269254609942436,0.08917324244976044,9.589715957641602,-0.103563591837883,-2.834258794784546
1413393214715760500,-0.013727337121963501,0.027215896174311638,0.08010196685791016,9.541791915893555,-0.07895000278949738,-2.6788015365600586
1413393214720760500,-0.018569521605968475,0.027242040261626244,0.07328224927186966,9.427340507507324,-0.0702463909983635,-2.817800760269165
1413393214725760500,-0.001190371811389923,0.031431980431079865,0.08783704042434692,9.442896842956543,-0.13563187420368195,-2.6222071647644043
1413393214730760500,0.005820535123348236,0.03417499363422394,0.08990395069122314,9.459308624267578,-0.16797548532485962,-2.727693796157837
1413393214735760500,-0.0004294365644454956,0.024977976456284523,0.0740409567952156,9.313578605651855,-0.046508949249982834,-2.5245425701141357
1413393214740760500,-0.0018368959426879883,0.01741175539791584,0.07400834560394287,9.525572776794434,-0.04628581553697586,-2.687403440475464
1413393214745760500,0.002959519624710083,0.025216268375515938,0.08013791590929031,9.279935836791992,-0.19343437254428864,-2.5734128952026367
1413393214750760500,-0.005312368273735046,0.021008377894759178,0.0766528844833374,9.393877983093262,-0.15221329033374786,-2.817654609680176
1413393214755760500,-0.013677224516868591,0.023043306544423103,0.07397739589214325,9.582413673400879,-0.013461465016007423,-2.7849009037017822
1413393214760760500,0.00023002922534942627,0.03423231840133667,0.09133757650852203,9.46815013885498,0.01941954530775547,-2.7035179138183594
1413393214765760500,0.003667384386062622,0.03344862163066864,0.09690160304307938,9.181615829467773,-0.09536352753639221,-2.5407228469848633
1413393214770760500,-0.0025136470794677734,0.023641666397452354,0.08936234563589096,9.255555152893066,-0.10320260375738144,-2.646787166595459
1413393214775760500,-0.004622414708137512,0.016081010922789574,0.08097390085458755,9.38692569732666,0.003245255444198847,-2.598217487335205
1413393214780760500,0.0043204426765441895,0.016027411445975304,0.09406405687332153,9.476008415222168,-0.11171557754278183,-2.606062650680542
1413393214785760500,-0.00047422200441360474,0.020917082205414772,0.08644531667232513,9.255131721496582,-0.20985086262226105,-2.6546175479888916
1413393214790760500,-0.005247682332992554,0.016846267506480217,0.0753120481967926,9.533119201660156,-0.08685187250375748,-2.7523105144500732
1413393214795760500,-0.0032637864351272583,0.030085990205407143,0.08161627501249313,9.557600021362305,0.03611385449767113,-2.7931668758392334
1413393214800760500,0.0022755488753318787,0.03552645444869995,0.10180768370628357,9.492720603942871,0.051487307995557785,-2.638533592224121
1413393214805760500,-0.0010666996240615845,0.03553476929664612,0.0871681421995163,9.321046829223633,-0.04679422453045845,-2.6223652362823486
1413393214810760500,-0.009502843022346497,0.027233341708779335,0.07678110152482986,9.26373291015625,-0.053930994123220444,-2.5574262142181396
1413393214815760500,-0.0061350613832473755,0.01816065050661564,0.07950963079929352,9.435330390930176,-0.1352328658103943,-2.7200686931610107
1413393214820760500,-0.0068014562129974365,0.02298559434711933,0.08151720464229584,9.386512756347656,-0.2019340544939041,-2.597813844680786
1413393214825760500,-0.009500667452812195,0.016064269468188286,0.07397899776697159,9.524938583374023,-0.12815439701080322,-2.8095929622650146
1413393214830760500,-0.008109062910079956,0.029416626319289207,0.07188604027032852,9.573957443237305,0.02788396179676056,-2.760538101196289
1413393214835760500,0.00023268908262252808,0.027932288125157356,0.08777651935815811,9.541436195373535,0.01123769860714674,-2.711376905441284
1413393214840760500,0.0037490203976631165,0.028494572266936302,0.09135551750659943,9.419120788574219,-0.02235470339655876,-2.7118375301361084
1413393214845760500,-0.003886960446834564,0.027195250615477562,0.07537057995796204,9.451985359191895,-0.021766269579529762,-2.6792521476745605
1413393214850760500,-0.00603649765253067,0.020944254472851753,0.0844482034444809,9.255800247192383,-0.021275311708450317,-2.500422954559326
1413393214855760500,0.003000229597091675,0.020947279408574104,0.09273184090852737,9.451251983642578,-0.25872769951820374,-2.678966522216797
1413393214860760500,-0.0018607378005981445,0.018135981634259224,0.07945682853460312,9.231133460998535,-0.16953213512897491,-2.54079008102417
1413393214865760500,-0.008809894323348999,0.011916721239686012,0.07049235701560974,9.663874626159668,-0.062254566699266434,-2.842130422592163
1413393214870760500,-0.0011704713106155396,0.029312754049897194,0.08231306076049805,9.459304809570312,0.03653281554579735,-2.7280023097991943
1413393214875760500,0.0008926838636398315,0.029981834813952446,0.09053109586238861,9.402552604675293,0.01096827071160078,-2.719850778579712
1413393214880760500,-0.003916554152965546,0.03421250730752945,0.08303603529930115,9.3128662109375,-0.0063136667013168335,-2.6059978008270264
1413393214885760500,-0.012258671224117279,0.030047183856368065,0.0733116939663887,9.402922630310059,-0.07022802531719208,-2.6709978580474854
1413393214890760500,-0.002632535994052887,0.025818942114710808,0.08504980802536011,9.3779878616333,-0.24154101312160492,-2.573493242263794
1413393214895760500,0.0036839693784713745,0.021573776379227638,0.08439114689826965,9.38601303100586,-0.27510833740234375,-2.6547558307647705
1413393214900760500,-0.001066446304321289,0.011873025447130203,0.0697467252612114,9.52511978149414,-0.03860573098063469,-2.8339626789093018
1413393214905760500,-0.007406748831272125,0.03147026151418686,0.07880908995866776,9.574126243591309,0.10103677958250046,-2.7363510131835938
1413393214910760500,-0.0047342851758003235,0.029287992045283318,0.08783034980297089,9.402416229248047,-0.09485464543104172,-2.6873457431793213
1413393214915760500,-0.0025367140769958496,0.027205554768443108,0.09410053491592407,9.467965126037598,-0.037800442427396774,-2.719928026199341
1413393214920760500,-0.010171860456466675,0.03213590383529663,0.08519867062568665,9.46010971069336,0.027309110388159752,-2.6629645824432373
1413393214925760500,-0.00812927633523941,0.025746086612343788,0.09279775619506836,9.304823875427246,-0.013497388921678066,-2.6145193576812744
1413393214930760500,0.002250373363494873,0.02089039795100689,0.08984872698783875,9.369580268859863,-0.4797500967979431,-2.5647542476654053
1413393214935760500,0.010005921125411987,0.01468665525317192,0.08646976202726364,9.385906219482422,-0.2665388584136963,-2.5404980182647705
1413393214940760500,0.003118962049484253,0.011232608929276466,0.0746636688709259,9.62324047088623,0.0358077697455883,-2.768824577331543
1413393214945760500,-0.00045518577098846436,0.028550637885928154,0.07809142023324966,9.492323875427246,0.05160048231482506,-2.719836473464966
1413393214950760500,-0.004003375768661499,0.028622539713978767,0.07949869334697723,9.353632926940918,0.05124978721141815,-2.736266851425171
1413393214955760500,-0.006729617714881897,0.02938796766102314,0.08577334880828857,9.411137580871582,0.10885580629110336,-2.6956212520599365
1413393214960760500,-0.017145633697509766,0.02161365933716297,0.07743681967258453,9.435826301574707,-0.04578156769275665,-2.662844657897949
1413393214965760500,-0.0060829296708106995,0.028534939512610435,0.08441469073295593,9.418800354003906,-0.2910992205142975,-2.5652458667755127
1413393214970760500,0.0036787018179893494,0.018126310780644417,0.08157382160425186,9.353123664855957,-0.36535894870758057,-2.589425802230835
1413393214975760500,0.004433490335941315,0.014027094468474388,0.07460102438926697,9.410529136657715,-0.15221837162971497,-2.7200369834899902
1413393214980760500,0.00031173229217529297,0.011917183175683022,0.07748714834451675,9.590352058410645,0.06052007898688316,-2.817722797393799
1413393214985760500,-0.0018915757536888123,0.03270912915468216,0.08087903261184692,9.598737716674805,0.07534277439117432,-2.752317428588867
1413393214990760500,-0.005386874079704285,0.029346251860260963,0.08991578221321106,9.108674049377441,0.06815532594919205,-2.6063830852508545
1413393214995760500,-0.006653830409049988,0.030777277424931526,0.09003002941608429,9.484456062316895,0.020205048844218254,-2.7281367778778076
1413393215000760500,-0.012285694479942322,0.02372046746313572,0.08788713067770004,9.484365463256836,-0.07866550236940384,-2.613759756088257
1413393215005760500,0.0001422390341758728,0.02710622362792492,0.08430750668048859,9.500432014465332,-0.3829178214073181,-2.6464314460754395
1413393215010760500,0.007922127842903137,0.01183863915503025,0.0746474489569664,9.157135009765625,-0.22545763850212097,-2.483816146850586
1413393215015760500,0.01007121056318283,0.009857028722763062,0.06203249469399452,9.679704666137695,-0.1835871785879135,-2.7927892208099365
1413393215020760500,0.009366117417812347,0.017460757866501808,0.07396288961172104,9.525092124938965,0.16534432768821716,-2.5731894969940186
1413393215025760500,-0.008180975914001465,0.01875337027013302,0.08022087812423706,9.346384048461914,0.270259827375412,-2.7773635387420654
1413393215030760500,-0.024915456771850586,0.025158314034342766,0.08506574481725693,9.501465797424316,0.4519179165363312,-2.818040370941162
1413393215035760500,-0.042359694838523865,0.018939463421702385,0.08446332067251205,9.30512809753418,0.17522509396076202,-2.6553122997283936
1413393215040760500,-0.04934321343898773,0.02366340346634388,0.08157715201377869,9.337563514709473,-0.03083416074514389,-2.5495541095733643
1413393215045760500,-0.04241711646318436,-0.0056615788489580154,0.06824362277984619,9.345427513122559,-0.5790050625801086,-2.507699489593506
1413393215050760500,-0.005351141095161438,0.004198864102363586,0.058491263538599014,9.686553955078125,-1.0832810401916504,-2.6779799461364746
1413393215055760500,0.04225444793701172,0.02312971092760563,0.0509389266371727,9.19617748260498,-0.7297395467758179,-2.4749932289123535
1413393215060760500,0.08210358023643494,0.013264864683151245,0.08718821406364441,9.50916576385498,0.010083029046654701,-2.8413100242614746
1413393215065760500,0.07867056131362915,0.037095196545124054,0.09770172089338303,9.264922142028809,0.6783186793327332,-2.4997034072875977
1413393215070760500,0.014281578361988068,0.025811174884438515,0.08649645745754242,9.641105651855469,1.030826449394226,-2.8342366218566895
1413393215075760500,-0.057130493223667145,0.04664088785648346,0.0900672897696495,9.38821792602539,0.9011073708534241,-2.867664337158203
1413393215080760500,-0.09424033015966415,0.040555283427238464,0.10258376598358154,8.53675651550293,-0.05411820858716965,-2.428499221801758
1413393215085760500,-0.06766131520271301,0.005059719085693359,0.12959221005439758,9.009376525878906,-1.1647019386291504,-2.6224701404571533
1413393215090760500,0.003012634813785553,0.019033825024962425,0.1415802538394928,9.374394416809082,-1.4344470500946045,-2.4247591495513916
1413393215095760500,0.056076809763908386,0.009656433016061783,0.11772629618644714,9.449723243713379,-0.9280475974082947,-2.6787667274475098
1413393215100760500,0.05952984094619751,-0.013340463861823082,0.06610269099473953,9.582164764404297,0.016674593091011047,-2.736234426498413
1413393215105760500,0.0268012136220932,0.034235842525959015,0.03139222413301468,9.860847473144531,0.7113552093505859,-2.82452654838562
1413393215110760500,-0.016400232911109924,0.02729746140539646,0.02984316274523735,9.191915512084961,0.6224353909492493,-2.7281386852264404
1413393215115760500,-0.03099840134382248,0.04043203592300415,0.06552235782146454,9.494588851928711,0.2817051112651825,-2.6708219051361084
1413393215120760500,-0.02126658707857132,0.05323661118745804,0.09574998170137405,9.42821216583252,0.06036309525370598,-2.6629679203033447
1413393215125760500,-0.03124876320362091,0.03367439657449722,0.08730216324329376,9.50068473815918,-0.03125772625207901,-2.924821138381958
1413393215130760500,-0.03350760042667389,0.05983436852693558,0.07755914330482483,9.107922554016113,-0.10365007817745209,-2.3870768547058105
1413393215135760500,-0.018744513392448425,0.013958187773823738,0.08295470476150513,9.165389060974121,-0.4614178538322449,-2.524766683578491
1413393215140760500,0.016260847449302673,0.03349308669567108,0.09794344753026962,9.65334701538086,-0.6975768804550171,-2.6046319007873535
1413393215145760500,0.04433319717645645,0.015194235369563103,0.09485974907875061,9.295332908630371,-0.19154925644397736,-2.589426040649414
1413393215150760500,0.035981059074401855,0.008289147168397903,0.08957311511039734,9.624581336975098,0.3204309642314911,-3.0214450359344482
1413393215155760500,0.005051612854003906,0.04334785044193268,0.07755405455827713,9.43653392791748,0.4813099503517151,-2.6784749031066895
1413393215160760500,-0.02701369673013687,-0.006236745044589043,0.07382186502218246,9.48573112487793,0.039728861302137375,-2.6626996994018555
1413393215165760500,-0.019054532051086426,0.019605042412877083,0.06870821118354797,9.885292053222656,-0.22641293704509735,-2.6946377754211426
1413393215170760500,-0.0023716911673545837,0.03691597282886505,0.07788141071796417,9.149602890014648,0.07961484789848328,-2.5005922317504883
1413393215175760500,-0.010266721248626709,6.787292659282684e-05,0.08173193037509918,9.385862350463867,0.1588546186685562,-2.9578781127929688
1413393215180760500,-0.03215235471725464,0.03563566505908966,0.056115441024303436,9.720083236694336,-0.1939997375011444,-2.8252880573272705
1413393215185760500,-0.02444702386856079,0.039070770144462585,0.05818792060017586,9.099614143371582,-0.5193235874176025,-2.353235960006714
1413393215190760500,0.02270011603832245,-0.0008063949644565582,0.08982422202825546,9.132493019104004,-0.6160140633583069,-2.475289821624756
1413393215195760500,0.04728907346725464,0.027061263099312782,0.09641841799020767,9.393656730651855,-0.3959082067012787,-2.637361764907837
1413393215200760500,0.032397374510765076,0.004424555227160454,0.10041814297437668,9.068427085876465,0.41725239157676697,-2.7700095176696777
1413393215205760500,-0.005584187805652618,0.020169025287032127,0.0903884768486023,9.845321655273438,0.5865641236305237,-2.9968185424804688
1413393215210760500,-0.0383596196770668,0.0622977688908577,0.07055321335792542,9.65634536743164,-0.04722421243786812,-2.6619768142700195
1413393215215760500,-0.026040896773338318,0.021275972947478294,0.08870694786310196,9.0344877243042,-0.37112489342689514,-2.4765162467956543
1413393215220760500,-0.007058501243591309,0.029040144756436348,0.09532040357589722,9.393943786621094,-0.36328986287117004,-2.450920343399048
1413393215225760500,-0.0040487200021743774,0.011730235069990158,0.08884580433368683,9.280390739440918,0.03537581115961075,-2.899691104888916
1413393215230760500,-0.012023262679576874,0.03129421919584274,0.07900021225214005,9.484295845031738,0.11578251421451569,-2.843183994293213
1413393215235760500,-0.015405133366584778,0.044691301882267,0.06502699106931686,9.589290618896484,-0.40503939986228943,-2.719109058380127
1413393215240760500,0.008730307221412659,0.02267639897763729,0.08361724019050598,9.500561714172363,-0.42612534761428833,-2.711029291152954
1413393215245760500,0.038351744413375854,0.03903567045927048,0.10051427781581879,9.133247375488281,-0.04358883574604988,-2.4597384929656982
1413393215250760500,0.02557927370071411,0.0032054688781499863,0.09471267461776733,9.018977165222168,0.35830217599868774,-2.61491322517395
1413393215255760500,-0.0006441622972488403,0.008435271680355072,0.09837636351585388,9.795515060424805,0.5931089520454407,-3.0782527923583984
1413393215260760500,-0.03418310731649399,0.037710800766944885,0.0748298168182373,9.892316818237305,-0.030661625787615776,-2.735027313232422
1413393215265760500,-0.031115762889385223,0.027341226115822792,0.07456077635288239,9.468165397644043,-0.31173914670944214,-2.630740165710449
1413393215270760500,-0.002939268946647644,0.0426974892616272,0.08708024024963379,9.158193588256836,-0.19879256188869476,-2.4921231269836426
1413393215275760500,-0.0011260062456130981,0.008283643051981926,0.08841823041439056,8.919625282287598,-0.0964542031288147,-2.5984690189361572
1413393215280760500,-0.014056295156478882,-0.002916391007602215,0.0711098313331604,10.046859741210938,0.050057876855134964,-3.0700345039367676
1413393215285760500,-0.01334739476442337,0.04513164609670639,0.0686718076467514,9.51754093170166,-0.2500397264957428,-2.465991973876953
1413393215290760500,0.00807151198387146,0.035066165030002594,0.06902410089969635,9.459232330322266,-0.5099250674247742,-2.735595703125
1413393215295760500,0.02996625006198883,0.0212103184312582,0.08493788540363312,8.879717826843262,-0.05332554876804352,-2.3782410621643066
1413393215300760500,0.022115901112556458,0.010427480563521385,0.09902198612689972,9.126208305358887,0.3597569167613983,-2.5987963676452637
1413393215305760500,-0.01540212333202362,0.015183145180344582,0.08082303404808044,9.900239944458008,0.30951717495918274,-3.0866007804870605
1413393215310760500,-0.028735049068927765,0.03472677618265152,0.08736497908830643,9.386754035949707,-0.013897368684411049,-2.5320825576782227
1413393215315760500,-0.019158542156219482,0.015635477378964424,0.09293891489505768,9.606694221496582,-0.4757530987262726,-2.9479856491088867
1413393215320760500,-0.0008791834115982056,0.032310955226421356,0.09182031452655792,9.107988357543945,-0.3290019929409027,-2.459038257598877
1413393215325760500,0.006561502814292908,0.016489623114466667,0.09683676809072495,9.019391059875488,0.09107042849063873,-2.558178663253784
1413393215330760500,-0.009849846363067627,0.004782585427165031,0.07807839661836624,9.679661750793457,-0.1391936093568802,-2.973337411880493
1413393215335760500,-0.014060944318771362,0.03146877884864807,0.06344275921583176,9.442584991455078,-0.20052781701087952,-2.645576000213623
1413393215340760500,0.0010825544595718384,0.024470863863825798,0.07555752992630005,9.5822114944458,-0.3778313100337982,-2.907013177871704
1413393215345760500,0.020204946398735046,0.03849059343338013,0.08574351668357849,9.443849563598633,-0.08584440499544144,-2.8256850242614746
1413393215350760500,0.013629749417304993,0.04683145135641098,0.09252401441335678,8.83936595916748,0.2779260575771332,-2.43574857711792
1413393215355760500,-0.008304618299007416,0.003508046269416809,0.07953336089849472,9.728431701660156,-0.025004515424370766,-2.9077303409576416
1413393215360760500,-0.01608472317457199,0.030501632019877434,0.06977766007184982,9.859382629394531,-0.012273937463760376,-2.7508866786956787
1413393215365760500,-0.006708458065986633,0.027147972956299782,0.08868895471096039,9.436058044433594,0.04667498916387558,-2.7693753242492676
1413393215370760500,-0.007116779685020447,0.025270650163292885,0.0949435904622078,9.215091705322266,0.09380296617746353,-2.7858309745788574
1413393215375760500,-0.010907255113124847,0.010552642866969109,0.09818069636821747,9.02708625793457,0.08312632143497467,-2.435351610183716
1413393215380760500,-0.01960558444261551,-0.0014675650745630264,0.07652570307254791,10.070558547973633,-0.42413830757141113,-2.939399003982544
1413393215385760500,-0.0034792572259902954,0.017151931300759315,0.06489069759845734,9.646952629089355,-0.3555324077606201,-2.7269186973571777
1413393215390760500,0.024926796555519104,0.017425114288926125,0.09845899045467377,9.264497756958008,0.2005600780248642,-2.7690107822418213
1413393215395760500,0.02919381856918335,0.04013630002737045,0.10326127707958221,8.805658340454102,-0.0309130921959877,-2.3536739349365234
1413393215400760500,-0.005303919315338135,-0.016781479120254517,0.08143839985132217,9.403067588806152,0.18813420832157135,-2.5570104122161865
1413393215405760500,-0.01400754600763321,0.010265475139021873,0.06070232018828392,9.893034934997559,0.049757711589336395,-2.785207748413086
1413393215410760500,-0.012471340596675873,0.02998812310397625,0.0865715891122818,9.353534698486328,-0.0036814510822296143,-2.761181354522705
1413393215415760500,-0.014294452965259552,0.02162366546690464,0.0990915298461914,8.903680801391602,0.02994198352098465,-2.443476915359497
1413393215420760500,-0.02467283606529236,-0.025566065683960915,0.08163212984800339,9.125239372253418,-0.17805598676204681,-2.361154794692993
1413393215425760500,-0.02090909332036972,-0.002301085740327835,0.05338062718510628,10.291288375854492,-0.5714225769042969,-2.9621200561523438
1413393215430760500,0.006239011883735657,0.03260313719511032,0.06892236322164536,9.459113121032715,-0.35604366660118103,-2.631002187728882
1413393215435760500,0.03321134299039841,0.027304930612444878,0.09016888588666916,9.427017211914062,-0.273413747549057,-2.7198028564453125
1413393215440760500,0.021461278200149536,0.024096207693219185,0.06573663651943207,8.903656959533691,-0.21749362349510193,-2.1326489448547363
1413393215445760500,0.007237657904624939,-0.009105597622692585,0.05570309981703758,9.934599876403809,0.3117418885231018,-3.061619520187378
1413393215450760500,0.005756273865699768,0.04494161903858185,0.09480777382850647,9.363876342773438,0.5793457627296448,-2.786341667175293
1413393215455760500,-0.02498096227645874,0.02668038196861744,0.10742241144180298,8.715771675109863,0.2553282678127289,-2.5669734477996826
1413393215460760500,-0.04865807294845581,0.012823592871427536,0.07968124002218246,9.295354843139648,-0.3952791392803192,-2.613910436630249
1413393215465760500,-0.03054247796535492,-0.011821597814559937,0.08864918351173401,9.418871879577637,-0.3539286255836487,-2.6375818252563477
1413393215470760500,0.008523285388946533,0.024722984060645103,0.11395756155252457,9.770089149475098,-0.4563117027282715,-2.768625020980835
1413393215475760500,0.02056969702243805,0.01187218725681305,0.10934597998857498,9.442116737365723,-0.43097344040870667,-2.809420347213745
1413393215480760500,0.0038070976734161377,0.017682047560811043,0.04980853199958801,9.450268745422363,-0.2655777931213379,-2.7521045207977295
1413393215485760500,0.025972843170166016,0.019702976569533348,0.09140260517597198,9.558578491210938,0.39627617597579956,-2.858477830886841
1413393215490760500,0.02124418318271637,0.03034200705587864,0.10718122124671936,9.470486640930176,0.2547489106655121,-2.6374928951263428
1413393215495760500,-0.014113187789916992,0.04823990911245346,0.070328488945961,9.729194641113281,-0.047340162098407745,-2.7848429679870605
1413393215500760500,-0.02281588315963745,0.004522930830717087,0.07010970264673233,8.789453506469727,0.1170773059129715,-2.640122413635254
1413393215505760500,0.0006940066814422607,0.027741605415940285,0.10451097786426544,9.810700416564941,0.011731430888175964,-2.621811628341675
1413393215510760500,-0.008887514472007751,0.034002698957920074,0.09455068409442902,9.54098892211914,-0.02897445112466812,-2.882458209991455
1413393215515760500,-0.0309813991189003,0.006953733041882515,0.04441644251346588,8.601629257202148,-0.2516322135925293,-2.3462467193603516
1413393215520760500,0.004381284117698669,-0.017969811335206032,0.07609046250581741,9.491021156311035,-0.26672446727752686,-2.671060800552368
1413393215525760500,0.024393826723098755,0.009632568806409836,0.09788942337036133,9.949270248413086,-0.060888662934303284,-2.66085147857666
1413393215530760500,0.0004038810729980469,0.03822438418865204,0.06981929391622543,9.746166229248047,-0.013393706642091274,-2.9964842796325684
1413393215535760500,-0.009288109838962555,-0.0006027873605489731,0.07018457353115082,8.67620849609375,0.056635934859514236,-2.362344741821289
1413393215540760500,0.005003117024898529,0.0178533922880888,0.09389349073171616,9.917054176330566,-0.08743424713611603,-2.6857166290283203
1413393215545760500,0.0008885711431503296,0.0480416938662529,0.10090899467468262,9.915699005126953,0.11842802166938782,-2.768251895904541
1413393215550760500,-0.01765013486146927,0.03875402361154556,0.06798205524682999,8.937812805175781,-0.2995806336402893,-2.4037160873413086
1413393215555760500,0.00023048371076583862,0.00786016508936882,0.0781504437327385,9.051436424255371,-0.3651697635650635,-2.605992317199707
1413393215560760500,0.02091287076473236,0.014838874340057373,0.09960152208805084,9.524492263793945,0.37286609411239624,-2.7196054458618164
1413393215565760500,-0.020000241696834564,0.02350560389459133,0.06631911545991898,9.484646797180176,0.25495946407318115,-2.794442892074585
1413393215570760500,-0.03319726139307022,0.006037088111042976,0.05382383614778519,8.970497131347656,-0.36694443225860596,-2.4679934978485107
1413393215575760500,-0.0013049989938735962,-0.0010880175977945328,0.08715599775314331,9.067495346069336,-0.19220317900180817,-2.3690290451049805
1413393215580760500,-0.006124146282672882,0.009929366409778595,0.08070699870586395,9.79345703125,-0.028548259288072586,-2.890496015548706
1413393215585760500,-0.02334454655647278,0.01433699019253254,0.06570371985435486,9.182525634765625,-0.21876990795135498,-2.630941152572632
1413393215590760500,0.002407774329185486,0.015368204563856125,0.08177215605974197,9.321477890014648,-0.5546934008598328,-2.6705713272094727
1413393215595760500,0.024585656821727753,0.037355780601501465,0.09462849795818329,10.225711822509766,-0.021262316033244133,-2.92179274559021
1413393215600760500,-0.001018136739730835,0.07619074732065201,0.07604105770587921,9.761988639831543,0.20086900889873505,-2.9157183170318604
1413393215605760500,-0.00999477505683899,0.05984391272068024,0.0686037540435791,8.536128044128418,-0.25009050965309143,-2.1996240615844727
1413393215610760500,0.009115427732467651,0.009081246331334114,0.09325402230024338,9.582769393920898,0.043213680386543274,-2.849433660507202
1413393215615760500,-0.006983913481235504,0.05379156023263931,0.09555783867835999,9.378864288330078,0.34630605578422546,-2.663512706756592
1413393215620760500,-0.0157022625207901,0.0018280912190675735,0.09657000005245209,8.560097694396973,-0.20790356397628784,-2.57537579536438
1413393215625760500,0.010720834136009216,-0.028159769251942635,0.11769133806228638,9.79478931427002,-0.5451010465621948,-2.8486862182617188
1413393215630760500,0.014052607119083405,0.034667372703552246,0.11773266643285751,10.007062911987305,0.3371371626853943,-3.093831777572632
1413393215635760500,0.0017139166593551636,0.04896477609872818,0.1019776314496994,8.805445671081543,-0.09521841257810593,-2.5422589778900146
1413393215640760500,0.004556566476821899,-0.0492415651679039,0.09766031801700592,9.124500274658203,-0.5034123063087463,-2.5640695095062256
1413393215645760500,0.0029100701212882996,0.00497068464756012,0.07657651603221893,10.570948600769043,0.5157648921012878,-3.2058606147766113
1413393215650760500,-0.011640042066574097,0.055176228284835815,0.07961960881948471,9.166088104248047,0.25463828444480896,-2.8115532398223877
1413393215655760500,-0.025355659425258636,-0.03746066987514496,0.053240176290273666,8.740887641906738,-0.829513430595398,-2.248148202896118
1413393215660760500,-0.01455177366733551,-0.02123423106968403,0.03595414012670517,10.30966854095459,0.19959598779678345,-2.7329297065734863
1413393215665760500,0.0014575272798538208,0.04294035583734512,0.07824553549289703,9.369623184204102,-0.0019488618709146976,-2.5980546474456787
1413393215670760500,-0.006611242890357971,-0.03626695275306702,0.0469878688454628,8.584783554077148,-0.7636858820915222,-2.8278605937957764
1413393215675760500,0.017094366252422333,0.004951657727360725,0.06686446815729141,9.787851333618164,0.7193346619606018,-3.126019239425659
1413393215680760500,0.014734074473381042,0.05096223205327988,0.1209738701581955,8.954346656799316,0.528414249420166,-2.7038166522979736
1413393215685760500,-0.02704467624425888,-0.04292536899447441,0.09280169755220413,8.431029319763184,-0.6378980875015259,-3.0319137573242188
1413393215690760500,-0.015074476599693298,-0.01844794489443302,0.0898643359541893,10.049623489379883,0.23006616532802582,-3.2078328132629395
1413393215695760500,0.02104446291923523,0.03825663775205612,0.14674195647239685,9.166862487792969,0.2867549657821655,-2.5080156326293945
1413393215700760500,-0.0038826018571853638,-0.035097114741802216,0.09867297112941742,8.542267799377441,-1.1135445833206177,-2.5099785327911377
1413393215705760500,-0.003111213445663452,-0.05741620063781738,0.06204226240515709,9.591129302978516,0.08144177496433258,-3.3065314292907715
1413393215710760500,0.02380216121673584,0.019083334133028984,0.10996502637863159,9.9506196975708,0.09945321083068848,-2.78454327583313
1413393215715760500,-0.01742256060242653,-0.014310585334897041,0.03772442787885666,9.016716003417969,-0.6456653475761414,-2.656010627746582
1413393215720760500,-0.016829408705234528,-0.019556021317839622,0.02727659046649933,10.008777618408203,0.47177138924598694,-3.135113000869751
1413393215725760500,0.017780989408493042,0.04598986357450485,0.0996682196855545,9.606561660766602,-0.3406142294406891,-2.620274782180786
1413393215730760500,-0.010602429509162903,0.004561876878142357,0.04448492079973221,8.886635780334473,-0.32624998688697815,-2.7695486545562744
1413393215735760500,-0.007935479283332825,0.022895118221640587,0.07275208830833435,9.168275833129883,0.9528071880340576,-2.65594744682312
1413393215740760500,-0.0010037273168563843,0.022110236808657646,0.12713000178337097,9.484169960021973,-0.16278336942195892,-2.6953773498535156
1413393215745760500,-0.03935087472200394,0.00881444476544857,0.05831822007894516,8.689644813537598,-0.6510058045387268,-2.7626490592956543
1413393215750760500,-0.008821308612823486,-0.040748126804828644,0.11334184557199478,8.579793930053711,0.2842194139957428,-2.3463175296783447
1413393215755760500,0.03063911944627762,-0.02296910434961319,0.16017292439937592,10.707736015319824,-0.70196133852005,-3.1569933891296387
1413393215760760500,0.006815575063228607,0.011810209602117538,0.07540866732597351,9.37473201751709,-0.8716657161712646,-3.0212905406951904
1413393215765760500,0.033156171441078186,-0.032078370451927185,0.12059373408555984,8.530253410339355,0.6987017393112183,-2.4774515628814697
1413393215770760500,0.04459184408187866,-0.014460424892604351,0.12168719619512558,10.716730117797852,-0.48142194747924805,-3.287562847137451
1413393215775760500,-0.013351604342460632,0.032649099826812744,0.04117218032479286,8.961060523986816,0.5669044852256775,-3.0142993927001953
1413393215780760500,-0.005866356194019318,-0.028009355068206787,0.12013623118400574,9.104079246520996,0.6807515621185303,-2.5117852687835693
1413393215785760500,-0.0379960760474205,0.028838535770773888,0.030629850924015045,10.862205505371094,-0.5713467597961426,-3.441877603530884
1413393215790760500,-0.03872983157634735,0.06715454906225204,0.019154630601406097,8.477198600769043,0.3255603313446045,-2.38710618019104
1413393215795760500,0.00608941912651062,-0.06373295933008194,0.11496193706989288,9.288626670837402,-0.29339858889579773,-2.5509815216064453
1413393215800760500,-0.019807342439889908,0.05775805562734604,0.03433486819267273,10.151829719543457,-0.6615331768989563,-3.2139196395874023
1413393215805760500,0.0025636181235313416,0.04712747782468796,0.04677540808916092,7.585227012634277,0.6861065626144409,-2.0368194580078125
1413393215810760500,0.035992518067359924,-0.05681721121072769,0.13451635837554932,9.549478530883789,-0.24348348379135132,-2.876011848449707
1413393215815760500,-0.006727032363414764,0.018202001228928566,0.07654367387294769,9.059945106506348,-0.3259049952030182,-2.863891363143921
1413393215820760500,0.009139612317085266,-0.020692789927124977,0.11715587228536606,8.030241966247559,0.9183320999145508,-2.151181697845459
1413393215825760500,0.020841650664806366,-0.0031773382797837257,0.12783686816692352,10.827851295471191,-0.7657265663146973,-3.117046356201172
1413393215830760500,-0.010461479425430298,0.012240920215845108,0.08433624356985092,9.018593788146973,-0.0691530853509903,-2.5148777961730957
1413393215835760500,0.00592195987701416,-0.056915558874607086,0.11250879615545273,9.950786590576172,0.1625293493270874,-2.786245822906494
1413393215840760500,-0.028873659670352936,0.03974694013595581,0.014576360583305359,10.077827453613281,-0.3813360631465912,-3.2239296436309814
1413393215845760500,-0.025313153862953186,0.05739668756723404,0.030283955857157707,9.07861042022705,0.251350462436676,-2.419325828552246
1413393215850760500,-0.0016685277223587036,0.05089784413576126,0.0897718146443367,10.234146118164062,-0.4786450266838074,-2.7604691982269287
1413393215855760500,-0.0289081409573555,0.07527769356966019,0.05526069551706314,9.214354515075684,-0.3081725239753723,-3.0535054206848145
1413393215860760500,0.008250832557678223,0.03914680331945419,0.09728352725505829,8.187248229980469,0.3380812108516693,-2.1516599655151367
1413393215865760500,0.01920514553785324,0.03722500801086426,0.10399005562067032,9.039817810058594,-0.816379189491272,-2.1733763217926025
1413393215870760500,0.008555710315704346,0.016797510907053947,0.08880497515201569,8.772317886352539,-0.06963517516851425,-2.792494773864746
1413393215875760500,0.019770100712776184,-0.03508858010172844,0.13044297695159912,9.513317108154297,0.5629633665084839,-2.657028913497925
1413393215880760500,-0.022669509053230286,-0.023671355098485947,0.0750599354505539,9.760417938232422,-0.0630655512213707,-3.2002756595611572
1413393215885760500,-0.018751241266727448,0.022977175191044807,0.09704764932394028,9.63146686553955,0.40427708625793457,-3.077397108078003
1413393215890760500,-0.005826845765113831,0.027021387591958046,0.07555828243494034,9.748003005981445,-0.6868821382522583,-2.0668888092041016
1413393215895760500,-0.005856670439243317,0.03902958333492279,0.055683813989162445,9.923625946044922,-0.4584338963031769,-3.420279026031494
1413393215900760500,0.023201093077659607,0.03353787958621979,0.08686193823814392,10.008305549621582,0.059672802686691284,-2.6701319217681885
1413393215905760500,-0.00603446364402771,0.026875069364905357,0.04560428857803345,9.207221984863281,0.04866919293999672,-2.591183662414551
1413393215910760500,-0.010986529290676117,0.0732375830411911,0.03469562530517578,9.270543098449707,0.19979436695575714,-3.08760666847229
1413393215915760500,-0.010873042047023773,0.031113063916563988,0.06870195269584656,9.029711723327637,-0.15351417660713196,-1.5311414003372192
1413393215920760500,-0.022029250860214233,-0.012047814205288887,0.07287929952144623,8.977624893188477,-0.07905204594135284,-3.031245231628418
1413393215925760500,-0.0005221068859100342,0.01367577351629734,0.07226933538913727,9.139389991760254,0.01839754544198513,-2.9485654830932617
1413393215930760500,0.0009026229381561279,-0.016082553192973137,0.08597120642662048,8.831664085388184,-0.14597128331661224,-2.3774101734161377
1413393215935760500,0.006517753005027771,-0.01608337089419365,0.11836832761764526,9.843219757080078,-0.06019661948084831,-3.7066893577575684
1413393215940760500,0.020464837551116943,0.03103913925588131,0.14566168189048767,9.650322914123535,-0.17185403406620026,-1.93514883518219
1413393215945760500,0.010834671556949615,0.0321875736117363,0.14340418577194214,9.436796188354492,-0.08537191897630692,-3.3003528118133545
1413393215950760500,0.01567104458808899,0.0598897859454155,0.12323981523513794,9.817564010620117,0.13903924822807312,-3.258748769760132
1413393215955760500,-0.012303672730922699,0.026113299652934074,0.06605221331119537,8.930283546447754,0.015797382220625877,-1.6292948722839355
1413393215960760500,-0.016604740172624588,0.014368792995810509,0.04336067661643028,9.55839729309082,-0.1134570762515068,-3.8392724990844727
1413393215965760500,-0.019364655017852783,0.04771042615175247,0.010228119790554047,9.41865348815918,-0.12093359231948853,-2.2468762397766113
1413393215970760500,-0.03536015748977661,-0.013679921627044678,0.013899892568588257,8.872352600097656,0.1510966271162033,-2.7387502193450928
1413393215975760500,-0.012289807200431824,0.05259019136428833,0.053948160260915756,10.103277206420898,-0.174987331032753,-4.24668550491333
1413393215980760500,0.0022304654121398926,0.04209631681442261,0.09006579220294952,8.682564735412598,-0.4409388303756714,-1.7803863286972046
1413393215985760500,0.015612378716468811,0.013152288272976875,0.11657053232192993,9.485367774963379,-0.4214375913143158,-3.626225471496582
1413393215990760500,0.02414989471435547,0.09067557007074356,0.0992082804441452,9.836485862731934,0.012471663765609264,-2.0162692070007324
1413393215995760500,0.006465628743171692,0.010117672383785248,0.11567440629005432,8.282827377319336,0.4526032507419586,-2.208425283432007
1413393216000760500,-0.00400061160326004,0.026318741962313652,0.11136732995510101,10.529256820678711,-0.21928900480270386,-3.9871127605438232
1413393216005760500,-0.019242621958255768,0.03107513301074505,0.08253291249275208,8.659543991088867,-0.1038941740989685,-1.16373872756958
1413393216010760500,-0.010953284800052643,-0.022988367825746536,0.09570614993572235,9.101668357849121,0.12692493200302124,-3.5623199939727783
1413393216015760500,0.001690194010734558,0.024911319836974144,0.07499410212039948,9.808333396911621,-0.87147456407547,-2.285430669784546
1413393216020760500,0.010077200829982758,-0.0117002222687006,0.08268874883651733,9.632625579833984,-0.21173915266990662,-2.0751640796661377
1413393216025760500,0.03103487193584442,0.0545668751001358,0.10126301646232605,10.324868202209473,-0.11242032796144485,-4.125675678253174
1413393216030760500,0.018422268331050873,0.061221979558467865,0.07746525853872299,8.601765632629395,-0.015937134623527527,-1.2201217412948608
1413393216035760500,0.004445493221282959,0.014318885281682014,0.09214428067207336,9.216113090515137,0.5192049145698547,-3.3177456855773926
1413393216040760500,-0.01225282996892929,0.08366067707538605,0.061722684651613235,9.658647537231445,-0.20383509993553162,-1.7745193243026733
1413393216045760500,-0.042512863874435425,-0.005655564367771149,0.02417566254734993,8.839742660522461,0.468556672334671,-2.582451343536377
1413393216050760500,-0.034687355160713196,0.05453271418809891,0.02854989469051361,9.656937599182129,-0.05549236387014389,-3.531708002090454
1413393216055760500,-0.033694952726364136,-0.00926247052848339,0.021815598011016846,8.763396263122559,-0.47532376646995544,-1.3659474849700928
1413393216060760500,-0.00331849604845047,0.04550623893737793,0.0618145577609539,10.32504940032959,-0.32184192538261414,-4.197298049926758
1413393216065760500,0.03169390559196472,0.07122369110584259,0.08422760665416718,8.666582107543945,-0.5176736116409302,-2.0844638347625732
1413393216070760500,0.03040732443332672,-0.016120586544275284,0.10483813285827637,9.461256980895996,0.5003121495246887,-2.956063985824585
1413393216075760500,0.02253473550081253,0.08957653492689133,0.11433106660842896,9.051764488220215,0.48224177956581116,-3.43949818611145
1413393216080760500,-0.016500741243362427,-0.03727421909570694,0.07541023194789886,8.17678165435791,0.3046450614929199,-1.4235223531723022
1413393216085760500,-0.029863432049751282,0.030181774869561195,0.08760914206504822,10.603787422180176,0.4403931796550751,-4.467494487762451
1413393216090760500,-0.033991195261478424,0.03312046080827713,0.07683038711547852,8.191376686096191,-0.3826255798339844,-1.749982237815857
1413393216095760500,-0.026937447488307953,-0.05874311178922653,0.07952117174863815,9.263008117675781,-0.13033121824264526,-2.793811082839966
1413393216100760500,-0.0025846362113952637,0.08026813715696335,0.08653350174427032,9.342580795288086,-0.4128345847129822,-2.1997103691101074
1413393216105760500,0.0008699744939804077,-0.0630677342414856,0.07881400734186172,9.321893692016602,-0.037959251552820206,-2.3663835525512695
1413393216110760500,0.004476584494113922,0.11253418773412704,0.07151523232460022,10.837163925170898,-0.5772573947906494,-4.059416770935059
1413393216115760500,0.015077561140060425,0.03218591958284378,0.06295865774154663,8.764684677124023,-0.4809417128562927,-1.530471920967102
1413393216120760500,0.014369755983352661,0.07215142250061035,0.06135207414627075,10.735466957092285,0.16013143956661224,-3.9749014377593994
1413393216125760500,0.019667640328407288,0.10484888404607773,0.07832439243793488,7.741335391998291,-0.09497997909784317,-1.6779205799102783
1413393216130760500,0.00802970677614212,-0.049299344420433044,0.06921220570802689,9.545655250549316,0.09575007855892181,-2.1320035457611084
1413393216135760500,0.007849827408790588,0.12447457760572433,0.07795732468366623,10.38025188446045,-0.16730432212352753,-3.7818894386291504
1413393216140760500,-0.009042300283908844,-0.03719893842935562,0.0865141749382019,7.757817268371582,0.36546820402145386,-1.7269564867019653
1413393216145760500,-0.031187184154987335,0.04577294737100601,0.08909185975790024,11.403162002563477,0.15055200457572937,-4.426642894744873
1413393216150760500,-0.019544169306755066,0.10431560128927231,0.11527945846319199,8.060040473937988,-0.15211011469364166,-1.8233044147491455
1413393216155760500,-0.009648837149143219,-0.0715365782380104,0.12644091248512268,9.50308895111084,0.000984981656074524,-3.470378875732422
1413393216160760500,-0.002629905939102173,0.11540544778108597,0.11588170379400253,8.763729095458984,-0.5342260003089905,-2.3143725395202637
1413393216165760500,0.0038208365440368652,-0.09531407803297043,0.0871565192937851,9.617460250854492,-0.006330022122710943,-2.253185749053955
1413393216170760500,0.012142054736614227,0.07351380586624146,0.07273177802562714,11.203323364257812,-0.8748871684074402,-3.959442138671875
1413393216175760500,0.019115760922431946,0.004819704219698906,0.057165756821632385,7.452787399291992,-0.012468889355659485,-1.2789115905761719
1413393216180760500,0.013782307505607605,-0.002478150650858879,0.05799498409032822,11.43624210357666,0.4518067240715027,-3.671384572982788
1413393216185760500,0.0030355453491210938,0.12380709499120712,0.030165713280439377,8.94066047668457,0.0766635537147522,-2.42612361907959
1413393216190760500,-0.005456022918224335,-0.07816413044929504,0.07411514967679977,8.898479461669922,0.6966821551322937,-2.639371156692505
1413393216195760500,-0.029778584837913513,0.09402450919151306,0.04608755558729172,10.210803985595703,-0.029125520959496498,-3.41318941116333
1413393216200760500,-0.03627503663301468,-0.05522759258747101,0.09425488114356995,7.356194972991943,0.5443068146705627,-1.5455880165100098
1413393216205760500,-0.04381677508354187,-0.0397842675447464,0.09101314097642899,11.368938446044922,-0.6631942391395569,-3.5100321769714355
1413393216210760500,-0.021613381803035736,0.0324973538517952,0.09617100656032562,8.043854713439941,0.1505289226770401,-1.6946343183517456
1413393216215760500,0.0032125860452651978,-0.10716219991445541,0.09153038263320923,10.841922760009766,0.018435148522257805,-3.5492968559265137
1413393216220760500,0.005230605602264404,0.05424541234970093,0.08737984299659729,8.679483413696289,-0.1804453581571579,-1.8482496738433838
1413393216225760500,0.01158452033996582,-0.11380965262651443,0.10587146133184433,9.356863021850586,0.514454185962677,-2.7032828330993652
1413393216230760500,0.012174054980278015,0.03099077008664608,0.08138015866279602,10.169099807739258,-0.6041970252990723,-2.840693473815918
1413393216235760500,0.026075594127178192,-0.061365820467472076,0.11166539788246155,8.012699127197266,0.43972399830818176,-2.3796424865722656
1413393216240760500,0.01852518320083618,-0.0021506566554307938,0.050682831555604935,10.326057434082031,-0.6767563819885254,-2.988539934158325
1413393216245760500,0.021142855286598206,0.021148955449461937,0.08309407532215118,8.099665641784668,0.4743103086948395,-1.9704031944274902
1413393216250760500,0.0029321014881134033,-0.06622824817895889,0.07767392694950104,10.181272506713867,0.2550746202468872,-2.8894145488739014
1413393216255760500,-0.019435174763202667,0.033369310200214386,0.05887599661946297,9.824735641479492,-0.03636575862765312,-2.637622594833374
1413393216260760500,-0.018590502440929413,-0.059905409812927246,0.1082879975438118,8.986891746520996,0.6243724822998047,-2.778682231903076
1413393216265760500,-0.03337327390909195,-0.02108335867524147,0.05505981296300888,9.647332191467285,-0.8102574348449707,-2.882829189300537
1413393216270760500,0.005678102374076843,-0.059702299535274506,0.154666006565094,8.725558280944824,0.05371136590838432,-2.8586039543151855
1413393216275760500,0.01075495034456253,-0.05071472376585007,0.07553204894065857,9.788430213928223,-1.117334246635437,-2.8744957447052
1413393216280760500,0.026147425174713135,-0.04205705225467682,0.1406918168067932,8.8550443649292,0.6936904191970825,-3.0713136196136475
1413393216285760500,0.0031041204929351807,-0.06190687417984009,0.07396112382411957,9.707112312316895,-0.27719202637672424,-2.728347063064575
1413393216290760500,-0.015827476978302002,0.003323504701256752,0.07452364265918732,9.401089668273926,0.2412005513906479,-3.437498092651367
1413393216295760500,0.00930507481098175,0.0072974469512701035,0.09090548753738403,8.560495376586914,-0.2798386216163635,-2.182515859603882
1413393216300760500,-0.001117900013923645,-0.022862086072564125,0.042416270822286606,9.435036659240723,-0.6273913979530334,-2.792346477508545
1413393216305760500,0.04915975034236908,0.019557954743504524,0.14565187692642212,9.36054801940918,0.5111454725265503,-2.9162542819976807
1413393216310760500,0.01343158632516861,0.0025983471423387527,0.055216990411281586,9.62371826171875,-0.1126360148191452,-2.5901987552642822
1413393216315760500,0.00785769522190094,0.03973869979381561,0.1576002985239029,9.183465957641602,1.301117181777954,-3.111708164215088
1413393216320760500,-0.03192073851823807,-0.019560396671295166,0.0763867050409317,8.95416259765625,-0.24918733537197113,-2.6713624000549316
1413393216325760500,-0.05226287990808487,0.01339186541736126,0.08688641339540482,9.34544563293457,0.5425212383270264,-3.4305872917175293
1413393216330760500,-0.01989808678627014,0.01363353431224823,0.051203299313783646,8.534618377685547,-0.8790294528007507,-2.0284504890441895
1413393216335760500,-0.01789524406194687,-0.00286989938467741,0.0745733231306076,9.444377899169922,-0.2754269540309906,-3.8454415798187256
1413393216340760500,0.01833854615688324,0.023294581100344658,0.11228371411561966,8.250003814697266,-0.07246449589729309,-1.9710439443588257
1413393216345760500,-0.020812593400478363,-0.07693768292665482,0.06774890422821045,9.787731170654297,-0.32557612657546997,-3.372382640838623
1413393216350760500,0.007959969341754913,0.03733200579881668,0.13813544809818268,9.79538631439209,0.5672362446784973,-3.1514875888824463
1413393216355760500,-0.024883411824703217,-0.060110904276371,0.06544554978609085,8.97785472869873,-0.7369012236595154,-2.4517431259155273
1413393216360760500,0.004510477185249329,0.05188087373971939,0.10723449289798737,10.283592224121094,-0.012173322029411793,-4.033169269561768
1413393216365760500,0.013098537921905518,0.007941393181681633,0.04953192174434662,7.911677837371826,-0.9840294718742371,-1.6521447896957397
1413393216370760500,0.025923356413841248,0.003336915746331215,0.07203509658575058,11.525626182556152,-0.16298489272594452,-4.4975266456604
1413393216375760500,0.035106390714645386,0.12431175261735916,0.07401890307664871,8.28345775604248,0.3394703269004822,-1.4088106155395508
1413393216380760500,-0.013127245008945465,-0.036283038556575775,0.10890112817287445,9.7974271774292,0.5083754062652588,-4.147210597991943
1413393216385760500,-0.012492284178733826,0.07664402574300766,0.09821133315563202,8.143370628356934,-0.1466950625181198,-1.5480433702468872
1413393216390760500,-0.031476132571697235,-0.1182151660323143,0.10741881281137466,9.240788459777832,-0.36948809027671814,-3.2409725189208984
1413393216395760500,0.01425798237323761,0.0345030277967453,0.10383563488721848,9.948715209960938,-0.6213098168373108,-2.433751344680786
1413393216400760500,-0.007279627025127411,-0.12901881337165833,0.03710849955677986,8.329682350158691,-0.5700392127037048,-1.9367297887802124
1413393216405760500,0.029639534652233124,-0.043442923575639725,0.09019597619771957,11.076191902160645,0.03742959722876549,-3.7869787216186523
1413393216410760500,-0.00583803653717041,-0.05138657987117767,0.023686282336711884,8.95474624633789,0.1159294992685318,-1.3871415853500366
1413393216415760500,0.003555983304977417,-0.03754604607820511,0.09001851081848145,12.180569648742676,-0.03754408285021782,-4.707751750946045
1413393216420760500,-0.01782478392124176,0.07366950809955597,-0.005143798887729645,9.309674263000488,-0.09868461638689041,-0.9200236797332764
1413393216425760500,-0.00964701920747757,0.01782841794192791,0.06398796290159225,10.94805908203125,0.4289248287677765,-4.2924017906188965
1413393216430760500,-0.012797899544239044,0.12195540219545364,0.007384076714515686,7.634281635284424,-0.13738828897476196,-1.0442190170288086
1413393216435760500,-0.018758408725261688,-0.008329278789460659,0.09155525267124176,9.74836540222168,0.1277184635400772,-3.5998528003692627
1413393216440760500,0.015522375702857971,0.12880371510982513,0.053971849381923676,8.815729141235352,-0.30286338925361633,-1.760657548904419
1413393216445760500,0.007759205996990204,-0.01207268238067627,0.14921855926513672,9.19938850402832,0.9050942063331604,-3.8958938121795654
1413393216450760500,0.0029717907309532166,0.12300684303045273,0.10610023885965347,9.181330680847168,-0.3828074634075165,-2.500429391860962
1413393216455760500,-0.04243077337741852,-0.07721542567014694,0.07732988148927689,7.092617034912109,0.6804600954055786,-2.3563661575317383
1413393216460760500,-0.021581359207630157,-0.00019889138638973236,0.0676928460597992,9.330388069152832,-0.5426097512245178,-2.9141616821289062
1413393216465760500,-0.05414031445980072,-0.17396940290927887,-0.0016818046569824219,7.452853679656982,0.67922043800354,-1.5482184886932373
1413393216470760500,-0.01639603078365326,-0.07750837504863739,0.08131391555070877,11.44314956665039,-0.6445550918579102,-4.258982181549072
1413393216475760500,-0.0581514909863472,-0.10601451247930527,-0.010727368295192719,7.099484443664551,0.5658086538314819,-1.5060786008834839
1413393216480760500,-0.004813283681869507,-0.12139736115932465,0.14608320593833923,11.5370512008667,-0.4305277466773987,-3.889988899230957
1413393216485760500,-0.022555232048034668,-0.042305320501327515,0.05225101113319397,7.902307033538818,0.526875376701355,-1.644573450088501
1413393216490760500,0.016489043831825256,-0.127406045794487,0.18501001596450806,12.321045875549316,-0.5420935153961182,-4.582818031311035
1413393216495760500,-0.021085187792778015,0.01793772540986538,0.07184915989637375,8.106121063232422,0.9588955044746399,-1.792325496673584
1413393216500760500,-0.02098298817873001,-0.023000376299023628,0.1755664050579071,10.958806991577148,0.16865485906600952,-4.927870273590088
1413393216505760500,-0.05682709068059921,0.09563779085874557,0.05351772904396057,8.427335739135742,0.0003566816449165344,-1.0925283432006836
1413393216510760500,-0.027233444154262543,-0.05104240030050278,0.1392781138420105,10.10915756225586,-0.2947870194911957,-3.8706672191619873
1413393216515760500,-0.03370308876037598,0.10338529199361801,0.030004119500517845,9.23794937133789,-0.45538243651390076,-2.370415210723877
