#timestamp [ns],w_RS_S_x [rad s^-1],w_RS_S_y [rad s^-1],w_RS_S_z [rad s^-1],a_RS_S_x [m s^-2],a_RS_S_y [m s^-2],a_RS_S_z [m s^-2]
1413393212225760500,0.09494591130849153,0.02024581932313422,0.05864306286700947,9.128356708333332,0.10623870833333333,-2.606934458333333
1413393212230760500,0.05864306286700947,0.03560471674068433,0.05166174585903216,9.422556208333333,1.1604535833333331,-2.623278875
1413393212235760500,-0.01117010721276371,0.027925268031909273,0.06981317007977318,9.398039583333333,1.61809725,-2.705000958333333
1413393212240760500,-0.07260569688296412,0.033510321638291124,0.06981317007977318,9.496106083333332,0.6701210833333332,-2.8194118749999997
1413393212245760500,-0.09215338450530061,0.03630284844148206,0.07888888219014369,8.989429166666666,-0.13075533333333333,-2.7131731666666665
1413393212250760500,-0.05864306286700947,0.024434609527920613,0.10053096491487339,9.177389958333332,-0.8907707083333333,-2.582417833333333
1413393212255760500,-0.005585053606381855,0.009075712110370514,0.11379546723003027,9.299973083333333,-1.2340034583333332,-2.476179125
1413393212260760500,0.03700098014227979,0.013264502315156905,0.10053096491487339,9.586000375,-0.8172208333333333,-2.7458620000000002
1413393212265760500,0.0614355896702004,0.023736477827122883,0.09145525280450287,9.275456458333332,0.07354987499999999,-2.582417833333333
1413393212270760500,0.04468042885105484,0.017453292519943295,0.0767944870877505,9.536967125,0.4985047083333333,-2.6886565416666666
1413393212275760500,0.009773843811168246,0.028623399732707,0.060039326268604934,9.471589458333332,0.4004382083333333,-2.606934458333333
1413393212280760500,-0.01884955592153876,0.029321531433504733,0.07190756518216637,9.496106083333332,0.220649625,-2.9256505833333333
1413393212285760500,-0.032114058236695664,0.04258603374866164,0.08656833089891874,9.332661916666666,0.122583125,-2.705000958333333
1413393212290760500,-0.04328416544945937,0.023038346126325153,0.08447393579652555,9.398039583333333,-0.04903325,-2.8194118749999997
1413393212295760500,-0.0307177948351002,0.041887902047863905,0.09494591130849153,9.659550249999999,-0.3759215833333333,-2.9174783749999995
1413393212300760500,-0.01117010721276371,0.041887902047863905,0.09354964790689606,9.1201845,-0.43312704166666666,-2.4925235416666665
1413393212305760500,-0.0006981317007977319,0.024434609527920613,0.07749261878854824,9.291800875,-0.4903325,-2.59876225
1413393212310760500,0.020943951023931952,0.014660765716752367,0.07120943348136866,9.242767624999999,-0.4004382083333333,-2.5252123749999997
1413393212315760500,0.032812189937493394,0.008377580409572781,0.07539822368615504,9.447072833333333,-0.0980665,-2.655967708333333
1413393212320760500,0.02652900463031381,0.0013962634015954637,0.08936085770210968,9.496106083333332,0.269682875,-2.69682875
1413393212325760500,0.006283185307179587,0.01117010721276371,0.09773843811168245,9.447072833333333,0.44129925,-2.7376897916666665
1413393212330760500,-0.011868238913561441,0.027925268031909273,0.10122909661567112,9.7085835,0.2533384583333333,-2.8439284999999996
1413393212335760500,-0.028623399732707,0.03700098014227979,0.09145525280450287,9.757616749999999,0.0,-2.8684451249999996
1413393212340760500,-0.028623399732707,0.041887902047863905,0.07749261878854824,9.586000375,-0.17161637500000002,-2.754034208333333
1413393212345760500,-0.01815142422074103,0.04817108735504349,0.07051130178057091,9.324489708333333,-0.48216029166666663,-2.5006957499999998
1413393212350760500,0.005585053606381855,0.02583087292951608,0.0767944870877505,9.079323458333333,-0.5148491249999999,-2.3699404166666667
1413393212355760500,0.020943951023931952,0.016755160819145562,0.0879645943005142,9.201906583333333,-0.17978858333333333,-2.574245625
1413393212360760500,0.02234021442552742,0.008377580409572781,0.09075712110370514,9.283628666666665,0.057205458333333334,-2.6151066666666667
1413393212365760500,0.009075712110370514,0.005585053606381855,0.08307767239493008,9.487933875,0.13892754166666665,-2.7867230416666664
1413393212370760500,-0.0033322423696517944,0.02556964010000229,0.0771196261048317,9.804227828979492,0.1960357427597046,-2.9672460556030273
1413393212375760500,-0.015935778617858887,0.0423041395843029,0.06732999533414841,9.5424222946167,0.03276367485523224,-2.8361196517944336
1413393212380760500,-0.024341151118278503,0.029721563681960106,0.07078403979539871,9.362737655639648,-0.1631818264722824,-2.6724531650543213
1413393212385760500,-0.012499332427978516,0.05135386437177658,0.0756392553448677,9.452140808105469,-0.31037065386772156,-2.6803455352783203
1413393212390760500,0.0077244192361831665,0.0331755056977272,0.08825976401567459,8.84859561920166,-0.19564802944660187,-2.402398109436035
1413393212395760500,0.0014803111553192139,0.0011249631643295288,0.10014388710260391,9.249614715576172,0.13920697569847107,-2.550123453140259
1413393212400760500,-0.008263662457466125,0.017176900058984756,0.09101218730211258,9.755220413208008,-0.040975090116262436,-2.7790727615356445
1413393212405760500,-0.011101379990577698,0.02901584282517433,0.0847218856215477,9.624170303344727,-0.2533544600009918,-2.9584102630615234
1413393212410760500,-0.006918281316757202,0.017142262309789658,0.079160176217556,9.207967758178711,-0.2285052388906479,-2.6560254096984863
1413393212415760500,0.0014704763889312744,0.022745780646800995,0.07702501863241196,9.803807258605957,-0.34335482120513916,-2.8849472999572754
1413393212420760500,0.01820451021194458,0.05066258832812309,0.08265268057584763,9.281294822692871,-0.14692962169647217,-2.5741522312164307
1413393212425760500,0.023783043026924133,0.025523098185658455,0.10016138106584549,9.012480735778809,0.10649893432855606,-2.558022975921631
1413393212430760500,0.005700856447219849,0.003942821174860001,0.09598378092050552,9.45380687713623,0.3270456790924072,-2.7630186080932617
1413393212435760500,-0.0159282386302948,0.015104839578270912,0.09038681536912918,9.48609733581543,0.26171058416366577,-2.6975486278533936
1413393212440760500,-0.03341704607009888,0.018550384789705276,0.08891857415437698,9.46907901763916,-0.1306026577949524,-2.72981858253479
1413393212445760500,-0.02996164560317993,0.022715717554092407,0.07281646877527237,9.419422149658203,-0.5634379386901855,-2.7294211387634277
1413393212450760500,-0.005531370639801025,0.026222188025712967,0.07421595603227615,9.49320125579834,-0.4900535047054291,-2.688616991043091
1413393212455760500,0.025886088609695435,0.02763926237821579,0.08541635423898697,9.551107406616211,-0.23701725900173187,-2.705104112625122
1413393212460760500,0.03216925263404846,0.03881020098924637,0.0889335349202156,9.3960542678833,-0.08983200788497925,-2.6069960594177246
1413393212465760500,0.024524107575416565,0.032551564276218414,0.08063358813524246,9.330949783325195,0.26988813281059265,-2.6809585094451904
1413393212470760500,0.0035867691040039062,0.029078727588057518,0.08695190399885178,9.224870681762695,0.4662897288799286,-2.5256803035736084
1413393212475760500,-0.019436508417129517,0.009503038600087166,0.08966969698667526,9.396207809448242,0.13097108900547028,-2.672874689102173
1413393212480760500,-0.03480345010757446,0.01227053627371788,0.08262721449136734,9.607852935791016,-0.18787236511707306,-2.811613082885742
1413393212485760500,-0.024358659982681274,0.024129007011651993,0.08331925421953201,9.428074836730957,-0.26130038499832153,-2.696927547454834
1413393212490760500,-0.01040157675743103,0.018546000123023987,0.0854356661438942,9.42029857635498,-0.17966444790363312,-2.8277719020843506
1413393212495760500,0.0028631240129470825,0.02554161474108696,0.08331324905157089,9.501830101013184,-0.253219872713089,-2.6315674781799316
1413393212500760500,0.01892291009426117,0.02555033192038536,0.07494399696588516,9.665268898010254,-0.25336387753486633,-2.7460455894470215
1413393212505760500,0.014040112495422363,0.03182753920555115,0.06802233308553696,9.289735794067383,-0.04879302904009819,-2.664295196533203
1413393212510760500,0.011931747198104858,0.019241083413362503,0.07361332327127457,9.020393371582031,-0.09766805171966553,-2.53341007232666
1413393212515760500,0.011237546801567078,0.0025050900876522064,0.0938364788889885,9.257638931274414,-0.04884662106633186,-2.6235575675964355
1413393212520760500,-0.002651721239089966,0.015812305733561516,0.08687631040811539,9.665794372558594,0.2125592678785324,-2.673008918762207
1413393212525760500,-0.014539092779159546,0.033948954194784164,0.10086479038000107,9.494053840637207,0.376065194606781,-2.74662709236145
1413393212530760500,-0.027838215231895447,0.021341219544410706,0.09312883764505386,9.338600158691406,-0.03249278664588928,-2.697120189666748
1413393212535760500,-0.023679032921791077,0.031101062893867493,0.08119215816259384,9.501121520996094,-0.47371652722358704,-2.7212462425231934
1413393212540760500,-0.006924748420715332,0.03389503061771393,0.06865421682596207,9.338025093078613,-0.43273502588272095,-2.647675037384033
1413393212545760500,0.014698028564453125,0.032502658665180206,0.07353294640779495,9.370925903320312,-0.4818404018878937,-2.6394951343536377
1413393212550760500,0.02726803719997406,0.026226095855236053,0.08334294706583023,9.224532127380371,-0.25309261679649353,-2.5823733806610107
1413393212555760500,0.027997702360153198,0.014396624639630318,0.10155629366636276,9.282355308532715,0.2371896505355835,-2.6073598861694336
1413393212560760500,0.00432722270488739,0.013755518943071365,0.10022421926259995,9.551772117614746,0.6540115475654602,-2.796041488647461
1413393212565760500,-0.027074143290519714,0.029774248600006104,0.0876210406422615,9.551154136657715,0.40065258741378784,-2.7549126148223877
1413393212570760500,-0.039696112275123596,0.03808977082371712,0.07426973432302475,9.419598579406738,-0.1632152646780014,-2.762326955795288
1413393212575760500,-0.023670360445976257,0.028313033282756805,0.07211408764123917,9.492868423461914,-0.5144755244255066,-2.672259569168091
1413393212580760500,-0.0020447224378585815,0.0394868403673172,0.07141777127981186,9.566385269165039,-0.5391054153442383,-2.70485258102417
1413393212585760500,0.020981043577194214,0.03319627791643143,0.08332965523004532,9.118071556091309,-0.3591649830341339,-2.4760074615478516
1413393212590760500,0.030096188187599182,0.016487067565321922,0.09104376286268234,9.486324310302734,0.024535899981856346,-2.705378532409668
1413393212595760500,0.022439569234848022,0.02559264749288559,0.09946932643651962,9.47008991241455,0.37614917755126953,-2.5829577445983887
1413393212600760500,-0.010339692234992981,0.01303707156330347,0.08904676884412766,9.404632568359375,0.5070049166679382,-2.7222838401794434
1413393212605760500,-0.031285837292671204,0.019269190728664398,0.07427676767110825,9.632387161254883,-0.057109516113996506,-2.7545204162597656
1413393212610760500,-0.027143388986587524,0.02622586116194725,0.06864235550165176,9.574668884277344,-0.4002002477645874,-2.7459235191345215
1413393212615760500,-0.004133403301239014,0.022033285349607468,0.07210349291563034,9.354300498962402,-0.6041969060897827,-2.525203227996826
1413393212620760500,0.01612316071987152,0.021356750279664993,0.07633567601442337,9.322365760803223,-0.2938728928565979,-2.4762156009674072
1413393212625760500,0.02519470453262329,0.029034530743956566,0.08826523274183273,9.249236106872559,0.016526518389582634,-2.5989131927490234
1413393212630760500,0.016156792640686035,0.021390235051512718,0.09667440503835678,9.437334060668945,0.31070294976234436,-2.6810948848724365
1413393212635760500,-0.006843879818916321,0.02349245920777321,0.09180109947919846,9.559575080871582,0.3842359483242035,-2.779407501220703
1413393212640760500,-0.029905781149864197,0.02694091759622097,0.07573825865983963,9.256915092468262,0.18825431168079376,-2.754573345184326
1413393212645760500,-0.02994610369205475,0.02062179148197174,0.07776614278554916,9.158670425415039,-0.2202562838792801,-2.664175510406494
1413393212650760500,-0.01740489900112152,0.019233856350183487,0.07975911349058151,9.509134292602539,-0.6941753029823303,-2.6396005153656006
1413393212655760500,0.01189151406288147,0.02202664688229561,0.08677398413419724,9.43631649017334,-0.563628077507019,-2.6885461807250977
1413393212660760500,0.026578709483146667,0.03041877970099449,0.08825448900461197,9.306307792663574,-0.07346678525209427,-2.7459843158721924
1413393212665760500,0.024506032466888428,0.029740020632743835,0.09736422449350357,9.322834014892578,0.20439085364341736,-2.7381327152252197
1413393212670760500,0.0015216320753097534,0.02906562015414238,0.08411922305822372,9.526765823364258,0.30245494842529297,-2.82832407951355
1413393212675760500,-0.016618400812149048,0.03116007149219513,0.07435659319162369,9.453057289123535,0.29441606998443604,-2.762913465499878
1413393212680760500,-0.030615195631980896,0.031814899295568466,0.07429883629083633,9.36279296875,-0.032477378845214844,-2.7870211601257324
1413393212685760500,-0.027172192931175232,0.021306317299604416,0.08682484179735184,9.068758964538574,-0.3346039652824402,-2.5822865962982178
1413393212690760500,-0.00974014401435852,0.016436289995908737,0.0902424231171608,9.403315544128418,-0.6452025175094604,-2.623213052749634
1413393212695760500,0.014002725481987,0.019944146275520325,0.08889129012823105,9.49380874633789,-0.3676776587963104,-2.7377164363861084
1413393212700760500,0.026588991284370422,0.024846751242876053,0.08893657475709915,9.469695091247559,-0.0980835109949112,-2.7624151706695557
1413393212705760500,0.02173234522342682,0.02416711300611496,0.08551117032766342,9.371826171875,0.23710210621356964,-2.8036437034606934
1413393212710760500,0.0015248507261276245,0.028366805985569954,0.0736449584364891,9.526690483093262,0.2289203256368637,-2.8200695514678955
1413393212715760500,-0.01663239300251007,0.03604176640510559,0.07505195587873459,9.355031967163086,0.27814626693725586,-2.656508207321167
1413393212720760500,-0.02086430788040161,0.031112583354115486,0.0854455903172493,9.281241416931152,-0.10598943382501602,-2.6152124404907227
1413393212725760500,-0.017391428351402283,0.024126585572957993,0.09168245643377304,9.321966171264648,-0.31025418639183044,-2.557887077331543
1413393212730760500,-0.004129648208618164,0.019247382879257202,0.09028156846761703,9.346651077270508,-0.3347795009613037,-2.533406972885132
1413393212735760500,0.0077507346868515015,0.018564622849225998,0.09031198173761368,9.428702354431152,-0.14697305858135223,-2.607124090194702
1413393212740760500,0.007772982120513916,0.015087824314832687,0.07846920937299728,9.477802276611328,-0.05707789957523346,-2.656311511993408
1413393212745760500,0.006410866975784302,0.019290463998913765,0.07012345641851425,9.641079902648926,0.08175282180309296,-2.811809778213501
1413393212750760500,0.0008205771446228027,0.029063142836093903,0.0680447444319725,9.493950843811035,0.1390853226184845,-2.721832275390625
1413393212755760500,-0.006882339715957642,0.04369988292455673,0.07427407056093216,9.534246444702148,-0.08165125548839569,-2.6724791526794434
1413393212760760500,-0.006219387054443359,0.03181004896759987,0.08611736446619034,9.240397453308105,-0.24484045803546906,-2.5006282329559326
1413393212765760500,-0.0013158470392227173,0.02205505594611168,0.08892730623483658,9.404123306274414,-0.08974314481019974,-2.607145071029663
1413393212770760500,-0.0047888606786727905,0.01717899553477764,0.09593769162893295,9.453377723693848,0.10633581876754761,-2.7054922580718994
1413393212775760500,-0.010397672653198242,0.019949648529291153,0.08751276880502701,9.436563491821289,-0.20415589213371277,-2.6643054485321045
1413393212780760500,-0.009005099534988403,0.017153210937976837,0.08123015612363815,9.542688369750977,-0.26960015296936035,-2.8440961837768555
1413393212785760500,-0.00618433952331543,0.027639560401439667,0.07357796281576157,9.616138458251953,-0.12257552891969681,-2.852391004562378
1413393212790760500,0.0014570653438568115,0.029716258868575096,0.08334048837423325,9.420221328735352,-0.2042168527841568,-2.786796808242798
1413393212795760500,0.009128734469413757,0.03390474244952202,0.08262863010168076,9.256810188293457,-0.2857384979724884,-2.5332977771759033
1413393212800760500,0.014036118984222412,0.017871227115392685,0.08754140883684158,9.347216606140137,-0.07337040454149246,-2.574448347091675
1413393212805760500,0.011970922350883484,0.021388033404946327,0.09457855671644211,9.437271118164062,0.28617286682128906,-2.689267158508301
1413393212810760500,-0.0020019859075546265,0.015786828473210335,0.0973629578948021,9.298379898071289,0.21271580457687378,-2.6155786514282227
1413393212815760500,-0.018763557076454163,0.020645391196012497,0.08196131139993668,9.33858585357666,-0.0978490561246872,-2.713416814804077
1413393212820760500,-0.01876126229763031,0.014362722635269165,0.08333294838666916,9.624353408813477,-0.19611532986164093,-2.9422872066497803
1413393212825760500,-0.009688377380371094,0.031821358948946,0.08123669773340225,9.575159072875977,-0.17975974082946777,-2.7623865604400635
1413393212830760500,-0.0027406513690948486,0.03320518881082535,0.08539009839296341,9.509632110595703,-0.3921346366405487,-2.688598871231079
1413393212835760500,0.011924222111701965,0.042983777821063995,0.0777503177523613,9.411870002746582,-0.24503234028816223,-2.6804349422454834
1413393212840760500,0.017532408237457275,0.03253752738237381,0.08127816766500473,9.330740928649902,0.016555724665522575,-2.5498881340026855
1413393212845760500,0.012675166130065918,0.02837151661515236,0.08829953521490097,9.4779691696167,0.286154180765152,-2.7056057453155518
1413393212850760500,-0.00409524142742157,0.013689175248146057,0.08202018588781357,9.15946102142334,0.17199721932411194,-2.5418877601623535
1413393212855760500,-0.017333731055259705,0.01717558689415455,0.07640420645475388,9.510214805603027,0.0573178268969059,-2.877178907394409
1413393212860760500,-0.023648187518119812,0.020645372569561005,0.0805588886141777,9.330331802368164,-0.12232515960931778,-2.6643497943878174
1413393212865760500,-0.01319114863872528,0.02343875542283058,0.08330341428518295,9.542418479919434,-0.3104175925254822,-2.6887760162353516
1413393212870760500,-0.002038136124610901,0.03111511468887329,0.0846889540553093,9.517820358276367,-0.3839487135410309,-2.655946969985962
1413393212875760500,0.009851008653640747,0.029038820415735245,0.07982876151800156,9.608011245727539,-0.22064195573329926,-2.6888201236724854
1413393212880760500,0.01752854883670807,0.033231038600206375,0.08408055454492569,9.298105239868164,0.057404790073633194,-2.5907838344573975
1413393212885760500,0.009163260459899902,0.02974511869251728,0.07853475958108902,9.208305358886719,0.20459917187690735,-2.623635768890381
1413393212890760500,-0.006886973977088928,0.00740477629005909,0.07851434499025345,9.134969711303711,0.08216623961925507,-2.460049867630005
1413393212895760500,-0.016621574759483337,0.015781866386532784,0.08056900650262833,9.74699878692627,0.008111459203064442,-2.893566846847534
1413393212900760500,-0.01668250560760498,0.03320862352848053,0.08890994638204575,9.321977615356445,-0.1877099871635437,-2.549732208251953
1413393212905760500,-0.01601530611515045,0.015728678554296494,0.08890394121408463,9.273107528686523,-0.3838158845901489,-2.7866456508636475
1413393212910760500,-0.0013247132301330566,0.021351415663957596,0.07770826667547226,9.583267211914062,-0.36761245131492615,-2.6479177474975586
1413393212915760500,0.014753162860870361,0.03183721750974655,0.07704731076955795,9.76318073272705,-0.16359925270080566,-2.7788052558898926
1413393212920760500,0.01615065336227417,0.04441867023706436,0.07852936536073685,9.355194091796875,0.24538521468639374,-2.607271671295166
1413393212925760500,8.842349052429199e-05,0.02624446339905262,0.07573578506708145,9.159211158752441,0.13924771547317505,-2.623588800430298
1413393212930760500,-0.005511820316314697,0.018555212765932083,0.0882343128323555,9.248953819274902,-0.12229295819997787,-2.533493757247925
1413393212935760500,-0.01037578284740448,0.006699010729789734,0.09101959317922592,9.575746536254883,-0.07353344559669495,-2.779024600982666
1413393212940760500,-0.005523592233657837,0.024130482226610184,0.10008817166090012,9.395868301391602,-0.13069655001163483,-2.729666233062744
1413393212945760500,-0.0076269060373306274,0.018528170883655548,0.08473476022481918,9.158895492553711,-0.29385098814964294,-2.623236894607544
1413393212950760500,0.007736235857009888,0.018554918467998505,0.0902879610657692,9.550994873046875,-0.2941737174987793,-2.721478223800659
1413393212955760500,0.01339896023273468,0.02835790254175663,0.08128831535577774,9.837000846862793,0.12238378822803497,-2.942591667175293
1413393212960760500,0.004299789667129517,0.04162374883890152,0.07854824513196945,9.404086112976074,0.32703539729118347,-2.7955386638641357
1413393212965760500,-0.01177738606929779,0.03600147366523743,0.06524505466222763,9.207763671875,0.00029899924993515015,-2.7297301292419434
1413393212970760500,-0.008299604058265686,0.028326114639639854,0.0763697400689125,9.183338165283203,-0.16304096579551697,-2.4761765003204346
1413393212975760500,-0.006904631853103638,0.012273341417312622,0.088932566344738,9.36335563659668,-0.11424195766448975,-2.6807520389556885
1413393212980760500,-0.00968196988105774,0.01996495947241783,0.08963184803724289,9.420458793640137,-0.032522283494472504,-2.5990545749664307
1413393212985760500,-0.008318483829498291,0.013656847178936005,0.088902048766613,9.379435539245605,-0.2940034568309784,-2.6805856227874756
1413393212990760500,0.00634649395942688,0.02065286785364151,0.08609787374734879,9.526410102844238,-0.29410260915756226,-2.6560943126678467
1413393212995760500,0.005708456039428711,0.029752708971500397,0.07499825209379196,9.714366912841797,0.048950742930173874,-2.84442138671875
1413393213000760500,0.00011730194091796875,0.032554853707551956,0.06739532202482224,9.31429386138916,0.3434961140155792,-2.7710413932800293
1413393213005760500,-0.013172298669815063,0.033213190734386444,0.07011953741312027,9.297624588012695,-0.02428428828716278,-2.7542738914489746
1413393213010760500,-0.008306369185447693,0.03320895880460739,0.0798424556851387,9.199518203735352,-0.22841936349868774,-2.45975923538208
1413393213015760500,0.0007619708776473999,0.02274235710501671,0.09100650995969772,9.338685035705566,-0.19593147933483124,-2.5743229389190674
1413393213020760500,-0.00132809579372406,0.014364916831254959,0.09591621905565262,9.31445026397705,-0.08157079666852951,-2.6561877727508545
1413393213025760500,-0.0006520301103591919,0.014355331659317017,0.09935372322797775,9.436637878417969,-0.33495181798934937,-2.664198875427246
1413393213030760500,0.004967063665390015,0.017869863659143448,0.09099365025758743,9.600088119506836,-0.17161856591701508,-2.664417266845703
1413393213035760500,0.005712643265724182,0.024878567084670067,0.0757272019982338,9.575784683227539,0.19619892537593842,-2.7955281734466553
1413393213040760500,-0.006853044033050537,0.028367040678858757,0.07155247777700424,9.453145027160645,0.22901473939418793,-2.738290309906006
1413393213045760500,-0.011064782738685608,0.03183118999004364,0.07148177176713943,9.583337783813477,-0.11434848606586456,-2.7543017864227295
1413393213050760500,0.0007627904415130615,0.0450817346572876,0.08471230417490005,9.305554389953613,-0.2448720633983612,-2.467881202697754
1413393213055760500,0.0014457851648330688,0.0276026651263237,0.09103893488645554,9.020163536071777,-0.1794133484363556,-2.500582456588745
1413393213060760500,0.004940405488014221,0.010165739804506302,0.0945185199379921,9.191993713378906,-0.1713782697916031,-2.6070210933685303
1413393213065760500,0.007756099104881287,0.01647523045539856,0.09797539561986923,9.55941104888916,-0.13075050711631775,-2.623553991317749
1413393213070760500,0.0064000338315963745,0.01719152182340622,0.0868467465043068,9.690165519714355,0.04898900166153908,-2.730065107345581
1413393213075760500,-0.004062429070472717,0.019983557984232903,0.07780923694372177,9.567566871643066,0.138998880982399,-2.811861038208008
1413393213080760500,-0.012462809681892395,0.027641847729682922,0.07291709631681442,9.354962348937988,0.04107234999537468,-2.729879140853882
1413393213085760500,-0.009678468108177185,0.0332241952419281,0.07497518509626389,9.477239608764648,-0.09793630987405777,-2.6970415115356445
1413393213090760500,-0.0006270706653594971,0.03810017555952072,0.07565610855817795,9.403635025024414,-0.22046196460723877,-2.647810459136963
1413393213095760500,0.0028475672006607056,0.03249897062778473,0.08614716678857803,9.126262664794922,-0.1712907999753952,-2.5414862632751465
1413393213100760500,0.009835168719291687,0.010175537317991257,0.09033668786287308,9.077747344970703,-0.14669692516326904,-2.4108028411865234
1413393213105760500,0.009864374995231628,0.009503649547696114,0.10218524187803268,9.600558280944824,0.008137160912156105,-2.6809585094451904
1413393213110760500,-0.006855010986328125,0.01579657942056656,0.08756900578737259,9.600342750549316,0.14715509116649628,-2.754685163497925
1413393213115760500,-0.01384502649307251,0.01438738964498043,0.08059152215719223,9.502190589904785,0.08183342963457108,-2.819995164871216
1413393213120760500,-0.018040060997009277,0.02415071614086628,0.074987031519413,9.54267406463623,-0.04076823964715004,-2.8198137283325195
1413393213125760500,-0.010388806462287903,0.03391200304031372,0.07356031984090805,9.566874504089355,-0.22874654829502106,-2.8031818866729736
1413393213130760500,-0.006207317113876343,0.04298635199666023,0.07146001607179642,9.47688102722168,-0.26134783029556274,-2.6804678440093994
1413393213135760500,0.007727399468421936,0.041577115654945374,0.07843198627233505,9.240222930908203,-0.36738261580467224,-2.5250372886657715
1413393213140760500,0.01262672245502472,0.028325973078608513,0.08964335173368454,9.020374298095703,-0.10578549653291702,-2.3289363384246826
1413393213145760500,0.014750391244888306,0.0011310558766126633,0.09732658416032791,9.486469268798828,0.06542468816041946,-2.7055325508117676
1413393213150760500,0.0029248446226119995,0.018600715324282646,0.08688830584287643,9.624957084655762,0.23704485595226288,-2.7629239559173584
1413393213155760500,-0.016632750630378723,0.016485653817653656,0.0791914239525795,9.518477439880371,0.07368101179599762,-2.7464208602905273
1413393213160760500,-0.018063440918922424,0.028327617794275284,0.08474131673574448,9.452783584594727,-0.10611837357282639,-2.7379202842712402
1413393213165760500,-0.014590442180633545,0.027621354907751083,0.0875110998749733,9.485358238220215,-0.22873187065124512,-2.762312650680542
1413393213170760500,-0.008292704820632935,0.0318240188062191,0.07981767505407333,9.656646728515625,-0.26150140166282654,-2.7133162021636963
1413393213175760500,0.011209219694137573,0.040181390941143036,0.08540967851877213,9.379158973693848,-0.3512328565120697,-2.6639938354492188
1413393213180760500,0.022374749183654785,0.03527352958917618,0.08966124802827835,8.914111137390137,-0.1548917591571808,-2.484171152114868
1413393213185760500,0.018913477659225464,0.010889377444982529,0.09947048872709274,9.086256980895996,0.1882881224155426,-2.5091092586517334
1413393213190760500,-0.0005457103252410889,0.011626703664660454,0.09038539975881577,9.723048210144043,0.30238258838653564,-2.828486919403076
1413393213195760500,-0.013848036527633667,0.023463550955057144,0.0896589532494545,9.526637077331543,0.1144905760884285,-2.7464051246643066
1413393213200760500,-0.020161032676696777,0.02832416258752346,0.07845639437437057,9.354680061340332,-0.1631927788257599,-2.6479225158691406
1413393213205760500,-0.01945289969444275,0.02134985849261284,0.07426286488771439,9.518040657043457,-0.18781468272209167,-2.7624590396881104
1413393213210760500,-0.010383933782577515,0.029729224741458893,0.07353723794221878,9.656583786010742,-0.29414793848991394,-2.7296626567840576
1413393213215760500,0.0063253045082092285,0.04436700791120529,0.08192140609025955,9.354506492614746,-0.3593575954437256,-2.6557843685150146
1413393213220760500,0.01819269359111786,0.031088482588529587,0.08477532118558884,8.938608169555664,-0.1548798680305481,-2.508730888366699
1413393213225760500,0.016126856207847595,0.010193509981036186,0.09319674223661423,9.0698823928833,0.20466721057891846,-2.517306089401245
1413393213230760500,0.0050415098667144775,0.008837196975946426,0.08968406170606613,9.763964653015137,0.2941816747188568,-2.828494071960449
1413393213235760500,-0.01105530560016632,0.025552578270435333,0.08893964439630508,9.66532039642334,0.024460110813379288,-2.8117330074310303
1413393213240760500,-0.018773436546325684,0.026919057592749596,0.08055973798036575,9.240433692932129,-0.1549655795097351,-2.631531000137329
1413393213245760500,-0.017356067895889282,0.02065281569957733,0.07777690142393112,9.452913284301758,-0.07341129332780838,-2.8115837574005127
1413393213250760500,-0.011077001690864563,0.029033705592155457,0.07631400972604752,9.738142013549805,-0.31054413318634033,-2.697014093399048
1413393213255760500,0.0028610676527023315,0.033216141164302826,0.07354225963354111,9.558724403381348,-0.3186092972755432,-2.7132112979888916
1413393213260760500,0.016105756163597107,0.0464593768119812,0.07847049087285995,9.052631378173828,-0.20389047265052795,-2.4514577388763428
1413393213265760500,0.013327732682228088,0.019252000376582146,0.08692706376314163,8.898125648498535,0.19660694897174835,-2.427208662033081
1413393213270760500,0.003610387444496155,0.006725730374455452,0.0945410504937172,9.633294105529785,0.14710105955600739,-2.746553659439087
1413393213275760500,-0.010337859392166138,0.0220628771930933,0.08405330032110214,9.836766242980957,0.008004856295883656,-2.909876585006714
1413393213280760500,-0.015975818037986755,0.031116465106606483,0.08055844157934189,9.289422988891602,-0.12231055647134781,-2.59885311126709
1413393213285760500,-0.015987947583198547,0.017137698829174042,0.08126582950353622,9.126283645629883,-0.17125260829925537,-2.6151697635650635
1413393213290760500,-0.004115283489227295,0.016463223844766617,0.08471129089593887,9.526415824890137,-0.2532486319541931,-2.6970269680023193
1413393213295760500,0.004954501986503601,0.02274726703763008,0.08120807260274887,9.648734092712402,-0.32688257098197937,-2.737828016281128
1413393213300760500,0.013339102268218994,0.04998207092285156,0.07914533466100693,9.477163314819336,-0.13884064555168152,-2.574242115020752
1413393213305760500,0.011923089623451233,0.023415694013237953,0.08902551978826523,8.824467658996582,0.1883438229560852,-2.5416905879974365
1413393213310760500,0.0021918118000030518,0.008112626150250435,0.10222559422254562,9.453678131103516,0.1635482907295227,-2.6810553073883057
1413393213315760500,-0.010347127914428711,0.01717877946794033,0.09032537788152695,9.779736518859863,0.008046912960708141,-2.820003032684326
1413393213320760500,-0.015980154275894165,0.035298485308885574,0.08404814451932907,9.379188537597656,-0.12243716418743134,-2.7623302936553955
1413393213325760500,-0.009710133075714111,0.017845671623945236,0.08961419016122818,9.289630889892578,-0.22039976716041565,-2.615187883377075
1413393213330760500,-0.0027208328247070312,0.023442361503839493,0.08052874356508255,9.526300430297852,-0.26142144203186035,-2.729658365249634
1413393213335760500,0.006373867392539978,0.022763527929782867,0.07356303185224533,9.501991271972656,-0.1551247537136078,-2.607152223587036
1413393213340760500,0.01056736707687378,0.03811617195606232,0.07078707963228226,9.697766304016113,-0.1226738840341568,-2.844146966934204
1413393213345760500,0.011241644620895386,0.03810093179345131,0.07713311165571213,9.077454566955566,0.13109835982322693,-2.5744009017944336
1413393213350760500,0.002866894006729126,0.017860012128949165,0.0848466232419014,8.947077751159668,0.2782879173755646,-2.5418496131896973
1413393213355760500,-0.008962094783782959,0.012996150180697441,0.08826049417257309,9.526835441589355,0.08998505026102066,-2.7382657527923584
1413393213360760500,-0.01945248246192932,0.02693311870098114,0.08541639894247055,9.67310619354248,-0.17982180416584015,-2.8115060329437256
1413393213365760500,-0.01042485237121582,0.02131938561797142,0.08611009269952774,9.232199668884277,-0.3837417662143707,-2.6395304203033447
1413393213370760500,-0.004116803407669067,0.01785404607653618,0.07915300875902176,9.346831321716309,-0.20408141613006592,-2.672462224960327
1413393213375760500,0.009163886308670044,0.022763513028621674,0.08055087178945541,9.510303497314453,-0.09798333048820496,-2.6398885250091553
1413393213380760500,0.008493036031723022,0.026952210813760757,0.07985997945070267,9.836822509765625,-0.049245432019233704,-2.8852243423461914
1413393213385760500,0.004287406802177429,0.04301069676876068,0.07639246433973312,9.469225883483887,0.04097253456711769,-2.6398627758026123
1413393213390760500,-0.004816100001335144,0.02901366725564003,0.08483325690031052,8.914159774780273,0.21292142570018768,-2.5090267658233643
1413393213395760500,-0.01038999855518341,0.010184098035097122,0.0917334333062172,9.281805038452148,-0.0487702451646328,-2.55814790725708
1413393213400760500,-0.016663789749145508,0.02204827591776848,0.08680383116006851,9.673175811767578,-0.2043321430683136,-2.770658016204834
1413393213405760500,-0.010407775640487671,0.027620304375886917,0.08541194349527359,9.387337684631348,-0.2776479423046112,-2.647814989089966
1413393213410760500,-0.0013279914855957031,0.01716039702296257,0.08261040598154068,9.428382873535156,-0.30215075612068176,-2.5907042026519775
1413393213415760500,0.01194484531879425,0.02555258944630623,0.08052950352430344,9.444845199584961,-0.19595761597156525,-2.533494472503662
1413393213420760500,0.00847114622592926,0.018575627356767654,0.08336084336042404,9.534964561462402,-0.01631893403828144,-2.7544331550598145
1413393213425760500,0.006383329629898071,0.03742073476314545,0.07432246953248978,9.453010559082031,0.10631529986858368,-2.827986717224121
1413393213430760500,-0.005510956048965454,0.027621155604720116,0.08551866561174393,8.987675666809082,0.17200978100299835,-2.541745662689209
1413393213435760500,-0.006903648376464844,0.012276988476514816,0.09801455587148666,9.330842018127441,-0.024342773482203484,-2.6235744953155518
1413393213440760500,-0.011775344610214233,0.020654983818531036,0.09517102688550949,9.754947662353516,-0.1717444360256195,-2.754385232925415
1413393213445760500,-0.009722545742988586,0.027608536183834076,0.0917012169957161,9.289412498474121,-0.27762946486473083,-2.664088726043701
1413393213450760500,0.003532305359840393,0.012947514653205872,0.09449654072523117,9.159102439880371,-0.31838834285736084,-2.5578527450561523
1413393213455760500,0.008455738425254822,0.01717209443449974,0.08194289356470108,9.428698539733887,-0.14694634079933167,-2.6153242588043213
1413393213460760500,0.009875282645225525,0.01927456632256508,0.08337347954511642,9.592141151428223,0.04082467779517174,-2.868933916091919
1413393213465760500,0.0008183866739273071,0.033945657312870026,0.07570067793130875,9.591843605041504,0.08994160592556,-2.705435276031494
1413393213470760500,-0.005472809076309204,0.03603513538837433,0.07433190196752548,9.395867347717285,0.17182031273841858,-2.680919647216797
1413393213475760500,-0.01038728654384613,0.03252509981393814,0.08480187505483627,9.10195255279541,0.147529736161232,-2.4517664909362793
1413393213480760500,-0.014569446444511414,0.019954916089773178,0.09308438748121262,9.705967903137207,-0.1716998964548111,-2.778886318206787
1413393213485760500,-0.009005233645439148,0.0415915809571743,0.08328510075807571,9.623640060424805,-0.35950201749801636,-2.6477627754211426
1413393213490760500,0.0014466643333435059,0.02063152939081192,0.08541905134916306,9.175239562988281,-0.334672749042511,-2.525144577026367
1413393213495760500,0.009845629334449768,0.017163876444101334,0.08056805282831192,9.387938499450684,-0.1061171367764473,-2.770625352859497
1413393213500760500,0.009162873029708862,0.01578359864652157,0.07918406277894974,9.330888748168945,-0.007940967567265034,-2.59086537361145
1413393213505760500,-0.0005700439214706421,0.023469869047403336,0.07571130245923996,9.64911937713623,0.10622512549161911,-2.901726007461548
1413393213510760500,-0.005470976233482361,0.040227022022008896,0.0736367329955101,9.395821571350098,0.19635643064975739,-2.6482017040252686
1413393213515760500,-0.011776328086853027,0.024145837873220444,0.08269717544317245,9.248961448669434,0.09014451503753662,-2.680847406387329
1413393213520760500,-0.01387813687324524,0.01995585858821869,0.08892612904310226,9.387674331665039,-0.09787636250257492,-2.6153337955474854
1413393213525760500,-0.011821210384368896,0.02552015706896782,0.09445437043905258,9.681144714355469,-0.416820228099823,-2.8684184551239014
1413393213530760500,-0.004837945103645325,0.03877665847539902,0.08401035517454147,9.18294906616211,-0.391834557056427,-2.500490427017212
1413393213535760500,0.012613192200660706,0.0003944225609302521,0.09660644084215164,9.192194938659668,-0.2122398167848587,-2.5907063484191895
1413393213540760500,0.01544119417667389,0.02485780417919159,0.08475323766469955,9.469613075256348,-0.03262457996606827,-2.6644160747528076
1413393213545760500,0.002199798822402954,0.01788901537656784,0.08061536401510239,9.355432510375977,0.18001537024974823,-2.664640426635742
1413393213550760500,-0.008928090333938599,0.03044651448726654,0.07222745567560196,9.746849060058594,0.12252164632081985,-2.98345685005188
1413393213555760500,-0.011775508522987366,0.03252718597650528,0.07989642769098282,9.2406587600708,0.06569221615791321,-2.5499267578125
1413393213560760500,-0.013872921466827393,0.026236416772007942,0.08894123882055283,9.4611234664917,-0.032621514052152634,-2.7870538234710693
1413393213565760500,-0.013184815645217896,0.02972840890288353,0.08679809421300888,9.452609062194824,-0.2286282628774643,-2.549802780151367
1413393213570760500,-0.0076304227113723755,0.031105220317840576,0.08190227299928665,9.534078598022461,-0.43297961354255676,-2.7784664630889893
1413393213575760500,0.011911377310752869,0.02691054344177246,0.0896194651722908,9.044655799865723,-0.3019348382949829,-2.4351541996002197
1413393213580760500,0.02033059298992157,0.008805761113762856,0.08895362168550491,9.49448299407959,0.02453392930328846,-2.779021978378296
1413393213585760500,0.008475422859191895,0.029752196744084358,0.08198512345552444,9.445069313049316,0.09001754224300385,-2.6481494903564453
1413393213590760500,-0.0026706308126449585,0.018577203154563904,0.0771082416176796,9.600152969360352,0.09807781875133514,-2.958935260772705
1413393213595760500,-0.008273229002952576,0.02904985286295414,0.08549647778272629,9.355192184448242,0.18817713856697083,-2.6646034717559814
1413393213600760500,-0.017352640628814697,0.01646837778389454,0.0875542089343071,9.469436645507812,0.008262674324214458,-2.8117074966430664
1413393213605760500,-0.016668841242790222,0.036705318838357925,0.09099630266427994,9.63219165802002,-0.16348987817764282,-2.7542097568511963
1413393213610760500,-0.00902518630027771,0.029003817588090897,0.08890537172555923,9.256673812866211,-0.3184193968772888,-2.6150195598602295
1413393213615760500,0.0028410106897354126,0.02900630235671997,0.08752245455980301,9.14252758026123,-0.28565725684165955,-2.516922950744629
1413393213620760500,0.012632295489311218,0.005998607724905014,0.08331721276044846,9.363469123840332,-0.2694273889064789,-2.533554792404175
1413393213625760500,0.012697383761405945,0.026266830042004585,0.0784890428185463,9.812508583068848,0.08155137300491333,-2.877187967300415
1413393213630760500,0.0007876157760620117,0.025548234581947327,0.07712360471487045,9.208216667175293,0.11469844728708267,-2.631760597229004
1413393213635760500,-0.00826495885848999,0.015087278559803963,0.07781460136175156,9.412433624267578,0.122745580971241,-2.803645133972168
1413393213640760500,-0.01038697361946106,0.029031533747911453,0.0805632695555687,9.273234367370605,-0.08142074942588806,-2.525308609008789
1413393213645760500,-0.014560416340827942,0.02693396992981434,0.08754397183656693,9.608033180236816,-0.03272731229662895,-2.9423696994781494
1413393213650760500,-0.012497887015342712,0.029716767370700836,0.08261265605688095,9.289224624633789,-0.3101884126663208,-2.500641345977783
1413393213655760500,-0.002741888165473938,0.030405499041080475,0.08681655675172806,9.338425636291504,-0.2858335077762604,-2.6967904567718506
1413393213660760500,0.01053127646446228,0.02413768693804741,0.08612171560525894,9.142723083496094,-0.25292110443115234,-2.394375801086426
1413393213665760500,0.011267781257629395,0.015082737430930138,0.08335980027914047,9.673810958862305,-0.0327918566763401,-2.926109552383423
1413393213670760500,0.006376221776008606,0.032544009387493134,0.0819798931479454,9.355185508728027,0.07378856092691422,-2.517230272293091
1413393213675760500,-0.0026922225952148438,0.013685941696166992,0.07989848405122757,9.387988090515137,0.06553041189908981,-2.7790417671203613
1413393213680760500,-0.008969828486442566,0.03323487937450409,0.07918369024991989,9.461097717285156,0.04099889472126961,-2.6644701957702637
1413393213685760500,-0.011085271835327148,0.015060005709528923,0.08545192331075668,9.502042770385742,-0.07350270450115204,-3.032209634780884
1413393213690760500,-0.008290901780128479,0.038111612200737,0.08958760648965836,9.607686996459961,-0.17977726459503174,-2.6070609092712402
1413393213695760500,-0.006915584206581116,0.026226896792650223,0.08402106910943985,9.444587707519531,-0.2613736093044281,-2.7132551670074463
1413393213700760500,0.004948809742927551,0.034610189497470856,0.08472070842981339,9.297636032104492,-0.23671993613243103,-2.508817195892334
1413393213705760500,0.010547906160354614,0.006700750440359116,0.08893857151269913,9.388185501098633,-0.07341800630092621,-2.6644673347473145
1413393213710760500,0.008481219410896301,0.030452637001872063,0.08896221965551376,9.543107986450195,0.13078489899635315,-2.705458641052246
1413393213715760500,-0.00479888916015625,0.014380740001797676,0.08547583967447281,9.216537475585938,0.041199468076229095,-2.509096384048462
1413393213720760500,-0.008273065090179443,0.02415037713944912,0.08196567744016647,9.599981307983398,-0.024526555091142654,-2.885205030441284
1413393213725760500,-0.005511164665222168,0.023442141711711884,0.0875360295176506,9.240711212158203,-0.11410753428936005,-2.5089352130889893
1413393213730760500,-0.0075929611921310425,0.020650720223784447,0.08545564860105515,9.461234092712402,-0.04896994307637215,-2.8687853813171387
1413393213735760500,-0.004812151193618774,0.02623152732849121,0.07916107028722763,9.26507568359375,-0.15498098731040955,-2.5743134021759033
1413393213740760500,-0.0006213337182998657,0.02693372219800949,0.07705383747816086,9.558989524841309,-0.21243111789226532,-2.819580078125
1413393213745760500,0.011231780052185059,0.029717449098825455,0.0826781615614891,9.110135078430176,-0.06504456698894501,-2.525221109390259
1413393213750760500,0.006387367844581604,0.016485808417201042,0.08756602555513382,9.55140495300293,0.08990166336297989,-2.8199687004089355
1413393213755760500,-0.0020006299018859863,0.026957279071211815,0.0854894295334816,9.257298469543457,0.14744146168231964,-2.492750406265259
1413393213760760500,-0.010378003120422363,0.01577072963118553,0.08055273443460464,9.526515007019043,-0.12249667197465897,-2.7707290649414062
1413393213765760500,-0.005510315299034119,0.031122731044888496,0.08332974463701248,9.30578327178955,-0.18766456842422485,-2.5007033348083496
1413393213770760500,-0.004813447594642639,0.01925089582800865,0.08333983272314072,9.444830894470215,-0.1796794980764389,-2.7705812454223633
1413393213775760500,-0.004792302846908569,0.03113606572151184,0.0777611956000328,9.469173431396484,-0.08975037932395935,-2.615304946899414
1413393213780760500,-0.002017304301261902,0.01995297521352768,0.07706432789564133,9.346841812133789,-0.17139025032520294,-2.647956609725952
1413393213785760500,0.007743805646896362,0.03391013294458389,0.07636698335409164,9.338541030883789,-0.1877601444721222,-2.664170742034912
1413393213790760500,0.004965856671333313,0.018558582291007042,0.08479132503271103,9.241002082824707,0.07373832911252975,-2.7544009685516357
1413393213795760500,-0.0047714561223983765,0.02766200341284275,0.08758727461099625,9.485915184020996,0.21258941292762756,-2.7301037311553955
1413393213800760500,-0.006905391812324524,0.02483968436717987,0.0882260873913765,9.33863353729248,-0.13054095208644867,-2.574371099472046
1413393213805760500,-0.012467637658119202,0.023449059575796127,0.08331520110368729,9.738496780395508,-0.1962025761604309,-2.7788660526275635
1413393213810760500,-0.004117071628570557,0.02134712040424347,0.08822650462388992,9.32237434387207,-0.1468804031610489,-2.5907158851623535
1413393213815760500,0.0007675141096115112,0.022744737565517426,0.08821112662553787,9.542798042297363,-0.2042955607175827,-2.7623887062072754
1413393213820760500,0.004271999001502991,0.026249397546052933,0.07983199506998062,9.477399826049805,-0.18780307471752167,-2.558042526245117
1413393213825760500,0.004281863570213318,0.02834171988070011,0.07776569575071335,9.616297721862793,-0.09809490293264389,-2.8115386962890625
1413393213830760500,0.004275664687156677,0.03462877869606018,0.07849732786417007,9.26527214050293,0.05749627947807312,-2.525357484817505
1413393213835760500,-0.00757288932800293,0.018583733588457108,0.08129533380270004,9.355323791503906,0.11467763781547546,-2.5828099250793457
1413393213840760500,-0.004093855619430542,0.029043860733509064,0.08684822171926498,9.461228370666504,0.00828698929399252,-2.639922618865967
1413393213845760500,-0.00830194354057312,0.02274050936102867,0.08264672011137009,9.371267318725586,-0.1550871580839157,-2.6969940662384033
1413393213850760500,-0.006207704544067383,0.03181717172265053,0.08683139830827713,9.452840805053711,-0.13067705929279327,-2.737844228744507
1413393213855760500,-0.003428906202316284,0.01645106077194214,0.08333326131105423,9.322327613830566,-0.25310611724853516,-2.672402858734131
1413393213860760500,-0.0013115108013153076,0.01856106147170067,0.07496162503957748,9.608104705810547,-0.20428460836410522,-2.860532283782959
1413393213865760500,0.008457884192466736,0.024150468409061432,0.07638213783502579,9.379638671875,-0.0815582349896431,-2.6807045936584473
1413393213870760500,0.011262059211730957,0.024862458929419518,0.08200529962778091,9.339052200317383,0.14728762209415436,-2.680903673171997
1413393213875760500,-0.0012891441583633423,0.021380914375185966,0.08200211077928543,9.371707916259766,0.16369467973709106,-2.599191904067993
1413393213880760500,-0.011067599058151245,0.015778250992298126,0.08616910129785538,9.42873764038086,0.05734272673726082,-2.7463486194610596
1413393213885760500,-0.011798471212387085,0.020643122494220734,0.0917096808552742,9.305953979492188,-0.17137381434440613,-2.5825178623199463
1413393213890760500,-0.0076174139976501465,0.015052895992994308,0.09241247922182083,9.2979154586792,-0.18775445222854614,-2.664268970489502
1413393213895760500,-0.0020377039909362793,0.022735487669706345,0.08680041879415512,9.436457633972168,-0.3185558617115021,-2.672353506088257
1413393213900760500,0.0035617053508758545,0.013675667345523834,0.08749201148748398,9.551010131835938,-0.26960161328315735,-2.639838218688965
1413393213905760500,0.011955514550209045,0.022759079933166504,0.07423827797174454,9.779473304748535,-0.2616175711154938,-2.7706315517425537
1413393213910760500,0.011964425444602966,0.03394652158021927,0.07433640211820602,9.298107147216797,0.18826153874397278,-2.558183193206787
1413393213915760500,0.004992470145225525,0.017882052809000015,0.0813092514872551,9.428879737854004,0.16354544460773468,-2.8363454341888428
1413393213920760500,-0.014547526836395264,0.022770341485738754,0.08547144383192062,9.453171730041504,0.10642971843481064,-2.623722553253174
1413393213925760500,-0.016677483916282654,0.02274247258901596,0.0931052640080452,9.34675407409668,-0.13053584098815918,-2.566213369369507
1413393213930760500,-0.01739862561225891,0.02760334312915802,0.0882144495844841,9.248485565185547,-0.28574201464653015,-2.6722452640533447
1413393213935760500,-0.0027553439140319824,0.015738610178232193,0.08888805657625198,9.338470458984375,-0.44103893637657166,-2.6967687606811523
1413393213940760500,0.011918306350708008,0.010175086557865143,0.08959420770406723,9.387853622436523,-0.3185389041900635,-2.623380184173584
1413393213945760500,0.01895427703857422,0.012998770922422409,0.0791565403342247,9.76368236541748,-0.07369459420442581,-2.81172251701355
1413393213950760500,0.013386204838752747,0.03325912356376648,0.07016684859991074,9.494071006774902,0.2779797911643982,-2.7955222129821777
1413393213955760500,-0.0006004273891448975,0.009530837647616863,0.07998599857091904,9.10254192352295,0.45003440976142883,-2.5011303424835205
1413393213960760500,-0.01798243820667267,0.002566026523709297,0.0813019797205925,9.690449714660645,0.2699744999408722,-2.5504908561706543
1413393213965760500,-0.030574053525924683,0.011613409966230392,0.07500597089529037,9.518509864807129,0.12289030104875565,-2.5748116970062256
1413393213970760500,-0.03480413556098938,0.00250200554728508,0.0756213441491127,9.509845733642578,-0.28570878505706787,-2.582749605178833
1413393213975760500,-0.021560892462730408,-0.006582062691450119,0.06370692700147629,9.493236541748047,-0.6205106377601624,-2.5582101345062256
1413393213980760500,0.026582375168800354,0.012986712157726288,0.062251053750514984,9.721327781677246,-0.9962776899337769,-2.5583081245422363
1413393213985760500,0.0733034610748291,0.012982625514268875,0.06583517044782639,9.633090019226074,-0.6046285629272461,-2.754054546356201
1413393213990760500,0.08661498129367828,0.036738306283950806,0.08273901790380478,9.388548851013184,0.33511608839035034,-2.8280718326568604
1413393213995760500,0.036235809326171875,0.04175339266657829,0.10668642073869705,9.257791519165039,1.5769779682159424,-2.968653678894043
1413393214000760500,-0.052383244037628174,0.05018327012658119,0.1353323757648468,9.339765548706055,1.7729774713516235,-3.001619577407837
1413393214005760500,-0.12912577390670776,0.04846145957708359,0.13091981410980225,8.6436767578125,0.4666510224342346,-2.4273011684417725
1413393214010760500,-0.12208464741706848,0.019201204180717468,0.12092532962560654,8.674647331237793,-1.3148995637893677,-2.3377816677093506
1413393214015760500,-0.03468841314315796,-0.00376293808221817,0.10726236552000046,9.023807525634766,-2.5046169757843018,-2.4563894271850586
1413393214020760500,0.06007327139377594,-0.02688412368297577,0.07129300385713577,9.550026893615723,-1.6918132305145264,-2.886084794998169
1413393214025760500,0.12364785373210907,0.010259177535772324,0.04427606612443924,10.074793815612793,-0.06579699367284775,-2.942227840423584
1413393214030760500,0.0844278484582901,0.04663870483636856,0.03194639831781387,9.216455459594727,1.242551565170288,-2.58278751373291
1413393214035760500,0.0013212710618972778,0.038398146629333496,0.042532674968242645,9.405652046203613,1.820995807647705,-2.7386555671691895
1413393214040760500,-0.06334097683429718,0.052204690873622894,0.08149585872888565,9.534796714782715,1.0791288614273071,-2.7882423400878906
1413393214045760500,-0.09340912103652954,0.04995045065879822,0.10221356898546219,9.541773796081543,0.1799626499414444,-2.9017345905303955
1413393214050760500,-0.0746656060218811,0.053419727832078934,0.1132369264960289,9.68765926361084,-0.6862384676933289,-2.8596770763397217
1413393214055760500,-0.029227107763290405,0.06813814491033554,0.10409491509199142,9.254312515258789,-1.412628173828125,-2.3787779808044434
1413393214060760500,0.02588959038257599,0.013701118528842926,0.09295284003019333,9.10116958618164,-1.192042589187622,-2.2320008277893066
1413393214065760500,0.0719413161277771,0.014401514083147049,0.08398918062448502,9.445563316345215,-0.36756792664527893,-2.4517455101013184
1413393214070760500,0.06851799786090851,0.003981549292802811,0.08485081046819687,9.57675838470459,0.5068027973175049,-2.8120920658111572
1413393214075760500,0.029475852847099304,0.004021443426609039,0.0849328264594078,9.682416915893555,0.931745707988739,-3.0251898765563965
1413393214080760500,-0.015909209847450256,0.02768871746957302,0.07785574346780777,9.510443687438965,0.37617719173431396,-2.689418315887451
1413393214085760500,-0.05222789943218231,0.0011265333741903305,0.07289693504571915,9.330602645874023,0.016845887526869774,-2.41115140914917
1413393214090760500,-0.034820690751075745,0.004580682143568993,0.08965980261564255,9.118322372436523,-0.024128034710884094,-2.558135986328125
1413393214095760500,-0.029254212975502014,-0.005197566002607346,0.09657440334558487,9.436712265014648,-0.26951465010643005,-2.7788267135620117
1413393214100760500,-0.01739346981048584,0.009464479982852936,0.09516211599111557,9.754953384399414,-0.3514918386936188,-2.9993467330932617
1413393214105760500,-0.002035573124885559,0.04158567637205124,0.07000835984945297,9.451961517333984,-0.5552423596382141,-2.5332767963409424
1413393214110760500,0.016114339232444763,0.03460247814655304,0.05816217511892319,9.158445358276367,-0.5876227617263794,-2.3780834674835205
1413393214115760500,0.032146453857421875,0.026174984872341156,0.07224645465612411,8.66919994354248,-0.10581018030643463,-2.541374444961548
1413393214120760500,0.03288745880126953,-0.00026927702128887177,0.09525861591100693,9.40491008758545,0.1389283388853073,-2.885345935821533
1413393214125760500,0.015525057911872864,0.04439912363886833,0.0890013799071312,9.983663558959961,0.342928409576416,-3.1632797718048096
1413393214130760500,-0.007608279585838318,0.06460828334093094,0.0799516811966896,8.978967666625977,0.2863946259021759,-2.5744550228118896
1413393214135760500,-0.033406808972358704,0.022741686552762985,0.06030622869729996,9.313610076904297,-0.23658369481563568,-2.5907163619995117
1413393214140760500,-0.03830559551715851,0.029003286734223366,0.07432173937559128,9.044339179992676,0.008592340163886547,-2.607085943222046
1413393214145760500,-0.023671209812164307,0.008068937808275223,0.09936738759279251,9.518248558044434,-0.245131716132164,-2.8441507816314697
1413393214150760500,-0.011129036545753479,0.04296768084168434,0.0986347422003746,9.966534614562988,-0.4824348986148834,-3.031620740890503
1413393214155760500,0.009105205535888672,0.038068946450948715,0.08819713443517685,9.09322738647461,-0.48983123898506165,-2.4759278297424316
1413393214160760500,0.025858581066131592,0.0066856034100055695,0.07907471805810928,9.558999061584473,-0.645349383354187,-2.6560897827148438
1413393214165760500,0.03568468987941742,0.026262937113642693,0.07150671631097794,9.494235038757324,-0.024485301226377487,-2.721623182296753
1413393214170760500,0.03357693552970886,0.013011575676500797,0.10718721896409988,9.208929061889648,0.4742372930049896,-2.6566195487976074
1413393214175760500,0.013418033719062805,0.026952732354402542,0.12246645241975784,9.992268562316895,0.41644608974456787,-3.0899481773376465
1413393214180760500,-0.01598478853702545,0.03949711471796036,0.10435917228460312,9.077468872070312,0.27826622128486633,-2.4763734340667725
1413393214185760500,-0.025037497282028198,0.015774615108966827,0.09097466617822647,9.452781677246094,-0.2040090560913086,-2.435499906539917
1413393214190760500,-0.02850763499736786,0.025549933314323425,0.0693511888384819,9.583003044128418,-0.22043202817440033,-2.5744760036468506
1413393214195760500,-0.01737433671951294,0.0087664183229208,0.08131543546915054,8.906074523925781,0.0332011841237545,-2.4353699684143066
1413393214200760500,0.000769197940826416,0.013671118766069412,0.09937851876020432,9.575718879699707,-0.13896901905536652,-2.787022352218628
1413393214205760500,0.0021748244762420654,0.030436545610427856,0.0749209001660347,9.370964050292969,-0.31015217304229736,-2.410797119140625
1413393214210760500,0.011935845017433167,0.017163049429655075,0.06588342040777206,9.387677192687988,-0.2857503294944763,-2.6642515659332275
1413393214215760500,0.0196341872215271,0.019973699003458023,0.04983004182577133,9.387622833251953,-0.2529848515987396,-2.5498270988464355
1413393214220760500,0.01756875216960907,0.0325678214430809,0.06108849495649338,9.404280662536621,0.23724929988384247,-2.640035390853882
1413393214225760500,0.00919121503829956,0.029092106968164444,0.096046082675457,9.445226669311523,0.6784614324569702,-2.894132375717163
1413393214230760500,-0.0173310786485672,0.03882543742656708,0.09736713021993637,9.510194778442383,0.3188091516494751,-2.803786277770996
1413393214235760500,-0.03970107436180115,0.04297211021184921,0.07356034964323044,9.501084327697754,-0.23680828511714935,-2.843949317932129
1413393214240760500,-0.039715200662612915,0.030387789011001587,0.06447460502386093,9.084601402282715,-0.4324468970298767,-2.5087058544158936
1413393214245760500,-0.025059446692466736,0.02063470333814621,0.059550486505031586,9.517334938049316,-0.5797766447067261,-2.7131831645965576
1413393214250760500,0.00145624577999115,0.031809255480766296,0.07496129721403122,9.330244064331055,-0.2612815499305725,-2.680471181869507
1413393214255760500,0.026543721556663513,0.015035707503557205,0.11406158655881882,9.126843452453613,-0.19602282345294952,-2.6640772819519043
1413393214260760500,0.01958632469177246,0.022040043026208878,0.09728286415338516,9.575705528259277,-0.25345030426979065,-2.8930280208587646
1413393214265760500,0.00566515326499939,0.02624386176466942,0.06867533177137375,9.501813888549805,-0.23686757683753967,-2.6888036727905273
1413393214270760500,0.009152844548225403,0.005997182801365852,0.07919328659772873,9.216654777526855,-0.040616732090711594,-2.6399033069610596
1413393214275760500,-0.004087045788764954,0.019967317581176758,0.06804478913545609,9.273491859436035,0.0656294971704483,-2.6972060203552246
1413393214280760500,-0.009668335318565369,0.030433587729930878,0.09664162248373032,9.534735679626465,0.14706631004810333,-2.8771679401397705
1413393214285760500,-0.011109709739685059,0.02762044593691826,0.12662047147750854,9.3796968460083,0.07354454696178436,-2.705291748046875
1413393214290760500,-0.02019178867340088,0.03529347851872444,0.11052503436803818,9.379096984863281,-0.21235278248786926,-2.5823774337768555
1413393214295760500,-0.022959649562835693,0.028322607278823853,0.07281666249036789,9.37867259979248,-0.43268346786499023,-2.5088539123535156
1413393214300760500,-0.002031281590461731,0.02203623577952385,0.06794510036706924,9.272881507873535,-0.46531039476394653,-2.5088462829589844
1413393214305760500,0.013337865471839905,0.014374878257513046,0.06799475103616714,9.469511032104492,-0.1960120052099228,-2.819634199142456
1413393214310760500,0.02521994709968567,0.027647070586681366,0.09313582628965378,9.698352813720703,0.04064411297440529,-2.9423999786376953
1413393214315760500,0.026585683226585388,0.047881558537483215,0.11344873160123825,9.281765937805176,0.457695871591568,-2.8528335094451904
1413393214320760500,0.0035595595836639404,0.03183239325881004,0.09600573033094406,9.028721809387207,0.3273724317550659,-2.435479164123535
1413393214325760500,-0.017297372221946716,0.006032479926943779,0.0694165900349617,9.698220252990723,0.07366830855607986,-2.7139010429382324
1413393214330760500,-0.022198781371116638,0.02766059897840023,0.05893933027982712,9.591475486755371,-0.016167791560292244,-2.6808972358703613
1413393214335760500,-0.02782563865184784,0.018551763147115707,0.06873377412557602,9.126256942749023,0.0004375830467324704,-2.5826408863067627
1413393214340760500,-0.018059447407722473,0.011577550321817398,0.09449579566717148,9.600046157836914,-0.1144028827548027,-2.7871334552764893
1413393214345760500,-0.0006349086761474609,0.04508276656270027,0.10771697014570236,9.705662727355957,-0.20449095964431763,-2.6887102127075195
1413393214350760500,0.010525807738304138,0.04368126764893532,0.09100554138422012,9.142470359802246,-0.2202441692352295,-2.369737148284912
1413393214355760500,0.012669980525970459,0.00881357491016388,0.05890776962041855,9.567514419555664,-0.1714387983083725,-2.6481423377990723
1413393214360760500,0.004315882921218872,0.01719501242041588,0.040778033435344696,9.6161527633667,-0.14691545069217682,-2.7216806411743164
1413393214365760500,0.0014971345663070679,0.024853110313415527,0.056171171367168427,9.306004524230957,0.0002757802722044289,-2.746159076690674
1413393214370760500,-0.005485936999320984,0.010889414697885513,0.08549124747514725,9.355355262756348,0.1308906227350235,-2.860846996307373
1413393214375760500,-0.002708643674850464,0.0485694594681263,0.10565204173326492,9.828254699707031,-0.09025586396455765,-2.884963274002075
1413393214380760500,-0.0013528317213058472,0.04783569276332855,0.0994274690747261,8.954611778259277,-0.08137913048267365,-2.4759769439697266
1413393214385760500,-0.005518913269042969,0.011559244245290756,0.09176751226186752,8.946988105773926,-0.024072032421827316,-2.418972969055176
1413393214390760500,-0.016653642058372498,0.006000306457281113,0.06446029990911484,9.567028999328613,-0.3184713125228882,-2.639941930770874
1413393214395760500,-0.013879165053367615,0.01506131887435913,0.06658411771059036,9.50992202758789,-0.2776750326156616,-2.86863374710083
1413393214400760500,-0.0027378052473068237,0.025512635707855225,0.08614901453256607,9.19163703918457,-0.17138038575649261,-2.713200330734253
1413393214405760500,0.009804338216781616,0.024126458913087845,0.11051636189222336,9.746975898742676,-0.3271765112876892,-2.9664881229400635
1413393214410760500,0.01889556646347046,0.04717326536774635,0.1042829379439354,9.330521583557129,-0.07350336015224457,-2.5823915004730225
1413393214415760500,0.021712645888328552,0.031837768852710724,0.09248734265565872,9.208467483520508,0.21273355185985565,-2.566352367401123
1413393214420760500,0.007072776556015015,0.012301962822675705,0.08340714126825333,9.200438499450684,0.1556541919708252,-2.484614133834839
1413393214425760500,-0.01590721309185028,0.009508214890956879,0.06592173129320145,9.763341903686523,-0.00817447155714035,-2.885455369949341
1413393214430760500,-0.02080570161342621,0.030437814071774483,0.07709752768278122,9.697741508483887,0.06535415351390839,-2.9425413608551025
1413393214435760500,-0.020177707076072693,0.042273156344890594,0.09592030197381973,9.215862274169922,-0.04879879578948021,-2.5906214714050293
1413393214440760500,-0.005547374486923218,0.029005706310272217,0.10284937173128128,9.444581031799316,-0.3186657428741455,-2.7621383666992188
1413393214445760500,0.009828135371208191,0.03251716494560242,0.09168542176485062,9.469160079956055,-0.2695925533771515,-2.6232895851135254
1413393214450760500,0.01473739743232727,0.03881612792611122,0.07990124076604843,9.208162307739258,0.0820455402135849,-2.4926061630249023
1413393214455760500,0.0042788684368133545,0.001812860369682312,0.06734678894281387,9.1513032913208,0.01669890806078911,-2.6563050746917725
1413393214460760500,-0.004753381013870239,0.0018347762525081635,0.05684109777212143,9.6573486328125,-0.07344202697277069,-2.811828374862671
1413393214465760500,-0.011748671531677246,0.03462492674589157,0.0701121911406517,9.624201774597168,-0.008158116601407528,-2.8933496475219727
1413393214470760500,-0.006917551159858704,0.03180603310465813,0.09804149717092514,9.069260597229004,0.04119844734668732,-2.4843804836273193
1413393214475760500,-0.009690210223197937,0.02274896204471588,0.10148041695356369,9.55106258392334,-0.057229042053222656,-2.721677780151367
1413393214480760500,-0.0006135106086730957,0.03671891987323761,0.09309903532266617,9.542675018310547,-0.08169323951005936,-2.6071088314056396
1413393214485760500,-0.0020231157541275024,0.030415434390306473,0.08198464661836624,8.987528800964355,-0.04036300256848335,-2.3616507053375244
1413393214490760500,-0.004784509539604187,0.003215748816728592,0.07077651470899582,9.55118465423584,-0.15513023734092712,-2.7217726707458496
1413393214495760500,-0.010373413562774658,0.012980390340089798,0.06308171898126602,9.624220848083496,-0.27772030234336853,-2.77066969871521
1413393214500760500,-0.004812851548194885,0.034605566412210464,0.06727968901395798,9.648507118225098,-0.302327960729599,-2.958340883255005
1413393214505760500,0.006327331066131592,0.03318597003817558,0.09383819252252579,9.09370231628418,-0.11417638510465622,-2.6395812034606934
1413393214510760500,0.011226236820220947,0.030422285199165344,0.10147202759981155,9.542912483215332,-0.15537308156490326,-2.7541685104370117
1413393214515760500,0.014738768339157104,0.038813717663288116,0.09104817360639572,9.444985389709473,0.04905646666884422,-2.6970925331115723
1413393214520760500,0.005666464567184448,0.022756202146410942,0.0806097760796547,9.126667022705078,0.09026995301246643,-2.4926764965057373
1413393214525760500,-0.01803971827030182,0.015077639371156693,0.06871167570352554,9.461129188537598,-0.05702700838446617,-2.7871451377868652
1413393214530760500,-0.020154282450675964,0.00878206267952919,0.07706431299448013,9.412153244018555,-0.16323986649513245,-2.746181011199951
1413393214535760500,-0.013880252838134766,0.03530535846948624,0.09100539237260818,9.632291793823242,-0.15535102784633636,-2.8441081047058105
1413393214540760500,-0.007640331983566284,0.028290312737226486,0.10219008475542068,9.077197074890137,-0.2285318821668625,-2.582271099090576
1413393214545760500,0.011899009346961975,0.024128947407007217,0.10563167184591293,9.526468276977539,-0.3432789742946625,-2.737670421600342
1413393214550760500,0.023095905780792236,0.03461829572916031,0.09870290011167526,9.428744316101074,-0.05720209702849388,-2.6561033725738525
1413393214555760500,0.016132816672325134,0.024856381118297577,0.08480093628168106,9.151287078857422,0.1311078518629074,-2.4845073223114014
1413393214560760500,-0.0012821853160858154,0.012302273884415627,0.07152371853590012,9.445158958435059,0.06555414199829102,-2.7300312519073486
1413393214565760500,-0.011055052280426025,0.010896790772676468,0.08057502657175064,9.567543029785156,0.008235585875809193,-2.803618907928467
1413393214570760500,-0.016662850975990295,0.042992424219846725,0.08613576740026474,9.49341106414795,-0.06530764698982239,-2.680659055709839
1413393214575760500,-0.017383694648742676,0.019936740398406982,0.09172887355089188,9.199810981750488,-0.12229470908641815,-2.5906870365142822
1413393214580760500,0.0014724582433700562,0.033919624984264374,0.09307090193033218,9.722128868103027,-0.22895720601081848,-2.713329792022705
1413393214585760500,0.004261910915374756,0.042292676866054535,0.07846402376890182,9.387422561645508,-0.12243343889713287,-2.647848606109619
1413393214590760500,0.002872943878173828,0.016458861529827118,0.06664860993623734,8.971370697021484,-0.015839658677577972,-2.451691150665283
1413393214595760500,-0.0026674121618270874,0.0060251932591199875,0.06590352207422256,9.608396530151367,-0.05706855282187462,-2.664651393890381
1413393214600760500,-0.006864413619041443,0.012997660785913467,0.0686994269490242,9.551098823547363,-0.05706227198243141,-2.6890957355499268
1413393214605760500,-0.008307069540023804,0.03041420318186283,0.08542787283658981,9.542588233947754,-0.19612416625022888,-2.884902000427246
1413393214610760500,-0.006208851933479309,0.02064470946788788,0.08405745774507523,9.281573295593262,-0.09784942120313644,-2.6724929809570312
1413393214615760500,0.000783875584602356,0.0353192463517189,0.09239319711923599,9.689607620239258,-0.13089275360107422,-2.7297468185424805
1413393214620760500,0.007057055830955505,0.035316962748765945,0.09382817894220352,9.444927215576172,2.7526915800990537e-05,-2.7052419185638428
1413393214625760500,0.0035586506128311157,0.03390844166278839,0.08407614380121231,9.118220329284668,-0.024178197607398033,-2.500708818435669
1413393214630760500,-0.004799365997314453,0.013676978647708893,0.07497648149728775,9.36328411102295,-0.13051612675189972,-2.648049831390381
1413393214635760500,-0.0068946778774261475,0.003904275596141815,0.0861123576760292,9.575664520263672,-0.19607187807559967,-2.713554620742798
1413393214640760500,-0.005511566996574402,0.03530609607696533,0.08122429996728897,9.656696319580078,-0.26972952485084534,-2.8358261585235596
1413393214645760500,-0.002044469118118286,0.02690013498067856,0.08685309439897537,9.085460662841797,-0.1794910430908203,-2.6559207439422607
1413393214650760500,0.0063538700342178345,0.018556687980890274,0.09033302217721939,9.477750778198242,-0.08989706635475159,-2.860556125640869
1413393214655760500,0.011262491345405579,0.031842783093452454,0.09172097593545914,9.591974258422852,-3.285706043243408e-05,-2.6481058597564697
1413393214660760500,0.004954993724822998,0.03530354052782059,0.08198783546686172,9.08553409576416,-0.015983572229743004,-2.4843451976776123
1413393214665760500,-0.0020102262496948242,0.01367536373436451,0.07920653373003006,9.118510246276855,0.033074356615543365,-2.5172271728515625
1413393214670760500,-0.009654507040977478,0.012302514165639877,0.07775988429784775,9.583805084228516,-0.04072348028421402,-2.5992069244384766
1413393214675760500,-0.010389581322669983,0.022047337144613266,0.08890030533075333,9.624293327331543,-0.20432433485984802,-2.7624471187591553
1413393214680760500,-0.01248103380203247,0.027632728219032288,0.08404754847288132,9.387545585632324,-0.08972058445215225,-2.6561660766601562
1413393214685760500,-0.003410518169403076,0.03461140766739845,0.08753714710474014,9.518204689025879,-0.08172522485256195,-2.8196284770965576
1413393214690760500,0.008434176445007324,0.03670237958431244,0.09590355306863785,9.346823692321777,-0.1224714070558548,-2.6151371002197266
1413393214695760500,0.012633606791496277,0.032525643706321716,0.09103544801473618,9.273515701293945,-0.0406322106719017,-2.5089282989501953
1413393214700760500,0.0014894753694534302,0.022066200152039528,0.07781102508306503,9.257293701171875,0.09020044654607773,-2.574528694152832
1413393214705760500,0.0007886737585067749,0.01787327602505684,0.0819818302989006,9.338971138000488,0.024726470932364464,-2.6481289863586426
1413393214710760500,-0.00828726589679718,0.010882742702960968,0.08962158113718033,9.591987609863281,-0.10624878108501434,-2.836160659790039
1413393214715760500,-0.013162121176719666,0.02694600448012352,0.08055097609758377,9.542657852172852,-0.0816284790635109,-2.6807897090911865
1413393214720760500,-0.01805397868156433,0.026933176442980766,0.07359357923269272,9.428282737731934,-0.07339099049568176,-2.81970477104187
1413393214725760500,-0.0006227940320968628,0.031126482412219048,0.0882183089852333,9.444727897644043,-0.13881641626358032,-2.623408794403076
1413393214730760500,0.006343543529510498,0.033910173922777176,0.09031388908624649,9.461082458496094,-0.1715807467699051,-2.7296016216278076
1413393214735760500,9.167194366455078e-05,0.024856075644493103,0.07428843528032303,9.314248085021973,-0.04873490706086159,-2.5253732204437256
1413393214740760500,-0.0012902617454528809,0.017183080315589905,0.07428377121686935,9.526646614074707,-0.04891890659928322,-2.6890523433685303
1413393214745760500,0.003557458519935608,0.024836156517267227,0.08054935187101364,9.281489372253418,-0.1958645135164261,-2.574293851852417
1413393214750760500,-0.004811316728591919,0.020645305514335632,0.07707174867391586,9.395820617675781,-0.15512140095233917,-2.8196122646331787
1413393214755760500,-0.01314648985862732,0.022763032466173172,0.07429078966379166,9.583595275878906,-0.016286222264170647,-2.787172555923462
1413393214760760500,0.0007838308811187744,0.03392409905791283,0.09173619002103806,9.469388961791992,0.01637844182550907,-2.7052969932556152
1413393214765760500,0.004242986440658569,0.03320331126451492,0.09731408208608627,9.183551788330078,-0.09783051162958145,-2.54154109954834
1413393214770760500,-0.002029135823249817,0.023433785885572433,0.08963873237371445,9.25709056854248,-0.10602740198373795,-2.6479203701019287
1413393214775760500,-0.004090800881385803,0.015783818438649178,0.08127263933420181,9.387929916381836,0.00021992325491737574,-2.5990960597991943
1413393214780760500,0.004964321851730347,0.01577562466263771,0.09449753910303116,9.47775936126709,-0.11432752758264542,-2.6071925163269043
1413393214785760500,5.702674388885498e-05,0.02063564956188202,0.08683309704065323,9.257034301757812,-0.21224047243595123,-2.656017541885376
1413393214790760500,-0.0047866106033325195,0.016476307064294815,0.07567460089921951,9.534740447998047,-0.08980243653059006,-2.754408597946167
1413393214795760500,-0.0026869922876358032,0.029742171987891197,0.0819740816950798,9.559185981750488,0.03270183131098747,-2.795311212539673
1413393214800760500,0.002875015139579773,0.03532368689775467,0.10219582170248032,9.493959426879883,0.04904806986451149,-2.6399059295654297
1413393214805760500,-0.0006241798400878906,0.03531060367822647,0.08754732459783554,9.322294235229492,-0.04885779321193695,-2.6234097480773926
1413393214810760500,-0.008988335728645325,0.026938514783978462,0.07708332687616348,9.265130043029785,-0.05689411982893944,-2.558043956756592
1413393214815760500,-0.00550118088722229,0.017862118780612946,0.07985685020685196,9.436699867248535,-0.13878296315670013,-2.721601963043213
1413393214820760500,-0.006206825375556946,0.02274598926305771,0.08193287998437881,9.387540817260742,-0.20408886671066284,-2.5988829135894775
1413393214825760500,-0.00897987186908722,0.015771497040987015,0.07427630573511124,9.526490211486816,-0.13065756857395172,-2.8115837574005127
1413393214830760500,-0.007560297846794128,0.029050931334495544,0.07220534235239029,9.575420379638672,0.02458321489393711,-2.7626373767852783
1413393214835760500,0.0007941275835037231,0.02764870598912239,0.08824243396520615,9.542949676513672,0.00819206889718771,-2.7135419845581055
1413393214840760500,0.004264861345291138,0.028334923088550568,0.09173373132944107,9.420485496520996,-0.02444959618151188,-2.713433027267456
1413393214845760500,-0.003391265869140625,0.02694990485906601,0.07568693906068802,9.45301342010498,-0.02436876855790615,-2.680795669555664
1413393214850760500,-0.005499616265296936,0.02066098526120186,0.08476025611162186,9.257190704345703,-0.02420017495751381,-2.5008552074432373
1413393214855760500,0.0035462230443954468,0.02064497396349907,0.09308689087629318,9.452999114990234,-0.2614223062992096,-2.6805777549743652
1413393214860760500,-0.0013234615325927734,0.01785602793097496,0.07985753566026688,9.23257827758789,-0.17128662765026093,-2.5416431427001953
1413393214865760500,-0.008256927132606506,0.011595966294407845,0.07079426199197769,9.665403366088867,-0.06535795331001282,-2.8444459438323975
1413393214870760500,-0.0006019026041030884,0.029042398557066917,0.0826743021607399,9.46125602722168,0.0327765978872776,-2.72987699508667
1413393214875760500,0.001476183533668518,0.029730763286352158,0.09104316681623459,9.404132843017578,0.008250481449067593,-2.7216343879699707
1413393214880760500,-0.003407791256904602,0.03391990810632706,0.08336824923753738,9.314144134521484,-0.007959002628922462,-2.607109546661377
1413393214885760500,-0.01177208125591278,0.02973342314362526,0.07358817011117935,9.403818130493164,-0.07335477322340012,-2.6725432872772217
1413393214890760500,-0.0020265430212020874,0.02553573250770569,0.085413359105587,9.379334449768066,-0.24495041370391846,-2.5742993354797363
1413393214895760500,0.0042462944984436035,0.021342452615499496,0.0847184881567955,9.387622833251953,-0.27767664194107056,-2.6560299396514893
1413393214900760500,-0.0005914866924285889,0.011594768613576889,0.07010842114686966,9.526712417602539,-0.040765389800071716,-2.8362181186676025
1413393214905760500,-0.0068601518869400024,0.031148971989750862,0.07919184118509293,9.57551383972168,0.0981179028749466,-2.7381784915924072
1413393214910760500,-0.004112854599952698,0.029027272015810013,0.08823352307081223,9.403962135314941,-0.0979546383023262,-2.6888394355773926
1413393214915760500,-0.0020146816968917847,0.02693803794682026,0.09451644867658615,9.469427108764648,-0.04082300141453743,-2.7216265201568604
1413393214920760500,-0.009674981236457825,0.0318344309926033,0.08545728772878647,9.461130142211914,0.024631405249238014,-2.6644628047943115
1413393214925760500,-0.007601872086524963,0.02553807571530342,0.09313351660966873,9.306109428405762,-0.016153480857610703,-2.6153178215026855
1413393214930760500,0.002833932638168335,0.020636674016714096,0.09026280790567398,9.370996475219727,-0.4818500280380249,-2.5660271644592285
1413393214935760500,0.01053522527217865,0.014373023062944412,0.08680269867181778,9.387809753417969,-0.26945653557777405,-2.5416717529296875
1413393214940760500,0.0036116093397140503,0.010910511016845703,0.07499515265226364,9.624856948852539,0.03271869570016861,-2.770949363708496
1413393214945760500,0.0001051872968673706,0.02835117094218731,0.07849050313234329,9.493935585021973,0.04911882430315018,-2.721741199493408
1413393214950760500,-0.0033982545137405396,0.02833801507949829,0.0798945501446724,9.355085372924805,0.049194250255823135,-2.7380385398864746
1413393214955760500,-0.006183236837387085,0.02904466725885868,0.08617568761110306,9.412301063537598,0.10638627409934998,-2.6972439289093018
1413393214960760500,-0.016652077436447144,0.02136048674583435,0.07777424901723862,9.436615943908691,-0.048845816403627396,-2.6644701957702637
1413393214965760500,-0.005516529083251953,0.028327737003564835,0.08470190316438675,9.419984817504883,-0.2939814031124115,-2.5660994052886963
1413393214970760500,0.004243731498718262,0.017850209027528763,0.08191188424825668,9.354880332946777,-0.36746349930763245,-2.5906195640563965
1413393214975760500,0.0049660056829452515,0.013676438480615616,0.07497411221265793,9.412354469299316,-0.15510569512844086,-2.721597671508789
1413393214980760500,0.0008164793252944946,0.011604050174355507,0.07779369503259659,9.592180252075195,0.05723736435174942,-2.8200016021728516
1413393214985760500,-0.001281648874282837,0.032542433589696884,0.08127901703119278,9.600024223327637,0.07355155050754547,-2.7544875144958496
1413393214990760500,-0.0048166364431381226,0.02901572175323963,0.09037431329488754,9.110126495361328,0.06566578894853592,-2.607116937637329
1413393214995760500,-0.006190702319145203,0.03043351322412491,0.0903400257229805,9.485695838928223,0.01639465056359768,-2.7298624515533447
1413393215000760500,-0.011775285005569458,0.023453976958990097,0.08822252601385117,9.48562240600586,-0.0815972238779068,-2.6153767108917236
1413393215005760500,0.0007537156343460083,0.026927459985017776,0.08469051867723465,9.501607894897461,-0.3839370310306549,-2.6478044986724854
1413393215010760500,0.00844523310661316,0.011573098599910736,0.07496996968984604,9.159208297729492,-0.22840271890163422,-2.4844024181365967
1413393215015760500,0.010574832558631897,0.009504638612270355,0.06239952892065048,9.681796073913574,-0.18793493509292603,-2.7952916622161865
1413393215020760500,0.00989881157875061,0.017212526872754097,0.07431667298078537,9.527005195617676,0.1636580228805542,-2.5747122764587402
1413393215025760500,-0.007564038038253784,0.018585607409477234,0.08063413947820663,9.347161293029785,0.26989927887916565,-2.7792365550994873
1413393215030760500,-0.024283751845359802,0.024889491498470306,0.085541732609272,9.502212524414062,0.4497047960758209,-2.820390224456787
1413393215035760500,-0.041770100593566895,0.01856854557991028,0.08479762822389603,9.306039810180664,0.17194955050945282,-2.656507968902588
1413393215040760500,-0.04875974357128143,0.023444408550858498,0.08195699006319046,9.338318824768066,-0.03232580050826073,-2.549985408782959
1413393215045760500,-0.04180137813091278,-0.005892567336559296,0.06860514730215073,9.346152305603027,-0.5795469284057617,-2.5091047286987305
1413393215050760500,-0.004827529191970825,0.0038826018571853638,0.05877057462930679,9.688371658325195,-1.0860811471939087,-2.6808481216430664
1413393215055760500,0.042611777782440186,0.02272668108344078,0.051175884902477264,9.199610710144043,-0.7347061634063721,-2.4762368202209473
1413393215060760500,0.08241797983646393,0.01300128549337387,0.08756352216005325,9.511362075805664,0.008063926361501217,-2.844233989715576
1413393215065760500,0.07891161739826202,0.03677260875701904,0.09814570099115372,9.266111373901367,0.678765594959259,-2.501065254211426
1413393215070760500,0.014799997210502625,0.02568364143371582,0.08704943209886551,9.641575813293457,1.02987539768219,-2.8371500968933105
1413393215075760500,-0.05639447271823883,0.04656122624874115,0.0905182883143425,9.387528419494629,0.89930659532547,-2.8699593544006348
1413393215080760500,-0.09349425137042999,0.0400717593729496,0.1029418334364891,8.537311553955078,-0.056552112102508545,-2.42684268951416
1413393215085760500,-0.06699439883232117,0.004506587982177734,0.1300041675567627,9.010082244873047,-1.1681684255599976,-2.623213052749634
1413393215090760500,0.003543063998222351,0.018584489822387695,0.14175951480865479,9.377425193786621,-1.4378541707992554,-2.4280309677124023
1413393215095760500,0.05650438368320465,0.009461484849452972,0.11814422160387039,9.452861785888672,-0.9315059185028076,-2.68039870262146
1413393215100760500,0.06013220548629761,-0.013496600091457367,0.06662168353796005,9.58492660522461,0.01638004742562771,-2.7382357120513916
1413393215105760500,0.02744518220424652,0.03404547646641731,0.031892530620098114,9.861599922180176,0.7111240029335022,-2.8284246921539307
1413393215110760500,-0.01590752601623535,0.027015168219804764,0.030474208295345306,9.191560745239258,0.6216175556182861,-2.7303245067596436
1413393215115760500,-0.03056323528289795,0.04024038463830948,0.06597835570573807,9.493611335754395,0.2781120836734772,-2.672907590866089
1413393215120760500,-0.020854875445365906,0.052762553095817566,0.09592249244451523,9.428081512451172,0.05726204439997673,-2.6643412113189697
1413393215125760500,-0.030619069933891296,0.03320654481649399,0.08754555135965347,9.501627922058105,-0.03263932839035988,-2.9259631633758545
1413393215130760500,-0.03272825479507446,0.05972832441329956,0.07776520401239395,9.109155654907227,-0.10578352957963943,-2.386047124862671
1413393215135760500,-0.018097415566444397,0.01364118605852127,0.08330392092466354,9.166778564453125,-0.4652765095233917,-2.5251519680023193
1413393215140760500,0.016776442527770996,0.03321511298418045,0.09858312457799911,9.656211853027344,-0.7025843858718872,-2.606839418411255
1413393215145760500,0.04471302032470703,0.015070151537656784,0.09520541876554489,9.298495292663574,-0.19600427150726318,-2.5906498432159424
1413393215150760500,0.0364149808883667,0.008128676563501358,0.08969903737306595,9.625253677368164,0.3186599016189575,-3.0245141983032227
1413393215155760500,0.005707308650016785,0.04304976388812065,0.07787791639566422,9.436923027038574,0.48242080211639404,-2.6811888217926025
1413393215160760500,-0.0263960063457489,-0.006544819101691246,0.07430321723222733,9.486074447631836,0.04111644998192787,-2.6648054122924805
1413393215165760500,-0.018717721104621887,0.019269920885562897,0.06934148818254471,9.88516616821289,-0.22887170314788818,-2.697270631790161
1413393215170760500,-0.0020118504762649536,0.03671174496412277,0.07850738614797592,9.150858879089355,0.07391480356454849,-2.500786542892456
1413393215175760500,-0.009662419557571411,-0.00027458555996418,0.08200591057538986,9.388073921203613,0.155417338013649,-2.9590342044830322
1413393215180760500,-0.03128257393836975,0.035318054258823395,0.05612028390169144,9.721606254577637,-0.19604581594467163,-2.8278355598449707
1413393215185760500,-0.023652389645576477,0.03878352791070938,0.05816715210676193,9.100834846496582,-0.52219557762146,-2.3534786701202393
1413393215190760500,0.023059502243995667,-0.0010149069130420685,0.0902683213353157,9.134645462036133,-0.6205556392669678,-2.476202964782715
1413393215195760500,0.047481656074523926,0.02692679688334465,0.09726539999246597,9.396137237548828,-0.40038496255874634,-2.6395106315612793
1413393215200760500,0.032873839139938354,0.003914278000593185,0.10090894252061844,9.069985389709473,0.4169807732105255,-2.771038055419922
1413393215205760500,-0.004687324166297913,0.02002152055501938,0.09044114500284195,9.845308303833008,0.5884141325950623,-3.000410318374634
1413393215210760500,-0.037564486265182495,0.06184889003634453,0.07078040391206741,9.656009674072266,-0.04900740087032318,-2.6642987728118896
1413393215215760500,-0.025775298476219177,0.020612213760614395,0.08890823274850845,9.036073684692383,-0.3753833770751953,-2.476017475128174
1413393215220760500,-0.006919786334037781,0.029027123004198074,0.09583938866853714,9.395368576049805,-0.36746615171432495,-2.4516170024871826
1413393215225760500,-0.0034137964248657227,0.011568356305360794,0.08966488391160965,9.281790733337402,0.03281339630484581,-2.901520013809204
1413393215230760500,-0.011056706309318542,0.031137142330408096,0.0792040154337883,9.485621452331543,0.11448962241411209,-2.844430923461914
1413393215235760500,-0.014584049582481384,0.04437854886054993,0.0651552602648735,9.590773582458496,-0.4084051549434662,-2.721261501312256
1413393215240760500,0.009116142988204956,0.022037599235773087,0.08399458974599838,9.50177001953125,-0.43297451734542847,-2.7131664752960205
1413393215245760500,0.03843243420124054,0.03879701346158981,0.10081522911787033,9.134889602661133,-0.048816319555044174,-2.459744930267334
1413393215250760500,0.02589625120162964,0.0032187551259994507,0.09532513469457626,9.021011352539062,0.35989880561828613,-2.6155753135681152
1413393215255760500,0.0001827627420425415,0.008148792199790478,0.09880807250738144,9.79642105102539,0.5965871810913086,-3.0821573734283447
1413393215260760500,-0.03334967792034149,0.03742172196507454,0.07496296614408493,9.89321517944336,-0.03278316929936409,-2.7381973266601562
1413393215265760500,-0.030630260705947876,0.026926811784505844,0.07492991536855698,9.46861743927002,-0.3184249997138977,-2.6315383911132812
1413393215270760500,-0.002736523747444153,0.04227373003959656,0.08752735704183578,9.158681869506836,-0.2039647400379181,-2.4923746585845947
1413393215275760500,-0.0006441324949264526,0.008049096912145615,0.08897452801465988,8.92245864868164,-0.0977001041173935,-2.598799228668213
1413393215280760500,-0.013080835342407227,-0.0030613522976636887,0.07151291519403458,10.049328804016113,0.04884297028183937,-3.073606014251709
1413393215285760500,-0.012464746832847595,0.04510011151432991,0.06864280253648758,9.517454147338867,-0.25308677554130554,-2.468007802963257
1413393215290760500,0.00841432809829712,0.034594688564538956,0.06934200972318649,9.460614204406738,-0.5145474672317505,-2.737537384033203
1413393215295760500,0.030065566301345825,0.020636454224586487,0.08548814803361893,8.881773948669434,-0.05676546320319176,-2.377993106842041
1413393215300760500,0.02241082489490509,0.01020708866417408,0.09949973970651627,9.127171516418457,0.35988515615463257,-2.599245548248291
1413393215305760500,-0.014465197920799255,0.015100101009011269,0.08132600039243698,9.902217864990234,0.3104618489742279,-3.0900352001190186
1413393215310760500,-0.027824968099594116,0.03462046757340431,0.0875362679362297,9.387380599975586,-0.016093535348773003,-2.5335679054260254
1413393215315760500,-0.018812939524650574,0.015039999037981033,0.09305975586175919,9.607754707336426,-0.4820809066295624,-2.950101375579834
1413393215320760500,-0.0006530582904815674,0.03179522976279259,0.09239596873521805,9.10973072052002,-0.3346458673477173,-2.4596455097198486
1413393215325760500,0.007040992379188538,0.016449782997369766,0.09736638516187668,9.020612716674805,0.09019146114587784,-2.558072090148926
1413393215330760500,-0.008974045515060425,0.004601750522851944,0.07846028357744217,9.681782722473145,-0.13895761966705322,-2.9751272201538086
1413393215335760500,-0.01316845417022705,0.0311275627464056,0.06379542499780655,9.444366455078125,-0.20405659079551697,-2.6479291915893555
1413393215340760500,0.0014466047286987305,0.0241294763982296,0.07563898712396622,9.583396911621094,-0.38401564955711365,-2.9092957973480225
1413393215345760500,0.02030305564403534,0.038099952042102814,0.08615127950906754,9.444920539855957,-0.08991210907697678,-2.8277084827423096
1413393215350760500,0.014010399580001831,0.04645721986889839,0.09321943670511246,8.84057903289795,0.2782972753047943,-2.4353389739990234
1413393215355760500,-0.007554411888122559,0.0032193083316087723,0.07986951619386673,9.730937004089355,-0.024581974372267723,-2.909949541091919
1413393215360760500,-0.015205144882202148,0.030450863763689995,0.07009000331163406,9.860918998718262,-0.016441090032458305,-2.7545647621154785
1413393215365760500,-0.00619138777256012,0.02694080024957657,0.08895561844110489,9.436772346496582,0.040940482169389725,-2.77077317237854
1413393215370760500,-0.006907925009727478,0.02482764981687069,0.09525590389966965,9.216336250305176,0.09005733579397202,-2.787079334259033
1413393215375760500,-0.010400339961051941,0.010174605995416641,0.0987539067864418,9.028788566589355,0.08214163035154343,-2.4354331493377686
1413393215380760500,-0.01875239610671997,-0.0016963779926300049,0.07699952274560928,10.073125839233398,-0.42513132095336914,-2.94244384765625
1413393215385760500,-0.002707764506340027,0.01716618239879608,0.06515686959028244,9.64859676361084,-0.3594331741333008,-2.729722499847412
1413393215390760500,0.02519954741001129,0.017170917242765427,0.09876168519258499,9.265843391418457,0.19624479115009308,-2.770862340927124
1413393215395760500,0.029349401593208313,0.03946206718683243,0.10363698750734329,8.808066368103027,-0.03229140862822533,-2.3533554077148438
1413393215400760500,-0.004761263728141785,-0.01699434220790863,0.08200766891241074,9.405036926269531,0.1883164495229721,-2.5585570335388184
1413393215405760500,-0.013084620237350464,0.010220687836408615,0.06103873997926712,9.893986701965332,0.04901149123907089,-2.787489891052246
1413393215410760500,-0.011784419417381287,0.029720669612288475,0.08685793727636337,9.354952812194824,-0.008023037575185299,-2.7624833583831787
1413393215415760500,-0.013903394341468811,0.021317698061466217,0.09945017844438553,8.905981063842773,0.0249380711466074,-2.4434566497802734
1413393215420760500,-0.02434198558330536,-0.026116974651813507,0.08194894343614578,9.126974105834961,-0.17923445999622345,-2.3620336055755615
1413393215425760500,-0.02012781798839569,-0.002396233379840851,0.0539560541510582,10.29296588897705,-0.5721414089202881,-2.966918468475342
1413393215430760500,0.00704483687877655,0.03251561149954796,0.06934944540262222,9.460725784301758,-0.35933467745780945,-2.6314282417297363
1413393215435760500,0.033541128039360046,0.026927661150693893,0.09030459076166153,9.428775787353516,-0.277824342250824,-2.721334457397461
1413393215440760500,0.021724089980125427,0.023457929491996765,0.06589338928461075,8.906064987182617,-0.21994465589523315,-2.132784366607666
1413393215445760500,0.007894545793533325,-0.009298726916313171,0.0562199130654335,9.935382843017578,0.31053969264030457,-3.065643310546875
1413393215450760500,0.006382107734680176,0.045126982033252716,0.09533213824033737,9.363373756408691,0.5804221034049988,-2.787631034851074
1413393215455760500,-0.02438303828239441,0.02617199532687664,0.10787441581487656,8.717991828918457,0.25371435284614563,-2.566253662109375
1413393215460760500,-0.04809360206127167,0.012246683239936829,0.07981184870004654,9.297154426574707,-0.3999701142311096,-2.615150213241577
1413393215465760500,-0.029946699738502502,-0.012173712253570557,0.08888063579797745,9.420309066772461,-0.3592722415924072,-2.6399357318878174
1413393215470760500,0.009099379181861877,0.02482803910970688,0.11466430872678757,9.771088600158691,-0.45786336064338684,-2.7703373432159424
1413393215475760500,0.020947575569152832,0.011550966650247574,0.10982031375169754,9.445068359375,-0.43313661217689514,-2.8111348152160645
1413393215480760500,0.004276081919670105,0.01716827228665352,0.04984108358621597,9.452844619750977,-0.26941007375717163,-2.7542126178741455
1413393215485760500,0.026643827557563782,0.019304851070046425,0.09180653840303421,9.559840202331543,0.3923071622848511,-2.861119270324707
1413393215490760500,0.021725133061408997,0.030454998835921288,0.10781652480363846,9.469922065734863,0.2533915340900421,-2.64009428024292
1413393215495760500,-0.013836771249771118,0.047890570014715195,0.07079047709703445,9.730031967163086,-0.049115244299173355,-2.787008047103882
1413393215500760500,-0.022254645824432373,0.0038605649024248123,0.07017531245946884,8.791644096374512,0.11487346887588501,-2.639878034591675
1413393215505760500,0.0015073418617248535,0.027655648067593575,0.10494885593652725,9.812345504760742,0.008000913076102734,-2.623737096786499
1413393215510760500,-0.008294671773910522,0.0339096337556839,0.09521704167127609,9.542716979980469,-0.03273775428533554,-2.8850722312927246
1413393215515760500,-0.030623018741607666,0.006635002791881561,0.044302798807621,8.603363990783691,-0.2525097131729126,-2.345263957977295
1413393215520760500,0.004967853426933289,-0.01843053475022316,0.0763387456536293,9.49439811706543,-0.2694762349128723,-2.6727733612060547
1413393215525760500,0.025242552161216736,0.00951320305466652,0.09865503758192062,9.951519966125488,-0.06566330045461655,-2.6647088527679443
1413393215530760500,0.0008163005113601685,0.03811269253492355,0.07011238485574722,9.746724128723145,-0.016456348821520805,-2.9995341300964355
1413393215535760500,-0.008997470140457153,-0.0010171327739953995,0.07017607241868973,8.677454948425293,0.05779673904180527,-2.3617115020751953
1413393215540760500,0.00570070743560791,0.0171821266412735,0.09447098523378372,9.918500900268555,-0.09013553708791733,-2.689189910888672
1413393215545760500,0.0015250295400619507,0.047895245254039764,0.10148618370294571,9.91822624206543,0.11408372968435287,-2.7708630561828613
1413393215550760500,-0.01738317310810089,0.03876515105366707,0.06799233704805374,8.937920570373535,-0.3017508387565613,-2.4023923873901367
1413393215555760500,0.000744253396987915,0.007351066917181015,0.07845792919397354,9.052912712097168,-0.36728376150131226,-2.606872797012329
1413393215560760500,0.021751314401626587,0.014421546831727028,0.10016729682683945,9.527359962463379,0.3678635060787201,-2.722097635269165
1413393215565760500,-0.019399404525756836,0.023483408614993095,0.06667619198560715,9.485719680786133,0.2535560429096222,-2.7956271171569824
1413393215570760500,-0.03272180259227753,0.005960192531347275,0.05402884632349014,8.970795631408691,-0.36700892448425293,-2.4679954051971436
1413393215575760500,-0.0006282776594161987,-0.0016904696822166443,0.08753450959920883,9.069613456726074,-0.19564087688922882,-2.3699891567230225
1413393215580760500,-0.005459874868392944,0.009500786662101746,0.08125611394643784,9.796158790588379,-0.032810840755701065,-2.8935599327087402
1413393215585760500,-0.02295374870300293,0.014351706951856613,0.0659034326672554,9.183265686035156,-0.22023263573646545,-2.6315486431121826
1413393215590760500,0.0028233230113983154,0.01503707468509674,0.08189845830202103,9.322033882141113,-0.555337131023407,-2.6722257137298584
1413393215595760500,0.025262832641601562,0.03671586140990257,0.09519308060407639,10.22865104675293,-0.025168655440211296,-2.9261093139648438
1413393215600760500,-0.000565066933631897,0.0758122131228447,0.07642055302858353,9.762639045715332,0.19590307772159576,-2.917839527130127
1413393215605760500,-0.009709447622299194,0.059674374759197235,0.0687248632311821,8.537599563598633,-0.2525934875011444,-2.197908401489258
1413393215610760500,0.009869083762168884,0.008803233504295349,0.09383446723222733,9.58421802520752,0.04080766811966896,-2.852648973464966
1413393215615760500,-0.006185561418533325,0.053485095500946045,0.09598066657781601,9.379481315612793,0.3434033691883087,-2.66464900970459
1413393215620760500,-0.015317067503929138,0.0017083361744880676,0.0966675654053688,8.562871932983398,-0.21203874051570892,-2.5740315914154053
1413393215625760500,0.01118043065071106,-0.02823302149772644,0.11814875155687332,9.796401023864746,-0.5477429032325745,-2.8524386882781982
1413393215630760500,0.014805436134338379,0.03392449766397476,0.11827162653207779,10.008479118347168,0.3346737027168274,-3.097982168197632
1413393215635760500,0.0021242648363113403,0.048504557460546494,0.10223539918661118,8.807592391967773,-0.0977446436882019,-2.541306734085083
1413393215640760500,0.004919067025184631,-0.049188561737537384,0.09796855598688126,9.127145767211914,-0.5062780380249023,-2.5663692951202393
1413393215645760500,0.00382193922996521,0.004620743915438652,0.07718432694673538,10.572001457214355,0.514541506767273,-3.212749481201172
1413393215650760500,-0.011084452271461487,0.054841361939907074,0.0799371674656868,9.166827201843262,0.25354692339897156,-2.8116960525512695
1413393215655760500,-0.02503839135169983,-0.037323229014873505,0.05327991396188736,8.742530822753906,-0.8323498964309692,-2.2478840351104736
1413393215660760500,-0.013667955994606018,-0.021866708993911743,0.036645807325839996,10.310698509216309,0.1961524933576584,-2.738978147506714
1413393215665760500,0.0021812468767166138,0.04230277240276337,0.07848101109266281,9.371206283569336,0.00017085671424865723,-2.5989091396331787
1413393215670760500,-0.006248459219932556,-0.036015529185533524,0.047053731977939606,8.587638854980469,-0.7674142718315125,-2.8273909091949463
1413393215675760500,0.0176527202129364,0.004687104374170303,0.06745105236768723,9.788209915161133,0.7110974192619324,-3.1312410831451416
1413393215680760500,0.01538887619972229,0.04994547739624977,0.1211545392870903,8.954957008361816,0.5314484238624573,-2.705655336380005
1413393215685760500,-0.026510655879974365,-0.04301978647708893,0.09312280267477036,8.432411193847656,-0.636970579624176,-3.0314857959747314
1413393215690760500,-0.014464616775512695,-0.01841890811920166,0.09036902338266373,10.04958724975586,0.2204819768667221,-3.2126877307891846
1413393215695760500,0.021667227149009705,0.037394795566797256,0.14689823985099792,9.167730331420898,0.28619325160980225,-2.5090487003326416
1413393215700760500,-0.0034860968589782715,-0.03532378375530243,0.09938158839941025,8.545875549316406,-1.111011028289795,-2.50901460647583
1413393215705760500,-0.002656713128089905,-0.05749082565307617,0.06244433671236038,9.592541694641113,0.07371532917022705,-3.310603618621826
1413393215710760500,0.024551287293434143,0.01858365908265114,0.1098552867770195,9.951634407043457,0.09770404547452927,-2.7873830795288086
1413393215715760500,-0.016682997345924377,-0.014303628355264664,0.03865193575620651,9.019950866699219,-0.6447517275810242,-2.6560757160186768
1413393215720760500,-0.0164518803358078,-0.019747823476791382,0.027667276561260223,10.008501052856445,0.46604347229003906,-3.1394269466400146
1413393215725760500,0.01819455623626709,0.04508320987224579,0.09933570772409439,9.607720375061035,-0.34329620003700256,-2.6231982707977295
1413393215730760500,-0.009706050157546997,0.004540383815765381,0.04567798227071762,8.889461517333984,-0.3262573182582855,-2.770317554473877
1413393215735760500,-0.00758853554725647,0.022858645766973495,0.07310058921575546,9.167745590209961,0.9485086798667908,-2.6569976806640625
1413393215740760500,-0.0006580948829650879,0.02133355289697647,0.12657701969146729,9.485825538635254,-0.16353733837604523,-2.696939706802368
1413393215745760500,-0.03834579885005951,0.008670572191476822,0.059616126120090485,8.693004608154297,-0.6529233455657959,-2.7618579864501953
1413393215750760500,-0.008332803845405579,-0.04080350324511528,0.11350559443235397,8.580154418945312,0.2782767415046692,-2.34545636177063
1413393215755760500,0.030674323439598083,-0.023360464721918106,0.16003826260566711,10.710259437561035,-0.7036882042884827,-3.1627509593963623
1413393215760760500,0.007660269737243652,0.011519886553287506,0.07700596004724503,9.37917709350586,-0.874042272567749,-3.023390531539917
1413393215765760500,0.03351423144340515,-0.03240186348557472,0.12055116146802902,8.531014442443848,0.6950353980064392,-2.4763686656951904
1413393215770760500,0.04469984769821167,-0.014967773109674454,0.12169384211301804,10.719112396240234,-0.4831179678440094,-3.2935569286346436
1413393215775760500,-0.0124644935131073,0.03251916542649269,0.0429975762963295,8.96238899230957,0.5642216801643372,-3.0164847373962402
1413393215780760500,-0.005507409572601318,-0.028141722083091736,0.11980064958333969,9.103264808654785,0.6788967847824097,-2.509511709213257
1413393215785760500,-0.03750509023666382,0.028284527361392975,0.0310395285487175,10.864274978637695,-0.5722380876541138,-3.44832706451416
1413393215790760500,-0.03760354220867157,0.06665202975273132,0.020630069077014923,8.48000717163086,0.3194785416126251,-2.3860294818878174
1413393215795760500,0.006325960159301758,-0.06382550299167633,0.11402366310358047,9.291099548339844,-0.29398155212402344,-2.5502662658691406
1413393215800760500,-0.019448086619377136,0.05763225629925728,0.03517190366983414,10.153498649597168,-0.6617345809936523,-3.2192444801330566
1413393215805760500,0.0034918934106826782,0.04633941873908043,0.04787670820951462,7.588860988616943,0.6794322729110718,-2.0338082313537598
1413393215810760500,0.03631524741649628,-0.05683659017086029,0.13355889916419983,9.552595138549805,-0.24537412822246552,-2.8771140575408936
1413393215815760500,-0.006246313452720642,0.017804685980081558,0.077768974006176,9.060938835144043,-0.32649070024490356,-2.8682940006256104
1413393215820760500,0.00971578061580658,-0.02128732204437256,0.11781724542379379,8.031595230102539,0.9161149263381958,-2.148427963256836
1413393215825760500,0.020938336849212646,-0.003110293298959732,0.12723028659820557,10.83187198638916,-0.7687926292419434,-3.121798038482666
1413393215830760500,-0.009703606367111206,0.01155453734099865,0.08617421239614487,9.020356178283691,-0.07313237339258194,-2.5171139240264893
1413393215835760500,0.006430447101593018,-0.05748693645000458,0.1126541718840599,9.952781677246094,0.16334304213523865,-2.788010358810425
1413393215840760500,-0.028449058532714844,0.0401935912668705,0.014276750385761261,10.0802640914917,-0.38392314314842224,-3.2278614044189453
1413393215845760500,-0.024307355284690857,0.056976933032274246,0.0317884162068367,9.076692581176758,0.24577687680721283,-2.418915271759033
1413393215850760500,-0.0013106763362884521,0.049965567886829376,0.08952153474092484,10.23510456085205,-0.482555091381073,-2.7622461318969727
1413393215855760500,-0.02857130765914917,0.07503663003444672,0.05543071776628494,9.215070724487305,-0.31009647250175476,-3.055924892425537
1413393215860760500,0.009098738431930542,0.03871047496795654,0.0981564149260521,8.186727523803711,0.33566319942474365,-2.1488397121429443
1413393215865760500,0.019600391387939453,0.037422582507133484,0.1034681424498558,9.044136047363281,-0.8162621855735779,-2.1740310192108154
1413393215870760500,0.00911201536655426,0.01639283448457718,0.08968455344438553,8.775399208068848,-0.07324561476707458,-2.7948415279388428
1413393215875760500,0.020355522632598877,-0.03580505773425102,0.1308920681476593,9.511929512023926,0.564167320728302,-2.6569318771362305
1413393215880760500,-0.02220788598060608,-0.023314423859119415,0.07498567551374435,9.763604164123535,-0.06539110094308853,-3.204181671142578
1413393215885760500,-0.018004104495048523,0.022768527269363403,0.09807660430669785,9.632658004760742,0.40045586228370667,-3.08187198638916
1413393215890760500,-0.005412444472312927,0.026334598660469055,0.07544364780187607,9.745436668395996,-0.6857367157936096,-2.068204402923584
1413393215895760500,-0.005521818995475769,0.03878546878695488,0.056121163070201874,9.925938606262207,-0.46566712856292725,-3.4236762523651123
1413393215900760500,0.02387438714504242,0.03325454890727997,0.08751901239156723,10.008316040039062,0.05685374140739441,-2.6728174686431885
1413393215905760500,-0.005471020936965942,0.02695578895509243,0.04571438580751419,9.207907676696777,0.04947090521454811,-2.5908195972442627
1413393215910760500,-0.010361641645431519,0.07298818975687027,0.035267673432826996,9.27225112915039,0.1964285671710968,-3.0893852710723877
1413393215915760500,-0.010249197483062744,0.030555851757526398,0.06860088557004929,9.029619216918945,-0.1549072414636612,-1.5282535552978516
1413393215920760500,-0.021570146083831787,-0.01219622790813446,0.07290848344564438,8.979572296142578,-0.08133086562156677,-3.0321013927459717
1413393215925760500,7.337331771850586e-05,0.01365291140973568,0.07292219251394272,9.142839431762695,0.016596831381320953,-2.9504332542419434
1413393215930760500,0.001459851861000061,-0.016367997974157333,0.08618295937776566,8.832966804504395,-0.14659316837787628,-2.3781421184539795
1413393215935760500,0.007032990455627441,-0.01636528968811035,0.11889549344778061,9.845104217529297,-0.06539102643728256,-3.709860324859619
1413393215940760500,0.0210743248462677,0.030512306839227676,0.1459885835647583,9.649230003356934,-0.17142412066459656,-1.9366707801818848
1413393215945760500,0.011169865727424622,0.031768493354320526,0.14333072304725647,9.436753273010254,-0.09003426134586334,-3.3011796474456787
1413393215950760500,0.01612710952758789,0.05970863252878189,0.12382591515779495,9.820178031921387,0.13036125898361206,-3.260694742202759
1413393215955760500,-0.011696293950080872,0.02562578022480011,0.06658231467008591,8.931215286254883,0.016895977780222893,-1.62584388256073
1413393215960760500,-0.015992194414138794,0.014357097446918488,0.04355368763208389,9.558206558227539,-0.11362161487340927,-3.840341091156006
1413393215965760500,-0.01867702603340149,0.047934550791978836,0.010745294392108917,9.419116020202637,-0.12204989045858383,-2.2471587657928467
1413393215970760500,-0.03476780652999878,-0.014250129461288452,0.014329664409160614,8.873040199279785,0.14774198830127716,-2.738107204437256
1413393215975760500,-0.011780530214309692,0.05199337378144264,0.05404747277498245,10.10421085357666,-0.1788880079984665,-4.247899532318115
1413393215980760500,0.0029154717922210693,0.041645247489213943,0.09025349467992783,8.685700416564941,-0.44030967354774475,-1.781745433807373
1413393215985760500,0.016018956899642944,0.012945655733346939,0.11677805334329605,9.485923767089844,-0.4247286319732666,-3.6276557445526123
1413393215990760500,0.02457749843597412,0.09051760286092758,0.09928753226995468,9.835526466369629,0.007979665882885456,-2.0180561542510986
1413393215995760500,0.006993383169174194,0.009415064938366413,0.11633165925741196,8.285215377807617,0.4500225782394409,-2.2061641216278076
1413393216000760500,-0.003394871950149536,0.02615254372358322,0.11196323484182358,10.530028343200684,-0.22094124555587769,-3.986929178237915
1413393216005760500,-0.01853989064693451,0.03129115328192711,0.0825895294547081,8.663607597351074,-0.10700544714927673,-1.1613390445709229
1413393216010760500,-0.010431528091430664,-0.023351043462753296,0.09589796513319016,9.101914405822754,0.12298683077096939,-3.5630171298980713
1413393216015760500,0.0022170841693878174,0.024903923273086548,0.07545322924852371,9.81032943725586,-0.873636782169342,-2.2887840270996094
1413393216020760500,0.010624855756759644,-0.01208178699016571,0.08323047310113907,9.633260726928711,-0.21207699179649353,-2.0760090351104736
1413393216025760500,0.031466081738471985,0.05405590310692787,0.10149192065000534,10.325403213500977,-0.1141958087682724,-4.125199794769287
1413393216030760500,0.01910141110420227,0.06124235689640045,0.07772747427225113,8.605923652648926,-0.016710735857486725,-1.2182555198669434
1413393216035760500,0.004960149526596069,0.013665800914168358,0.09250622242689133,9.215978622436523,0.5150124430656433,-3.3186681270599365
1413393216040760500,-0.011632964015007019,0.08357611298561096,0.0615711584687233,9.655720710754395,-0.20426496863365173,-1.773140788078308
1413393216045760500,-0.041755110025405884,-0.005845101550221443,0.024867258965969086,8.840500831604004,0.4665343463420868,-2.5828609466552734
1413393216050760500,-0.034070298075675964,0.0541362538933754,0.028947345912456512,9.655566215515137,-0.05669098719954491,-3.5300543308258057
1413393216055760500,-0.03322921693325043,-0.009167231619358063,0.02177172154188156,8.769121170043945,-0.4736359119415283,-1.3663909435272217
1413393216060760500,-0.002700313925743103,0.045024946331977844,0.0624333992600441,10.325132369995117,-0.3263932764530182,-4.199025630950928
1413393216065760500,0.03215870261192322,0.0708807110786438,0.08401615172624588,8.668583869934082,-0.5220680832862854,-2.0837180614471436
1413393216070760500,0.030827179551124573,-0.016285471618175507,0.10508159548044205,9.462322235107422,0.49859151244163513,-2.959409475326538
1413393216075760500,0.023025289177894592,0.08896810561418533,0.11480612307786942,9.051898002624512,0.48230990767478943,-3.4406816959381104
1413393216080760500,-0.01596049964427948,-0.03726080060005188,0.07583735138177872,8.179098129272461,0.30240440368652344,-1.4214075803756714
1413393216085760500,-0.029094725847244263,0.029501665383577347,0.08831318467855453,10.60106086730957,0.4340433180332184,-4.4682135581970215
1413393216090760500,-0.033403024077415466,0.03250151872634888,0.07707593590021133,8.19506549835205,-0.3831290304660797,-1.748858094215393
1413393216095760500,-0.026431575417518616,-0.05892610549926758,0.07987954467535019,9.266133308410645,-0.13045501708984375,-2.7956442832946777
1413393216100760500,-0.0020097941160202026,0.08001004159450531,0.08673179894685745,9.345451354980469,-0.416296124458313,-2.1980278491973877
1413393216105760500,0.0015077292919158936,-0.06307543069124222,0.07916659861803055,9.3240385055542,-0.04037921130657196,-2.3705689907073975
1413393216110760500,0.00498509407043457,0.11200805008411407,0.07226795703172684,10.839332580566406,-0.5802348852157593,-4.059450149536133
1413393216115760500,0.015573665499687195,0.03196757659316063,0.0629684254527092,8.768566131591797,-0.4812527596950531,-1.5292373895645142
1413393216120760500,0.014900773763656616,0.07146032154560089,0.061846159398555756,10.733236312866211,0.15518492460250854,-3.9784693717956543
1413393216125760500,0.020311787724494934,0.10430195927619934,0.07853161543607712,7.7450337409973145,-0.09730925410985947,-1.6751859188079834
1413393216130760500,0.008539289236068726,-0.04906672239303589,0.06938155740499496,9.544547080993652,0.09867880493402481,-2.1332485675811768
1413393216135760500,0.008489146828651428,0.12385892122983932,0.07851815968751907,10.381961822509766,-0.17183995246887207,-3.7820513248443604
1413393216140760500,-0.00835651159286499,-0.03733218461275101,0.087057925760746,7.761734962463379,0.35984066128730774,-1.7236464023590088
1413393216145760500,-0.030406609177589417,0.04479845613241196,0.0897889956831932,11.402655601501465,0.1471015065908432,-4.42741060256958
1413393216150760500,-0.018794089555740356,0.10361703485250473,0.11549899727106094,8.06362533569336,-0.15446607768535614,-1.8219268321990967
1413393216155760500,-0.009015277028083801,-0.07148442417383194,0.12658897042274475,9.50284481048584,-2.4533272153348662e-05,-3.473548650741577
1413393216160760500,-0.0020898431539535522,0.11480999737977982,0.11612055450677872,8.765512466430664,-0.5387411117553711,-2.311948776245117
1413393216165760500,0.004325360059738159,-0.09516966342926025,0.08749594539403915,9.61871337890625,-0.00766723183915019,-2.2564258575439453
1413393216170760500,0.012621939182281494,0.07299720495939255,0.07368702441453934,11.207695960998535,-0.8744205236434937,-3.9617319107055664
1413393216175760500,0.019657671451568604,0.004575643688440323,0.05762804299592972,7.458464622497559,-0.016848735511302948,-1.2756922245025635
1413393216180760500,0.014400064945220947,-0.003170996904373169,0.05840694159269333,11.437928199768066,0.4489136040210724,-3.6776790618896484
1413393216185760500,0.0035633593797683716,0.1232244223356247,0.0303608700633049,8.945077896118164,0.07398884743452072,-2.426665782928467
1413393216190760500,-0.004786789417266846,-0.07768823951482773,0.07447995990514755,8.899168014526367,0.6951452493667603,-2.6403703689575195
1413393216195760500,-0.029111072421073914,0.0932057574391365,0.046436406672000885,10.210578918457031,-0.03284165635704994,-3.4155161380767822
1413393216200760500,-0.03564134240150452,-0.055514268577098846,0.09479779750108719,7.360302448272705,0.5393398404121399,-1.5437722206115723
1413393216205760500,-0.04322455823421478,-0.04017948731780052,0.09173531085252762,11.371723175048828,-0.6624610424041748,-3.5142717361450195
1413393216210760500,-0.020879149436950684,0.03176475688815117,0.09672541171312332,8.047770500183105,0.1477401703596115,-1.6910063028335571
1413393216215760500,0.0036837011575698853,-0.10710744559764862,0.09173766523599625,10.842514991760254,0.01570720784366131,-3.556049346923828
1413393216220760500,0.005681559443473816,0.05347476527094841,0.08751644939184189,8.685393333435059,-0.17894984781742096,-1.8465750217437744
1413393216225760500,0.011989280581474304,-0.11326803267002106,0.10649903863668442,9.357624053955078,0.5151951313018799,-2.706145763397217
1413393216230760500,0.012622326612472534,0.03042086958885193,0.08184885233640671,10.170331954956055,-0.6049400568008423,-2.843919038772583
1413393216235760500,0.026527032256126404,-0.061778269708156586,0.11217235773801804,8.016326904296875,0.43314799666404724,-2.377877712249756
1413393216240760500,0.018924862146377563,-0.0023811794817447662,0.05115852504968643,10.32597827911377,-0.6783977746963501,-2.99125075340271
1413393216245760500,0.02165687084197998,0.019893072545528412,0.08352484554052353,8.104865074157715,0.474845290184021,-1.9686949253082275
1413393216250760500,0.003719627857208252,-0.06583955138921738,0.0777999684214592,10.181364059448242,0.2532978653907776,-2.8945372104644775
1413393216255760500,-0.018685966730117798,0.032549597322940826,0.059612564742565155,9.82801342010498,-0.04082343727350235,-2.640054225921631
1413393216260760500,-0.018061384558677673,-0.0595761239528656,0.10863471776247025,8.988778114318848,0.6214101910591125,-2.779547691345215
1413393216265760500,-0.032743170857429504,-0.021262649446725845,0.055333249270915985,9.648266792297363,-0.8085130453109741,-2.8851051330566406
1413393216270760500,0.006286934018135071,-0.0603829026222229,0.15529009699821472,8.727250099182129,0.049040038138628006,-2.8603274822235107
1413393216275760500,0.011188596487045288,-0.0505923330783844,0.07551907747983932,9.787503242492676,-1.1193503141403198,-2.877293109893799
1413393216280760500,0.026560276746749878,-0.042881108820438385,0.1414187252521515,8.857687950134277,0.6947769522666931,-3.07366943359375
1413393216285760500,0.0035902410745620728,-0.0617055743932724,0.0742236003279686,9.707342147827148,-0.2777886390686035,-2.7304742336273193
1413393216290760500,-0.015256717801094055,0.0024923644959926605,0.07501339167356491,9.403600692749023,0.23732049763202667,-3.440941333770752
1413393216295760500,0.009823977947235107,0.007341410964727402,0.09106136113405228,8.563035011291504,-0.285391241312027,-2.181769371032715
1413393216300760500,-0.0006331205368041992,-0.023345783352851868,0.042809657752513885,9.436670303344727,-0.6287308931350708,-2.795241355895996
1413393216305760500,0.04960872232913971,0.019260449334979057,0.14623165130615234,9.364006996154785,0.5066033005714417,-2.918290376663208
1413393216310760500,0.014088496565818787,0.0025427304208278656,0.05542140454053879,9.624815940856934,-0.11424378305673599,-2.5910534858703613
1413393216315760500,0.008359745144844055,0.03955649584531784,0.15825927257537842,9.183713912963867,1.2996901273727417,-3.115774154663086
1413393216320760500,-0.0313410758972168,-0.019881010055541992,0.07639024406671524,8.955057144165039,-0.2528224587440491,-2.6724908351898193
1413393216325760500,-0.05153973400592804,0.012964142486453056,0.0876183733344078,9.3458251953125,0.539666473865509,-3.4332528114318848
1413393216330760500,-0.019445717334747314,0.013657942414283752,0.05117971450090408,8.537997245788574,-0.881108283996582,-2.027289628982544
1413393216335760500,-0.017437756061553955,-0.0030937474220991135,0.07490723580121994,9.444557189941406,-0.27711981534957886,-3.848510980606079
1413393216340760500,0.018885523080825806,0.022689886391162872,0.11274594813585281,8.252579689025879,-0.07303547859191895,-1.969112753868103
1413393216345760500,-0.020153135061264038,-0.07706105709075928,0.06796485930681229,9.788527488708496,-0.32687512040138245,-3.375903367996216
1413393216350760500,0.008497551083564758,0.03741142898797989,0.1385280191898346,9.795949935913086,0.5636787414550781,-3.155369997024536
1413393216355760500,-0.024360477924346924,-0.060368895530700684,0.06584066897630692,8.979644775390625,-0.742803156375885,-2.4522128105163574
1413393216360760500,0.004977285861968994,0.0512557178735733,0.10777164250612259,10.284387588500977,-0.016221020370721817,-4.035677909851074
1413393216365760500,0.01333656907081604,0.007430166006088257,0.04907429963350296,7.918181419372559,-0.9874090552330017,-1.6518217325210571
1413393216370760500,0.02670884132385254,0.003046981990337372,0.07305698841810226,11.526549339294434,-0.1637994647026062,-4.501397609710693
1413393216375760500,0.03567555546760559,0.12388577312231064,0.07433556765317917,8.284829139709473,0.3356974422931671,-1.4048548936843872
1413393216380760500,-0.01248757541179657,-0.036640580743551254,0.1091722622513771,9.795015335083008,0.5074188709259033,-4.151016712188721
1413393216385760500,-0.011746615171432495,0.07648269832134247,0.09871942549943924,8.146270751953125,-0.14642266929149628,-1.5445164442062378
1413393216390760500,-0.03067314624786377,-0.1182745099067688,0.10774467140436172,9.241766929626465,-0.37580591440200806,-3.2449891567230225
1413393216395760500,0.014737695455551147,0.03464607521891594,0.10411245375871658,9.949540138244629,-0.6210448145866394,-2.4354898929595947
1413393216400760500,-0.0068652331829071045,-0.12939895689487457,0.037281595170497894,8.335909843444824,-0.571117103099823,-1.9376192092895508
1413393216405760500,0.030225425958633423,-0.04362477362155914,0.09039618819952011,11.078808784484863,0.04012978821992874,-3.7919273376464844
1413393216410760500,-0.0053587257862091064,-0.05179463326931,0.02403862029314041,8.956687927246094,0.11423815786838531,-1.3808683156967163
1413393216415760500,0.004354268312454224,-0.03744003549218178,0.09122485667467117,12.181490898132324,-0.041498761624097824,-4.714306831359863
1413393216420760500,-0.01763223111629486,0.07322220504283905,-0.005261801183223724,9.310273170471191,-0.11056291311979294,-0.9086703658103943
1413393216425760500,-0.008743047714233398,0.01695246621966362,0.06465528160333633,10.945140838623047,0.42544832825660706,-4.2970781326293945
1413393216430760500,-0.012357592582702637,0.12175969779491425,0.007246173918247223,7.639692306518555,-0.13954809308052063,-1.0404783487319946
1413393216435760500,-0.018036603927612305,-0.008679673075675964,0.09172747284173965,9.746744155883789,0.12272324413061142,-3.60412335395813
1413393216440760500,0.016180723905563354,0.12886877357959747,0.05395940691232681,8.815433502197266,-0.30147820711135864,-1.7569602727890015
1413393216445760500,0.00834183394908905,-0.012915674597024918,0.14972394704818726,9.19959831237793,0.8998077511787415,-3.8984973430633545
1413393216450760500,0.0034941136837005615,0.12322203814983368,0.10633445531129837,9.181913375854492,-0.3839431703090668,-2.4998536109924316
1413393216455760500,-0.04188172519207001,-0.0786270946264267,0.0779295489192009,7.10032844543457,0.6788973212242126,-2.3529975414276123
1413393216460760500,-0.020896703004837036,0.00037425756454467773,0.06795936077833176,9.330206871032715,-0.5389468669891357,-2.9174485206604004
1413393216465760500,-0.05384749174118042,-0.1748380959033966,-0.0008549019694328308,7.4573869705200195,0.6778734922409058,-1.5428799390792847
1413393216470760500,-0.01598268747329712,-0.07709980010986328,0.0820651724934578,11.445921897888184,-0.6464654803276062,-4.265687465667725
1413393216475760500,-0.05801287293434143,-0.10717783868312836,-0.010730795562267303,7.104684829711914,0.5639156103134155,-1.502422571182251
1413393216480760500,-0.004202902317047119,-0.12184542417526245,0.14691570401191711,11.536535263061523,-0.4343886077404022,-3.898386240005493
1413393216485760500,-0.022323250770568848,-0.042904436588287354,0.0528535470366478,7.908164024353027,0.5236396789550781,-1.6413763761520386
1413393216490760500,0.016609489917755127,-0.12731389701366425,0.18614384531974792,12.3214111328125,-0.5490782856941223,-4.5923662185668945
1413393216495760500,-0.02100144326686859,0.01780882105231285,0.07241909950971603,8.112364768981934,0.9576757550239563,-1.7876665592193604
1413393216500760500,-0.020147845149040222,-0.02430187165737152,0.17606699466705322,10.953210830688477,0.16363422572612762,-4.934053897857666
1413393216505760500,-0.05625748634338379,0.09539519995450974,0.05332436412572861,8.434004783630371,-0.0011830732692033052,-1.0881762504577637
1413393216510760500,-0.026495501399040222,-0.05197369307279587,0.13979572057724,10.106407165527344,-0.3027210235595703,-3.873426675796509
1413393216515760500,-0.033403992652893066,0.10369782149791718,0.03025653213262558,9.238224029541016,-0.4569186866283417,-2.3694145679473877
