#timestamp [ns],w_RS_S_x [rad s^-1],w_RS_S_y [rad s^-1],w_RS_S_z [rad s^-1],a_RS_S_x [m s^-2],a_RS_S_y [m s^-2],a_RS_S_z [m s^-2]
1413393212225760500,0.09494591130849153,0.02024581932313422,0.05864306286700947,9.128356708333332,0.10623870833333333,-2.606934458333333
1413393212230760500,0.05864306286700947,0.03560471674068433,0.05166174585903216,9.422556208333333,1.1604535833333331,-2.623278875
1413393212235760500,-0.01117010721276371,0.027925268031909273,0.06981317007977318,9.398039583333333,1.61809725,-2.705000958333333
1413393212240760500,-0.07260569688296412,0.033510321638291124,0.06981317007977318,9.496106083333332,0.6701210833333332,-2.8194118749999997
1413393212245760500,-0.09215338450530061,0.03630284844148206,0.07888888219014369,8.989429166666666,-0.13075533333333333,-2.7131731666666665
1413393212250760500,-0.05864306286700947,0.024434609527920613,0.10053096491487339,9.177389958333332,-0.8907707083333333,-2.582417833333333
1413393212255760500,-0.005585053606381855,0.009075712110370514,0.11379546723003027,9.299973083333333,-1.2340034583333332,-2.476179125
1413393212260760500,0.03700098014227979,0.013264502315156905,0.10053096491487339,9.586000375,-0.8172208333333333,-2.7458620000000002
1413393212265760500,0.0614355896702004,0.023736477827122883,0.09145525280450287,9.275456458333332,0.07354987499999999,-2.582417833333333
1413393212270760500,0.04468042885105484,0.017453292519943295,0.0767944870877505,9.536967125,0.4985047083333333,-2.6886565416666666
1413393212275760500,0.009773843811168246,0.028623399732707,0.060039326268604934,9.471589458333332,0.4004382083333333,-2.606934458333333
1413393212280760500,-0.01884955592153876,0.029321531433504733,0.07190756518216637,9.496106083333332,0.220649625,-2.9256505833333333
1413393212285760500,-0.032114058236695664,0.04258603374866164,0.08656833089891874,9.332661916666666,0.122583125,-2.705000958333333
1413393212290760500,-0.04328416544945937,0.023038346126325153,0.08447393579652555,9.398039583333333,-0.04903325,-2.8194118749999997
1413393212295760500,-0.0307177948351002,0.041887902047863905,0.09494591130849153,9.659550249999999,-0.3759215833333333,-2.9174783749999995
1413393212300760500,-0.01117010721276371,0.041887902047863905,0.09354964790689606,9.1201845,-0.43312704166666666,-2.4925235416666665
1413393212305760500,-0.0006981317007977319,0.024434609527920613,0.07749261878854824,9.291800875,-0.4903325,-2.59876225
1413393212310760500,0.020943951023931952,0.014660765716752367,0.07120943348136866,9.242767624999999,-0.4004382083333333,-2.5252123749999997
1413393212315760500,0.032812189937493394,0.008377580409572781,0.07539822368615504,9.447072833333333,-0.0980665,-2.655967708333333
1413393212320760500,0.02652900463031381,0.0013962634015954637,0.08936085770210968,9.496106083333332,0.269682875,-2.69682875
1413393212325760500,0.006283185307179587,0.01117010721276371,0.09773843811168245,9.447072833333333,0.44129925,-2.7376897916666665
1413393212330760500,-0.011868238913561441,0.027925268031909273,0.10122909661567112,9.7085835,0.2533384583333333,-2.8439284999999996
1413393212335760500,-0.028623399732707,0.03700098014227979,0.09145525280450287,9.757616749999999,0.0,-2.8684451249999996
1413393212340760500,-0.028623399732707,0.041887902047863905,0.07749261878854824,9.586000375,-0.17161637500000002,-2.754034208333333
1413393212345760500,-0.01815142422074103,0.04817108735504349,0.07051130178057091,9.324489708333333,-0.48216029166666663,-2.5006957499999998
1413393212350760500,0.005585053606381855,0.02583087292951608,0.0767944870877505,9.079323458333333,-0.5148491249999999,-2.3699404166666667
1413393212355760500,0.020943951023931952,0.016755160819145562,0.0879645943005142,9.201906583333333,-0.17978858333333333,-2.574245625
1413393212360760500,0.02234021442552742,0.008377580409572781,0.09075712110370514,9.283628666666665,0.057205458333333334,-2.6151066666666667
1413393212365760500,0.009075712110370514,0.005585053606381855,0.08307767239493008,9.487933875,0.13892754166666665,-2.7867230416666664
1413393212370760500,-0.006444794125854969,0.02596801519393921,0.0768328532576561,9.786042213439941,0.1977231651544571,-2.9536852836608887
1413393212375760500,-0.019093569368124008,0.04271066188812256,0.06745919585227966,9.527843475341797,0.03325824439525604,-2.8242931365966797
1413393212380760500,-0.02797717973589897,0.030161529779434204,0.07092727720737457,9.348583221435547,-0.1579289585351944,-2.662222385406494
1413393212385760500,-0.016467075794935226,0.05143783986568451,0.07531221956014633,9.437156677246094,-0.30233821272850037,-2.670668363571167
1413393212390760500,0.00356899481266737,0.0334533154964447,0.08778877556324005,8.833216667175293,-0.18751579523086548,-2.3940846920013428
1413393212395760500,-0.0021231742575764656,0.001702621579170227,0.09970737248659134,9.232260704040527,0.14622724056243896,-2.5400032997131348
1413393212400760500,-0.011771944351494312,0.017519474029541016,0.0908554270863533,9.73890495300293,-0.029526486992836,-2.7668206691741943
1413393212405760500,-0.013960120268166065,0.029607310891151428,0.08476819843053818,9.607562065124512,-0.24123094975948334,-2.949079751968384
1413393212410760500,-0.010196459479629993,0.01819095015525818,0.0793740376830101,9.191642761230469,-0.22246797382831573,-2.6436991691589355
1413393212415760500,-0.001741481013596058,0.02311520278453827,0.07702767848968506,9.786613464355469,-0.3379393517971039,-2.87363862991333
1413393212420760500,0.014311629347503185,0.050689443945884705,0.08246155828237534,9.26693058013916,-0.14385533332824707,-2.563420534133911
1413393212425760500,0.01990460231900215,0.02604113519191742,0.09970700740814209,8.995253562927246,0.10902458429336548,-2.548618793487549
1413393212430760500,0.0019311187788844109,0.004289209842681885,0.0956120416522026,9.435381889343262,0.3312528133392334,-2.752403497695923
1413393212435760500,-0.01965009793639183,0.014987736940383911,0.09021095931529999,9.47142219543457,0.2680606544017792,-2.6882541179656982
1413393212440760500,-0.0364641509950161,0.018999025225639343,0.08887225389480591,9.451895713806152,-0.11830685287714005,-2.720959424972534
1413393212445760500,-0.0333130769431591,0.023782476782798767,0.07324308902025223,9.404196739196777,-0.5518124103546143,-2.7174556255340576
1413393212450760500,-0.0092019559815526,0.026849105954170227,0.07421578466892242,9.478778839111328,-0.484643816947937,-2.6770849227905273
1413393212455760500,0.02247365191578865,0.027972370386123657,0.08498229086399078,9.532912254333496,-0.22997398674488068,-2.6935644149780273
1413393212460760500,0.028468910604715347,0.03916934132575989,0.08871734142303467,9.380929946899414,-0.08388958871364594,-2.595526933670044
1413393212465760500,0.020794976502656937,0.03306448459625244,0.08025965839624405,9.314242362976074,0.2719179093837738,-2.671342134475708
1413393212470760500,4.82974573969841e-05,0.029392912983894348,0.0867612212896347,9.208202362060547,0.471198171377182,-2.515749216079712
1413393212475760500,-0.02265108749270439,0.009375467896461487,0.08997786045074463,9.380416870117188,0.1387130618095398,-2.6624855995178223
1413393212480760500,-0.03817453607916832,0.012719139456748962,0.08270193636417389,9.59105396270752,-0.18147827684879303,-2.8026862144470215
1413393212485760500,-0.027929048985242844,0.025328293442726135,0.08296439051628113,9.414209365844727,-0.2551760673522949,-2.6865341663360596
1413393212490760500,-0.013719272799789906,0.01926201581954956,0.08517908304929733,9.405516624450684,-0.17439399659633636,-2.815861701965332
1413393212495760500,-0.0007986398413777351,0.025652214884757996,0.08298105746507645,9.484003067016602,-0.24313227832317352,-2.619441509246826
1413393212500760500,0.015242042951285839,0.026016950607299805,0.07470583915710449,9.64791488647461,-0.2423407882452011,-2.7342424392700195
1413393212505760500,0.010456192307174206,0.03231725096702576,0.06833147257566452,9.274879455566406,-0.04183868318796158,-2.653043746948242
1413393212510760500,0.008148985914885998,0.019288375973701477,0.07368752360343933,9.00368881225586,-0.08708066493272781,-2.5259337425231934
1413393212515760500,0.007451253943145275,0.0027488917112350464,0.09345246106386185,9.24050521850586,-0.042687125504016876,-2.6147077083587646
1413393212520760500,-0.005903479643166065,0.016407787799835205,0.08693791925907135,9.65213394165039,0.21130964159965515,-2.6609272956848145
1413393212525760500,-0.01788310334086418,0.03475606441497803,0.10044290125370026,9.477890968322754,0.3771466612815857,-2.736847162246704
1413393212530760500,-0.03094935044646263,0.022250846028327942,0.09262727946043015,9.322126388549805,-0.025131525471806526,-2.686497688293457
1413393212535760500,-0.027230139821767807,0.031151816248893738,0.08116959035396576,9.485323905944824,-0.46238189935684204,-2.708616256713867
1413393212540760500,-0.010233861394226551,0.03391642868518829,0.0689920037984848,9.32243537902832,-0.42024514079093933,-2.6386375427246094
1413393212545760500,0.010414141230285168,0.03306499123573303,0.07356489449739456,9.35561466217041,-0.4719519317150116,-2.6287312507629395
1413393212550760500,0.023312795907258987,0.02672937512397766,0.08330930024385452,9.208744049072266,-0.24521760642528534,-2.5731594562530518
1413393212555760500,0.024470631033182144,0.014628618955612183,0.10107412934303284,9.265207290649414,0.24231676757335663,-2.5983195304870605
1413393212560760500,0.0008194921538233757,0.01410229504108429,0.09985888749361038,9.534667015075684,0.6522204279899597,-2.78383469581604
1413393212565760500,-0.029579591006040573,0.03078475594520569,0.0876258984208107,9.536308288574219,0.4025093913078308,-2.7421560287475586
1413393212570760500,-0.04292885586619377,0.03886015713214874,0.0741395503282547,9.404170989990234,-0.1529092788696289,-2.751659631729126
1413393212575760500,-0.027301978319883347,0.0283767431974411,0.07223718613386154,9.476577758789062,-0.5070130228996277,-2.661983013153076
1413393212580760500,-0.005637389607727528,0.039484620094299316,0.07187521457672119,9.55179500579834,-0.5326929688453674,-2.693568468093872
1413393212585760500,0.016527343541383743,0.03372965753078461,0.08299793303012848,9.104153633117676,-0.34991028904914856,-2.466282844543457
1413393212590760500,0.02632804587483406,0.017023548483848572,0.09044114500284195,9.46859073638916,0.03329417109489441,-2.696101188659668
1413393212595760500,0.01884712651371956,0.025927096605300903,0.09913720190525055,9.453362464904785,0.3804887533187866,-2.5720198154449463
1413393212600760500,-0.01326791662722826,0.013476774096488953,0.08899164944887161,9.388644218444824,0.5112858414649963,-2.712395668029785
1413393212605760500,-0.03434815630316734,0.02019841969013214,0.07456476241350174,9.616714477539062,-0.04773104935884476,-2.7420926094055176
1413393212610760500,-0.03022412583231926,0.026862919330596924,0.06888734549283981,9.560224533081055,-0.3937973976135254,-2.734637498855591
1413393212615760500,-0.007910248823463917,0.022159159183502197,0.07196493446826935,9.338166236877441,-0.6009334325790405,-2.5133347511291504
1413393212620760500,0.012079763226211071,0.02157452702522278,0.07625043392181396,9.307012557983398,-0.2890401780605316,-2.4651496410369873
1413393212625760500,0.021217603236436844,0.029484540224075317,0.08789714425802231,9.234715461730957,0.02488977089524269,-2.5900979042053223
1413393212630760500,0.012413072399795055,0.021842464804649353,0.0962289348244667,9.419266700744629,0.31738099455833435,-2.6717894077301025
1413393212635760500,-0.01020949799567461,0.023886680603027344,0.09162312000989914,9.543001174926758,0.38988178968429565,-2.7686378955841064
1413393212640760500,-0.03286149725317955,0.02737981081008911,0.07588385045528412,9.243731498718262,0.1986665278673172,-2.744626760482788
1413393212645760500,-0.03316837176680565,0.021277189254760742,0.07782133668661118,9.143065452575684,-0.21204395592212677,-2.6543400287628174
1413393212650760500,-0.020663436502218246,0.019840389490127563,0.07977292686700821,9.493180274963379,-0.6898630857467651,-2.6269471645355225
1413393212655760500,0.007873582653701305,0.022249728441238403,0.08639615029096603,9.419736862182617,-0.5581108927726746,-2.6765859127044678
1413393212660760500,0.02301715686917305,0.030637294054031372,0.08780482411384583,9.288643836975098,-0.06708283722400665,-2.7360575199127197
1413393212665760500,0.020523983985185623,0.030362427234649658,0.09696558117866516,9.30723762512207,0.21006661653518677,-2.7282867431640625
1413393212670760500,-0.002066296525299549,0.02941840887069702,0.08399475365877151,9.510749816894531,0.30878880620002747,-2.8177735805511475
1413393212675760500,-0.020121362060308456,0.031461358070373535,0.07445042580366135,9.436358451843262,0.30209383368492126,-2.7519493103027344
1413393212680760500,-0.03373172506690025,0.032440945506095886,0.07442228496074677,9.348478317260742,-0.02525915764272213,-2.776116371154785
1413393212685760500,-0.030324246734380722,0.021855831146240234,0.08663970232009888,9.054130554199219,-0.32909145951271057,-2.5723116397857666
1413393212690760500,-0.013307598419487476,0.016792461276054382,0.0898076668381691,9.385971069335938,-0.6388918161392212,-2.611625909805298
1413393212695760500,0.010377275757491589,0.020387396216392517,0.0885072648525238,9.477994918823242,-0.3609429597854614,-2.7256875038146973
1413393212700760500,0.022861618548631668,0.025229737162590027,0.08873427659273148,9.452737808227539,-0.08939146995544434,-2.75217604637146
1413393212705760500,0.017754901200532913,0.02479293942451477,0.08535518497228622,9.353818893432617,0.2440154105424881,-2.794079542160034
1413393212710760500,-0.001960170455276966,0.028783202171325684,0.0738239511847496,9.51138687133789,0.23604443669319153,-2.8088948726654053
1413393212715760500,-0.02021738514304161,0.03630596399307251,0.07517095655202866,9.340503692626953,0.2829345166683197,-2.6465673446655273
1413393212720760500,-0.023969735950231552,0.0317031592130661,0.08514268696308136,9.266000747680664,-0.10090399533510208,-2.6045982837677
1413393212725760500,-0.020720314234495163,0.024592533707618713,0.0911305770277977,9.306724548339844,-0.3058267831802368,-2.546454668045044
1413393212730760500,-0.007447388954460621,0.019454017281532288,0.0900600478053093,9.32974624633789,-0.32923853397369385,-2.5223147869110107
1413393212735760500,0.00395220797508955,0.019089490175247192,0.09028634428977966,9.412729263305664,-0.14014598727226257,-2.597219944000244
1413393212740760500,0.004125612787902355,0.01587766408920288,0.07866984605789185,9.4630765914917,-0.048224929720163345,-2.645291566848755
1413393212745760500,0.0026481030508875847,0.019823700189590454,0.07017432898283005,9.624204635620117,0.09152856469154358,-2.801241159439087
1413393212750760500,-0.0027419449761509895,0.029433101415634155,0.06808742880821228,9.478262901306152,0.14567583799362183,-2.7117233276367188
1413393212755760500,-0.0103548439219594,0.0440559983253479,0.0741129070520401,9.520263671875,-0.07623783499002457,-2.661850690841675
1413393212760760500,-0.009538394398987293,0.03228171169757843,0.08566141128540039,9.225302696228027,-0.23816794157028198,-2.489295244216919
1413393212765760500,-0.004722190089523792,0.022294089198112488,0.0885232463479042,9.38724422454834,-0.08738382905721664,-2.595845937728882
1413393212770760500,-0.008106199093163013,0.017401471734046936,0.09577584266662598,9.4362211227417,0.10850267112255096,-2.694054126739502
1413393212775760500,-0.013901871629059315,0.02053755521774292,0.0875517725944519,9.421537399291992,-0.19357317686080933,-2.6549675464630127
1413393212780760500,-0.012809854932129383,0.0178835391998291,0.0811878889799118,9.526735305786133,-0.25865790247917175,-2.834770917892456
1413393212785760500,-0.009623032994568348,0.028100892901420593,0.07360786944627762,9.600095748901367,-0.11455997824668884,-2.8413279056549072
1413393212790760500,-0.0022273333743214607,0.030029520392417908,0.08304034918546677,9.403075218200684,-0.19569063186645508,-2.7762985229492188
1413393212795760500,0.0054180799052119255,0.03438973426818848,0.08240801841020584,9.241507530212402,-0.27868977189064026,-2.5224833488464355
1413393212800760500,0.010571408085525036,0.018303900957107544,0.08732698857784271,9.330987930297852,-0.06885507702827454,-2.563972234725952
1413393212805760500,0.008429843001067638,0.02155385911464691,0.09431921690702438,9.419546127319336,0.2880447506904602,-2.679112195968628
1413393212810760500,-0.005416822619736195,0.016116932034492493,0.09734656661748886,9.282182693481445,0.2169114053249359,-2.6054270267486572
1413393212815760500,-0.022159036248922348,0.02130986750125885,0.08208741992712021,9.323880195617676,-0.08769195526838303,-2.704629898071289
1413393212820760500,-0.02225853130221367,0.01489374041557312,0.0831027552485466,9.606942176818848,-0.18773221969604492,-2.9321255683898926
1413393212825760500,-0.013331321068108082,0.03222505748271942,0.0811406746506691,9.558753967285156,-0.17347998917102814,-2.751002550125122
1413393212830760500,-0.0062646688893437386,0.03361049294471741,0.08510475605726242,9.493730545043945,-0.3829669654369354,-2.6775598526000977
1413393212835760500,0.008276867680251598,0.04354475438594818,0.07755567133426666,9.396275520324707,-0.23717784881591797,-2.6693837642669678
1413393212840760500,0.013847324065864086,0.032903075218200684,0.08120457828044891,9.315008163452148,0.02056402899324894,-2.53961443901062
1413393212845760500,0.009234744124114513,0.028530344367027283,0.08813256770372391,9.460897445678711,0.28984034061431885,-2.69520902633667
1413393212850760500,-0.007554200477898121,0.014099091291427612,0.08201563358306885,9.144318580627441,0.17899084091186523,-2.532684803009033
1413393212855760500,-0.020759861916303635,0.017902523279190063,0.07636494189500809,9.493555068969727,0.06353376060724258,-2.8671295642852783
1413393212860760500,-0.027008023113012314,0.0212785005569458,0.08038106560707092,9.315052032470703,-0.11764241009950638,-2.653258800506592
1413393212865760500,-0.016776245087385178,0.024026572704315186,0.08295440673828125,9.526288032531738,-0.3026464879512787,-2.678140878677368
1413393212870760500,-0.005661693401634693,0.03152710199356079,0.08449851721525192,9.501839637756348,-0.3731746971607208,-2.6442253589630127
1413393212875760500,0.006308513693511486,0.029414966702461243,0.07988094538450241,9.592107772827148,-0.21415849030017853,-2.677367687225342
1413393212880760500,0.01365098636597395,0.033492714166641235,0.0839042216539383,9.28122329711914,0.06299286335706711,-2.580660820007324
1413393212885760500,0.005556183867156506,0.03010198473930359,0.07843698561191559,9.193084716796875,0.21404480934143066,-2.6141350269317627
1413393212890760500,-0.010189679451286793,0.00784476101398468,0.0785842016339302,9.120854377746582,0.0899350717663765,-2.451416015625
1413393212895760500,-0.02004469558596611,0.016257137060165405,0.08050324767827988,9.7293119430542,0.01140932273119688,-2.882136583328247
1413393212900760500,-0.019971083849668503,0.03381045162677765,0.0886731967329979,9.307168960571289,-0.18168388307094574,-2.5387251377105713
1413393212905760500,-0.01947295293211937,0.016465947031974792,0.08848113566637039,9.257049560546875,-0.37463808059692383,-2.776604175567627
1413393212910760500,-0.004949030466377735,0.021667033433914185,0.07770498842000961,9.56767463684082,-0.3609543442726135,-2.6356728076934814
1413393212915760500,0.01093434076756239,0.03199872374534607,0.0770406499505043,9.74681568145752,-0.1575174480676651,-2.768289089202881
1413393212920760500,0.012504029087722301,0.04495282471179962,0.07847866415977478,9.339982032775879,0.2516598701477051,-2.5965380668640137
1413393212925760500,-0.003717404790222645,0.026800215244293213,0.07577153295278549,9.144474029541016,0.14890225231647491,-2.6153111457824707
1413393212930760500,-0.008978438563644886,0.018704786896705627,0.08808935433626175,9.233777046203613,-0.1152026578783989,-2.525320053100586
1413393212935760500,-0.013609793968498707,0.006948739290237427,0.09071751683950424,9.557517051696777,-0.06866785883903503,-2.7671656608581543
1413393212940760500,-0.008998882956802845,0.02498483657836914,0.09959123283624649,9.378873825073242,-0.12417526543140411,-2.7183971405029297
1413393212945760500,-0.011000451631844044,0.019403785467147827,0.08472143113613129,9.144184112548828,-0.2870253622531891,-2.6135497093200684
1413393212950760500,0.00399209838360548,0.018769189715385437,0.09027796983718872,9.533896446228027,-0.28862208127975464,-2.709825277328491
1413393212955760500,0.009912329725921154,0.02845461666584015,0.08135536313056946,9.819252014160156,0.1282510757446289,-2.929959535598755
1413393212960760500,0.0005533872172236443,0.04219210147857666,0.0782853215932846,9.389802932739258,0.3333568274974823,-2.784640073776245
1413393212965760500,-0.015182134695351124,0.036548227071762085,0.06507173925638199,9.192151069641113,0.008789519779384136,-2.721600294113159
1413393212970760500,-0.011858013458549976,0.028470635414123535,0.07624722272157669,9.16848087310791,-0.15569424629211426,-2.4664127826690674
1413393212975760500,-0.010359150357544422,0.01237940788269043,0.08860783278942108,9.346490859985352,-0.10845557600259781,-2.6695809364318848
1413393212980760500,-0.01301227230578661,0.020931512117385864,0.0895635113120079,9.404791831970215,-0.02787136659026146,-2.589113712310791
1413393212985760500,-0.011710521765053272,0.014569640159606934,0.08889002352952957,9.36481761932373,-0.285895973443985,-2.669297456741333
1413393212990760500,0.002510759048163891,0.02090597152709961,0.0859019085764885,9.509307861328125,-0.2870389521121979,-2.646148204803467
1413393212995760500,0.00235824566334486,0.030008450150489807,0.07489294558763504,9.697123527526855,0.055602800101041794,-2.8325867652893066
1413393213000760500,-0.0038597704842686653,0.03329832851886749,0.0673040822148323,9.301386833190918,0.34931719303131104,-2.75997257232666
1413393213005760500,-0.01633642241358757,0.03356252610683441,0.07008884102106094,9.28060531616211,-0.016878124326467514,-2.7448887825012207
1413393213010760500,-0.01216184813529253,0.03335772454738617,0.07966884970664978,9.18380069732666,-0.22070200741291046,-2.4493160247802734
1413393213015760500,-0.0026536108925938606,0.02289995551109314,0.09057708829641342,9.323634147644043,-0.19034120440483093,-2.564059257507324
1413393213020760500,-0.0047873230651021,0.015002533793449402,0.09559930115938187,9.298413276672363,-0.07451904565095901,-2.646423101425171
1413393213025760500,-0.004122150130569935,0.015132516622543335,0.09933014959096909,9.42049503326416,-0.3257923126220703,-2.6524617671966553
1413393213030760500,0.0012682108208537102,0.018407732248306274,0.09095265716314316,9.582807540893555,-0.16634197533130646,-2.653942108154297
1413393213035760500,0.0020915744826197624,0.02529454231262207,0.07572086155414581,9.559226989746094,0.20209184288978577,-2.784022569656372
1413393213040760500,-0.010199916549026966,0.02900555729866028,0.0716562420129776,9.439654350280762,0.23666302859783173,-2.727405071258545
1413393213045760500,-0.014613387174904346,0.032086461782455444,0.07135431468486786,9.566839218139648,-0.10760946571826935,-2.742964029312134
1413393213050760500,-0.003115263767540455,0.04520106315612793,0.08444327116012573,9.289414405822754,-0.23965513706207275,-2.4581735134124756
1413393213055760500,-0.0017480375245213509,0.027928248047828674,0.0908588394522667,9.005692481994629,-0.17225390672683716,-2.4908671379089355
1413393213060760500,0.0010178117081522942,0.010574162006378174,0.09428244084119797,9.17639446258545,-0.16375254094600677,-2.597804546356201
1413393213065760500,0.004502433352172375,0.017027631402015686,0.09782614558935165,9.542723655700684,-0.12562492489814758,-2.612677574157715
1413393213070760500,0.0026481924578547478,0.01800738275051117,0.08693145960569382,9.673627853393555,0.05459342896938324,-2.718593120574951
1413393213075760500,-0.00757030863314867,0.020734921097755432,0.07789762318134308,9.551483154296875,0.14679735898971558,-2.800408124923706
1413393213080760500,-0.015717577189207077,0.02808891236782074,0.07288725674152374,9.34042739868164,0.048569343984127045,-2.719642400741577
1413393213085760500,-0.013261076994240284,0.03337065875530243,0.07471196353435516,9.460445404052734,-0.09214591234922409,-2.6861844062805176
1413393213090760500,-0.004084122367203236,0.03838953375816345,0.07541491091251373,9.386284828186035,-0.21458913385868073,-2.6369266510009766
1413393213095760500,-0.0009767832234501839,0.032916948199272156,0.08590760082006454,9.112007141113281,-0.1646459698677063,-2.5318455696105957
1413393213100760500,0.006266149692237377,0.01036815345287323,0.09039422869682312,9.063826560974121,-0.1383940577507019,-2.4033050537109375
1413393213105760500,0.006361174397170544,0.009901657700538635,0.10202846676111221,9.583243370056152,0.01354254875332117,-2.6707921028137207
1413393213110760500,-0.010549006052315235,0.01669175922870636,0.08749482780694962,9.584188461303711,0.15238100290298462,-2.743419647216797
1413393213115760500,-0.017041560262441635,0.015222787857055664,0.08051170408725739,9.485285758972168,0.09056563675403595,-2.8088443279266357
1413393213120760500,-0.02143142744898796,0.02453981339931488,0.07485850155353546,9.526265144348145,-0.032694198191165924,-2.8085412979125977
1413393213125760500,-0.013886136002838612,0.03404988348484039,0.0733257308602333,9.550418853759766,-0.22355517745018005,-2.791809558868408
1413393213130760500,-0.009734478779137135,0.043289005756378174,0.07145409286022186,9.461095809936523,-0.2552436888217926,-2.669915199279785
1413393213135760500,0.0038487790152430534,0.0419478714466095,0.07825157791376114,9.226512908935547,-0.3575531244277954,-2.5137887001037598
1413393213140760500,0.009017261676490307,0.028451353311538696,0.08951452374458313,9.006146430969238,-0.09962417930364609,-2.321680784225464
1413393213145760500,0.01098902802914381,0.0014309585094451904,0.0971001610159874,9.46747875213623,0.07006341218948364,-2.6964242458343506
1413393213150760500,-0.000713747926056385,0.019462063908576965,0.08683478087186813,9.609621047973633,0.24311497807502747,-2.75079083442688
1413393213155760500,-0.019694175571203232,0.017435893416404724,0.07915589213371277,9.503150939941406,0.08180053532123566,-2.735487699508667
1413393213160760500,-0.021577712148427963,0.028922274708747864,0.0845373272895813,9.43578815460205,-0.1002965047955513,-2.7267770767211914
1413393213165760500,-0.01789107546210289,0.02787788212299347,0.08727084845304489,9.468259811401367,-0.22345499694347382,-2.750621795654297
1413393213170760500,-0.011659902520477772,0.03195284307003021,0.079905666410923,9.639960289001465,-0.25363558530807495,-2.7022716999053955
1413393213175760500,0.007194819860160351,0.04041105508804321,0.08507750928401947,9.363697052001953,-0.3426428735256195,-2.6531779766082764
1413393213180760500,0.018669892102479935,0.0356510728597641,0.08935600519180298,8.899728775024414,-0.14843633770942688,-2.4756553173065186
1413393213185760500,0.014917868189513683,0.011129319667816162,0.09943494200706482,9.069273948669434,0.19453705847263336,-2.5010366439819336
1413393213190760500,-0.0035954536870121956,0.012198477983474731,0.0904860720038414,9.706564903259277,0.30774644017219543,-2.8158199787139893
1413393213195760500,-0.01746320351958275,0.024426624178886414,0.08958877623081207,9.511251449584961,0.12021905928850174,-2.734072208404541
1413393213200760500,-0.023078035563230515,0.029140889644622803,0.07828833162784576,9.337699890136719,-0.15730731189250946,-2.6380157470703125
1413393213205760500,-0.02288546785712242,0.021740317344665527,0.07397864758968353,9.500909805297852,-0.18221689760684967,-2.7506237030029297
1413393213210760500,-0.014021572656929493,0.02981121838092804,0.0736858919262886,9.64188003540039,-0.28669270873069763,-2.7175304889678955
1413393213215760500,0.002865525893867016,0.04451240599155426,0.08189432322978973,9.338765144348145,-0.3504764437675476,-2.646578550338745
1413393213220760500,0.013980257324874401,0.03176319599151611,0.08451779931783676,8.923723220825195,-0.14740419387817383,-2.499849557876587
1413393213225760500,0.012451696209609509,0.010371536016464233,0.0929267406463623,9.0537748336792,0.21177402138710022,-2.508419990539551
1413393213230760500,0.0016441522166132927,0.009005382657051086,0.08959616720676422,9.745895385742188,0.30082863569259644,-2.8173959255218506
1413393213235760500,-0.014445331878960133,0.026525959372520447,0.08874823153018951,9.650101661682129,0.029917048290371895,-2.7989964485168457
1413393213240760500,-0.021885614842176437,0.028019562363624573,0.08055351674556732,9.22488784790039,-0.14902980625629425,-2.621070146560669
1413393213245760500,-0.02073052152991295,0.02098795771598816,0.07761602848768234,9.434365272521973,-0.06856271624565125,-2.7997119426727295
1413393213250760500,-0.014379647560417652,0.028924450278282166,0.07627380639314651,9.723112106323242,-0.3033353388309479,-2.6840271949768066
1413393213255760500,-0.0010252119973301888,0.03347131609916687,0.07331376522779465,9.543457984924316,-0.30993330478668213,-2.7038657665252686
1413393213260760500,0.012200298719108105,0.04720863699913025,0.0783570408821106,9.03852367401123,-0.19567660987377167,-2.4428958892822266
1413393213265760500,0.009580063633620739,0.01958504319190979,0.0868932381272316,8.883563041687012,0.2034987062215805,-2.4190969467163086
1413393213270760500,7.210951298475266e-05,0.006712138652801514,0.09435155242681503,9.61449909210205,0.15492458641529083,-2.7369368076324463
1413393213275760500,-0.013584238477051258,0.022781938314437866,0.08391451090574265,9.820591926574707,0.013124315068125725,-2.8972573280334473
1413393213280760500,-0.019231121987104416,0.032364025712013245,0.08044258505105972,9.275775909423828,-0.11815804243087769,-2.5874874591827393
1413393213285760500,-0.019130688160657883,0.017674565315246582,0.08112182468175888,9.10892105102539,-0.16499805450439453,-2.604658603668213
1413393213290760500,-0.007801842875778675,0.01634332537651062,0.08471045643091202,9.509753227233887,-0.24618813395500183,-2.6851487159729004
1413393213295760500,0.0013084141537547112,0.022974029183387756,0.08114778250455856,9.633488655090332,-0.31879332661628723,-2.7267701625823975
1413393213300760500,0.009434747509658337,0.05066068470478058,0.07897717505693436,9.461579322814941,-0.13198532164096832,-2.565751314163208
1413393213305760500,0.008088725619018078,0.023954614996910095,0.08871225267648697,8.809098243713379,0.19580811262130737,-2.5327250957489014
1413393213310760500,-0.0012217285111546516,0.008039891719818115,0.10197264701128006,9.43624496459961,0.1708872765302658,-2.670565366744995
1413393213315760500,-0.013648566789925098,0.01751565933227539,0.09042938798666,9.763593673706055,0.012955795042216778,-2.8087031841278076
1413393213320760500,-0.01921878382563591,0.036522939801216125,0.08392519503831863,9.365116119384766,-0.11702147871255875,-2.750812530517578
1413393213325760500,-0.012968060560524464,0.0186193585395813,0.08928675949573517,9.271110534667969,-0.21387840807437897,-2.6041107177734375
1413393213330760500,-0.006237921305000782,0.023323461413383484,0.08047536015510559,9.50907039642334,-0.2542632222175598,-2.71897029876709
1413393213335760500,0.002602892927825451,0.022875279188156128,0.07380907982587814,9.48851490020752,-0.14911070466041565,-2.5960302352905273
1413393213340760500,0.006731736473739147,0.038884907960891724,0.07066121697425842,9.680931091308594,-0.11489497125148773,-2.8345894813537598
1413393213345760500,0.007550853304564953,0.03886920213699341,0.07687588036060333,9.062271118164062,0.13938216865062714,-2.5644829273223877
1413393213350760500,-0.0008270861580967903,0.017852142453193665,0.08457578718662262,8.93177604675293,0.2837572693824768,-2.5333118438720703
1413393213355760500,-0.012203958816826344,0.013109937310218811,0.0880986899137497,9.509891510009766,0.0950736254453659,-2.7282588481903076
1413393213360760500,-0.022724654525518417,0.02805633842945099,0.08542340248823166,9.658649444580078,-0.1729738414287567,-2.7987771034240723
1413393213365760500,-0.013764617033302784,0.02212420105934143,0.08575233072042465,9.215096473693848,-0.37488967180252075,-2.627825975418091
1413393213370760500,-0.007570830173790455,0.017948493361473083,0.07890156656503677,9.328269958496094,-0.19829583168029785,-2.6629462242126465
1413393213375760500,0.005340117029845715,0.022878512740135193,0.08082056045532227,9.496445655822754,-0.09164998680353165,-2.6290719509124756
1413393213380760500,0.0049221692606806755,0.02761225402355194,0.07978639751672745,9.820059776306152,-0.04069117084145546,-2.8744378089904785
1413393213385760500,0.00040361564606428146,0.04371337592601776,0.07605163007974625,9.453452110290527,0.048055313527584076,-2.629103183746338
1413393213390760500,-0.008154836483299732,0.02922743558883667,0.08461517840623856,8.900882720947266,0.21833521127700806,-2.500825881958008
1413393213395760500,-0.013826143927872181,0.010152265429496765,0.09157179296016693,9.265174865722656,-0.041770488023757935,-2.5490362644195557
1413393213400760500,-0.019944947212934494,0.022761523723602295,0.08675359189510345,9.65766429901123,-0.19829393923282623,-2.7590112686157227
1413393213405760500,-0.01382215041667223,0.028515011072158813,0.08532391488552094,9.37198543548584,-0.27082598209381104,-2.635356903076172
1413393213410760500,-0.00494599062949419,0.017586588859558105,0.0825032964348793,9.409642219543457,-0.295003205537796,-2.5803043842315674
1413393213415760500,0.008168834261596203,0.02573467791080475,0.0806279256939888,9.431756019592285,-0.18951481580734253,-2.523967981338501
1413393213420760500,0.004956173710525036,0.01901853084564209,0.08326578885316849,9.519676208496094,-0.007316865958273411,-2.744330644607544
1413393213425760500,0.002344953827559948,0.03811466693878174,0.07412801682949066,9.434850692749023,0.11308746784925461,-2.8169307708740234
1413393213430760500,-0.008664173074066639,0.028183713555336,0.08534311503171921,8.973512649536133,0.17609679698944092,-2.532248020172119
1413393213435760500,-0.010619875974953175,0.01219739019870758,0.09765651077032089,9.313010215759277,-0.01658664643764496,-2.6142382621765137
1413393213440760500,-0.014825877733528614,0.02087271213531494,0.0950515866279602,9.737765312194824,-0.16633321344852448,-2.742483615875244
1413393213445760500,-0.013251704163849354,0.028576716780662537,0.09168403595685959,9.276704788208008,-0.27176350355148315,-2.6520774364471436
1413393213450760500,-0.00015611667186021805,0.013548776507377625,0.09423766285181046,9.141189575195312,-0.30979299545288086,-2.547741413116455
1413393213455760500,0.004803764633834362,0.01736702024936676,0.08205091953277588,9.411678314208984,-0.13987129926681519,-2.6057889461517334
1413393213460760500,0.006171214394271374,0.019609898328781128,0.08332543075084686,9.576936721801758,0.0476534366607666,-2.8579277992248535
1413393213465760500,-0.0027131708338856697,0.03461486101150513,0.07565129548311234,9.57575511932373,0.09659906476736069,-2.695721387863159
1413393213470760500,-0.009009403176605701,0.03670249879360199,0.07426043599843979,9.381267547607422,0.17695429921150208,-2.6698052883148193
1413393213475760500,-0.013879713602364063,0.03262299299240112,0.08454135805368423,9.087874412536621,0.1524960845708847,-2.4425442218780518
1413393213480760500,-0.017593007534742355,0.01991330087184906,0.09269780665636063,9.687054634094238,-0.1659015417098999,-2.768289089202881
1413393213485760500,-0.012757462449371815,0.042402952909469604,0.0835019201040268,9.610942840576172,-0.35334086418151855,-2.63653302192688
1413393213490760500,-0.001803872175514698,0.021435752511024475,0.08515257388353348,9.160711288452148,-0.3251599967479706,-2.5152223110198975
1413393213495760500,0.005793380551040173,0.017504245042800903,0.08027919381856918,9.368748664855957,-0.09942586719989777,-2.760187864303589
1413393213500760500,0.005611586384475231,0.016183465719223022,0.079461969435215,9.317305564880371,-0.0012261889642104506,-2.5802769660949707
1413393213505760500,-0.004047107882797718,0.024085327982902527,0.07551796734333038,9.632043838500977,0.11501742154359818,-2.89190411567688
1413393213510760500,-0.00918405968695879,0.040945395827293396,0.07340497523546219,9.378961563110352,0.20074573159217834,-2.6369800567626953
1413393213515760500,-0.014843282289803028,0.02448083460330963,0.08246711641550064,9.234027862548828,0.09465830773115158,-2.6703319549560547
1413393213520760500,-0.01750398799777031,0.019831568002700806,0.08847042173147202,9.370877265930176,-0.09110266715288162,-2.605394124984741
1413393213525760500,-0.01501621026545763,0.025937184691429138,0.09426253288984299,9.666114807128906,-0.408998966217041,-2.858006477355957
1413393213530760500,-0.008528796024620533,0.0395321249961853,0.08419083803892136,9.170044898986816,-0.384071409702301,-2.4897382259368896
1413393213535760500,0.008702504448592663,0.0008369237184524536,0.09623681008815765,9.172334671020508,-0.2038188874721527,-2.58105206489563
1413393213540760500,0.011907297186553478,0.025061726570129395,0.08478925377130508,9.45357608795166,-0.02483449876308441,-2.652980089187622
1413393213545760500,-0.0015882672742009163,0.018558695912361145,0.0808078721165657,9.341751098632812,0.18704038858413696,-2.6557834148406982
1413393213550760500,-0.01221726555377245,0.031191319227218628,0.07192613184452057,9.728507995605469,0.12766432762145996,-2.9714856147766113
1413393213555760500,-0.015152675099670887,0.033016934990882874,0.07976215332746506,9.226797103881836,0.07018899917602539,-2.538539409637451
1413393213560760500,-0.017173510044813156,0.026090770959854126,0.08864567428827286,9.44455623626709,-0.026557376608252525,-2.776437520980835
1413393213565760500,-0.016505446285009384,0.029979214072227478,0.08664540201425552,9.436334609985352,-0.223333939909935,-2.5393970012664795
1413393213570760500,-0.011472967453300953,0.0318753719329834,0.08179858326911926,9.520332336425781,-0.42502912878990173,-2.7680587768554688
1413393213575760500,0.008198070339858532,0.027321428060531616,0.08944132179021835,9.02839469909668,-0.29239070415496826,-2.4244890213012695
1413393213580760500,0.016596782952547073,0.00909683108329773,0.08879412710666656,9.475653648376465,0.03217235580086708,-2.7697737216949463
1413393213585760500,0.004800873808562756,0.030392736196517944,0.08217543363571167,9.431504249572754,0.09635578095912933,-2.6370232105255127
1413393213590760500,-0.005975109525024891,0.019431278109550476,0.07701139152050018,9.582030296325684,0.10459049046039581,-2.9481289386749268
1413393213595760500,-0.011767026968300343,0.02957242727279663,0.08500207960605621,9.338274955749512,0.19217397272586823,-2.6517319679260254
1413393213600760500,-0.020499687641859055,0.016513824462890625,0.08730277419090271,9.453425407409668,0.012281714007258415,-2.8006319999694824
1413393213605760500,-0.01986781880259514,0.03669147193431854,0.0907500684261322,9.615111351013184,-0.15826483070850372,-2.7444443702697754
1413393213610760500,-0.012733769603073597,0.029794231057167053,0.08884648978710175,9.242626190185547,-0.30976390838623047,-2.6042230129241943
1413393213615760500,-0.0009875418618321419,0.029472067952156067,0.08737592399120331,9.127825736999512,-0.2776476740837097,-2.506512403488159
1413393213620760500,0.008859756402671337,0.006118059158325195,0.08323970437049866,9.345328330993652,-0.2593690752983093,-2.5237090587615967
1413393213625760500,0.009061711840331554,0.02681902050971985,0.0785328820347786,9.797197341918945,0.08830828219652176,-2.8650519847869873
1413393213630760500,-0.00253316480666399,0.026463881134986877,0.07724952697753906,9.194146156311035,0.12085049599409103,-2.6220407485961914
1413393213635760500,-0.011819434352219105,0.015743449330329895,0.0774393156170845,9.394815444946289,0.12850867211818695,-2.7929165363311768
1413393213640760500,-0.013795045204460621,0.02918076515197754,0.08037647604942322,9.258522033691406,-0.07677055895328522,-2.5134918689727783
1413393213645760500,-0.017578300088644028,0.02704744040966034,0.0872240886092186,9.590225219726562,-0.027683278545737267,-2.931779384613037
1413393213650760500,-0.01615169271826744,0.03027781844139099,0.08260246366262436,9.273994445800781,-0.30248191952705383,-2.490734577178955
1413393213655760500,-0.006590721197426319,0.030969083309173584,0.0865432396531105,9.324334144592285,-0.27812403440475464,-2.687103271484375
1413393213660760500,0.00684219878166914,0.0241909921169281,0.08619558066129684,9.126656532287598,-0.24430856108665466,-2.3845252990722656
1413393213665760500,0.007607507519423962,0.015572160482406616,0.08321387320756912,9.655834197998047,-0.023366006091237068,-2.915508270263672
1413393213670760500,0.0027908263728022575,0.033446937799453735,0.08198446780443192,9.341984748840332,0.07903061807155609,-2.5067055225372314
1413393213675760500,-0.006123018451035023,0.014359086751937866,0.07972577959299088,9.370523452758789,0.07152605801820755,-2.769667625427246
1413393213680760500,-0.012256321497261524,0.03341098129749298,0.0790284052491188,9.444350242614746,0.04671094939112663,-2.651399850845337
1413393213685760500,-0.014415633864700794,0.015499532222747803,0.08508048206567764,9.484732627868652,-0.06864303350448608,-3.0212135314941406
1413393213690760500,-0.01166535634547472,0.03849673271179199,0.08944100141525269,9.59222412109375,-0.17565132677555084,-2.595508337020874
1413393213695760500,-0.010604512877762318,0.026605457067489624,0.08394499868154526,9.42914867401123,-0.2522044777870178,-2.7048356533050537
1413393213700760500,0.0010507432743906975,0.03490148484706879,0.08453326672315598,9.28246021270752,-0.22845730185508728,-2.4977610111236572
1413393213705760500,0.006925391964614391,0.0070353299379348755,0.08878366649150848,9.37090015411377,-0.0669204518198967,-2.6550447940826416
1413393213710760500,0.004866230301558971,0.031189098954200745,0.08900578320026398,9.529022216796875,0.1374703347682953,-2.694225788116455
1413393213715760500,-0.008175772614777088,0.015088021755218506,0.08549001812934875,9.201152801513672,0.048988744616508484,-2.500257730484009
1413393213720760500,-0.011742514558136463,0.0245501846075058,0.0816950798034668,9.580586433410645,-0.01991616189479828,-2.8728747367858887
1413393213725760500,-0.008744088001549244,0.023837119340896606,0.08745677024126053,9.226151466369629,-0.10823740065097809,-2.4980077743530273
1413393213730760500,-0.01098835188895464,0.021043583750724792,0.08516570925712585,9.444716453552246,-0.04269034042954445,-2.859110116958618
1413393213735760500,-0.008558523841202259,0.026579543948173523,0.07921355217695236,9.248947143554688,-0.14896686375141144,-2.564408302307129
1413393213740760500,-0.004245412535965443,0.02744022011756897,0.0769684761762619,9.543343544006348,-0.20444229245185852,-2.809878349304199
1413393213745760500,0.007387268356978893,0.029916271567344666,0.08241726458072662,9.094796180725098,-0.05590267479419708,-2.5158700942993164
1413393213750760500,0.0028583286330103874,0.017095938324928284,0.08734022825956345,9.534547805786133,0.09655817598104477,-2.8103907108306885
1413393213755760500,-0.005420860834419727,0.027653202414512634,0.08564697951078415,9.242815017700195,0.15281355381011963,-2.4812567234039307
1413393213760760500,-0.013911214657127857,0.016260147094726562,0.08040682226419449,9.508356094360352,-0.11426674574613571,-2.760279417037964
1413393213765760500,-0.008798358030617237,0.031519532203674316,0.08312465995550156,9.290493965148926,-0.18110516667366028,-2.4891116619110107
1413393213770760500,-0.008357447572052479,0.019772812724113464,0.08320339769124985,9.430044174194336,-0.17340493202209473,-2.7622992992401123
1413393213775760500,-0.008144852705299854,0.03145185112953186,0.07785239815711975,9.452950477600098,-0.08402101695537567,-2.603811740875244
1413393213780760500,-0.005935993976891041,0.020467519760131836,0.07704252749681473,9.331496238708496,-0.163107231259346,-2.6390035152435303
1413393213785760500,0.003959524445235729,0.0341915637254715,0.07604029029607773,9.323179244995117,-0.1790953278541565,-2.653455972671509
1413393213790760500,0.0014782724902033806,0.019046828150749207,0.08443278819322586,9.223716735839844,0.08011504262685776,-2.746410846710205
1413393213795760500,-0.008354810066521168,0.02827577292919159,0.08748418837785721,9.470305442810059,0.21791638433933258,-2.717944860458374
1413393213800760500,-0.01027649361640215,0.025302156805992126,0.08823886513710022,9.322589874267578,-0.12290479242801666,-2.5639030933380127
1413393213805760500,-0.015951376408338547,0.023949578404426575,0.0831131860613823,9.721343040466309,-0.19025373458862305,-2.7671902179718018
1413393213810760500,-0.007495907135307789,0.021786674857139587,0.08797412365674973,9.307669639587402,-0.14010144770145416,-2.58031964302063
1413393213815760500,-0.0027640433982014656,0.02303418517112732,0.0881589874625206,9.525815963745117,-0.19707223773002625,-2.7514820098876953
1413393213820760500,0.0005986420437693596,0.02667580544948578,0.08000560849905014,9.461188316345215,-0.18095198273658752,-2.5476129055023193
1413393213825760500,0.0004876730963587761,0.028884142637252808,0.07748737186193466,9.601414680480957,-0.09086433798074722,-2.8014583587646484
1413393213830760500,0.0007583526894450188,0.034980908036231995,0.07831389456987381,9.250107765197754,0.06340993195772171,-2.5170645713806152
1413393213835760500,-0.011039194650948048,0.01912558078765869,0.08128249645233154,9.340398788452148,0.11999913305044174,-2.572751998901367
1413393213840760500,-0.007462662644684315,0.029474377632141113,0.08672525733709335,9.445740699768066,0.013688872568309307,-2.6286654472351074
1413393213845760500,-0.011931833811104298,0.02331271767616272,0.08261688798666,9.354679107666016,-0.14833557605743408,-2.6873865127563477
1413393213850760500,-0.009604615159332752,0.032267823815345764,0.0864674299955368,9.43626880645752,-0.12481138110160828,-2.7263355255126953
1413393213855760500,-0.0068290503695607185,0.016914576292037964,0.08312822878360748,9.306890487670898,-0.24480682611465454,-2.6628243923187256
1413393213860760500,-0.005100262351334095,0.01883961260318756,0.07498076558113098,9.590913772583008,-0.19677448272705078,-2.8488521575927734
1413393213865760500,0.004916059784591198,0.02466142177581787,0.07642995566129684,9.363848686218262,-0.07396675646305084,-2.6705644130706787
1413393213870760500,0.007451820187270641,0.025485172867774963,0.08173012733459473,9.32300090789795,0.15362957119941711,-2.6704530715942383
1413393213875760500,-0.004879188723862171,0.021797075867652893,0.08188899606466293,9.355170249938965,0.16906800866127014,-2.589542865753174
1413393213880760500,-0.014429536648094654,0.016117066144943237,0.08590447902679443,9.41269302368164,0.06386730074882507,-2.7350242137908936
1413393213885760500,-0.015168321318924427,0.02106383442878723,0.09146077185869217,9.290205955505371,-0.16509997844696045,-2.572746992111206
1413393213890760500,-0.011254903860390186,0.015562370419502258,0.09234616905450821,9.28154468536377,-0.18075278401374817,-2.653818368911743
1413393213895760500,-0.005250823684036732,0.02309355139732361,0.08674130588769913,9.420655250549316,-0.30847737193107605,-2.6622188091278076
1413393213900760500,-0.0005838694050908089,0.01402236521244049,0.08742973953485489,9.53406047821045,-0.26336669921875,-2.628875255584717
1413393213905760500,0.008554535917937756,0.023061975836753845,0.07440421730279922,9.763134956359863,-0.253988116979599,-2.759204864501953
1413393213910760500,0.00827722530812025,0.0346844345331192,0.07417530566453934,9.28441047668457,0.1960432231426239,-2.548130750656128
1413393213915760500,0.0013427911326289177,0.01833118498325348,0.08098236471414566,9.411360740661621,0.16858260333538055,-2.8260228633880615
1413393213920760500,-0.01766803488135338,0.022982507944107056,0.0855134055018425,9.43693733215332,0.11048343777656555,-2.612032651901245
1413393213925760500,-0.02028767392039299,0.02314223349094391,0.09281567484140396,9.331940650939941,-0.12291355431079865,-2.5561106204986572
1413393213930760500,-0.020656388252973557,0.028219550848007202,0.08787661790847778,9.232117652893066,-0.2786230146884918,-2.662221908569336
1413393213935760500,-0.006308657117187977,0.0161590576171875,0.08883506804704666,9.321955680847168,-0.4328044056892395,-2.6862640380859375
1413393213940760500,0.00807006936520338,0.01044723391532898,0.08957438915967941,9.371736526489258,-0.3100545108318329,-2.6129581928253174
1413393213945760500,0.015131044201552868,0.013367041945457458,0.07921145111322403,9.746085166931152,-0.067191481590271,-2.8001654148101807
1413393213950760500,0.009684192948043346,0.034007325768470764,0.07015475630760193,9.4793119430542,0.283781498670578,-2.7846245765686035
1413393213955760500,-0.003936660476028919,0.010210976004600525,0.0798136442899704,9.087261199951172,0.4549705982208252,-2.490837812423706
1413393213960760500,-0.02131206914782524,0.002662748098373413,0.08123917877674103,9.67333698272705,0.2746574580669403,-2.538543462753296
1413393213965760500,-0.03385854884982109,0.011821627616882324,0.07520612329244614,9.505131721496582,0.12845931947231293,-2.5634191036224365
1413393213970760500,-0.03816911205649376,0.0031593292951583862,0.07547639310359955,9.494373321533203,-0.27766579389572144,-2.5724902153015137
1413393213975760500,-0.025358077138662338,-0.006082385778427124,0.06376656144857407,9.477316856384277,-0.6113529205322266,-2.5461530685424805
1413393213980760500,0.022839952260255814,0.013021767139434814,0.06224294379353523,9.70986270904541,-0.987672746181488,-2.5441696643829346
1413393213985760500,0.06881996989250183,0.013237297534942627,0.06579121202230453,9.616650581359863,-0.5951370000839233,-2.7431740760803223
1413393213990760500,0.08273579180240631,0.03764177858829498,0.08258416503667831,9.370983123779297,0.3393525779247284,-2.817326784133911
1413393213995760500,0.03333981707692146,0.04162652790546417,0.10657764226198196,9.239513397216797,1.570509433746338,-2.9512522220611572
1413393214000760500,-0.05396999046206474,0.049271658062934875,0.13562822341918945,9.320626258850098,1.76783287525177,-2.9840102195739746
1413393214005760500,-0.13021105527877808,0.04891642928123474,0.13083426654338837,8.636737823486328,0.4736593961715698,-2.422549247741699
1413393214010760500,-0.12468431890010834,0.020039454102516174,0.12097898870706558,8.657955169677734,-1.2884894609451294,-2.322883129119873
1413393214015760500,-0.039208125323057175,-0.002555936574935913,0.10605441778898239,9.006523132324219,-2.4792919158935547,-2.4359588623046875
1413393214020760500,0.05524917319417,-0.026346951723098755,0.0713382214307785,9.540281295776367,-1.688449740409851,-2.8727610111236572
1413393214025760500,0.11857786774635315,0.01101808249950409,0.04497939720749855,10.059772491455078,-0.060776326805353165,-2.9334628582000732
1413393214030760500,0.08084945380687714,0.047809258103370667,0.03208977356553078,9.20366096496582,1.2441068887710571,-2.5704705715179443
1413393214035760500,-0.0006832601502537727,0.03857232630252838,0.043651700019836426,9.390252113342285,1.8201990127563477,-2.71889328956604
1413393214040760500,-0.06534112989902496,0.051565468311309814,0.08147595822811127,9.520238876342773,1.0825368165969849,-2.77238392829895
1413393214045760500,-0.09538058936595917,0.04981343448162079,0.10158484429121017,9.527098655700684,0.18351635336875916,-2.890120506286621
1413393214050760500,-0.07776853442192078,0.0536881685256958,0.11271048337221146,9.672868728637695,-0.6828024387359619,-2.8492395877838135
1413393214055760500,-0.03281107172369957,0.06803573668003082,0.10340286791324615,9.243695259094238,-1.4049997329711914,-2.3613884449005127
1413393214060760500,0.021020371466875076,0.014192596077919006,0.09282702952623367,9.08981704711914,-1.1844695806503296,-2.2136685848236084
1413393214065760500,0.0681217759847641,0.01528698205947876,0.08485651761293411,9.431244850158691,-0.3530099391937256,-2.4389939308166504
1413393214070760500,0.06455925107002258,0.005199328064918518,0.08496768772602081,9.559288024902344,0.522907018661499,-2.8032376766204834
1413393214075760500,0.02574704959988594,0.004953294992446899,0.08441191166639328,9.663253784179688,0.9383161664009094,-3.012791633605957
1413393214080760500,-0.018218275159597397,0.027777642011642456,0.07744038105010986,9.494114875793457,0.3759918510913849,-2.6769471168518066
1413393214085760500,-0.055403318256139755,0.0010058432817459106,0.07272803783416748,9.317493438720703,0.013067800551652908,-2.3993072509765625
1413393214090760500,-0.03717989847064018,0.004524946212768555,0.08972922712564468,9.102106094360352,-0.032678864896297455,-2.546050548553467
1413393214095760500,-0.03228059038519859,-0.005255162715911865,0.09692829847335815,9.41659927368164,-0.26873669028282166,-2.7679383754730225
1413393214100760500,-0.021582242101430893,0.009583085775375366,0.09492046386003494,9.73826789855957,-0.3424079120159149,-2.9893758296966553
1413393214105760500,-0.005439949221909046,0.042034223675727844,0.06989864259958267,9.441621780395508,-0.5389935970306396,-2.523707389831543
1413393214110760500,0.011936190538108349,0.03576341271400452,0.058100491762161255,9.146238327026367,-0.5655542612075806,-2.3674075603485107
1413393214115760500,0.028469998389482498,0.02705255150794983,0.07221371680498123,8.653544425964355,-0.09403526782989502,-2.5287840366363525
1413393214120760500,0.029713738709688187,-0.00037829577922821045,0.09538836032152176,9.381790161132812,0.14288488030433655,-2.873879909515381
1413393214125760500,0.012216913513839245,0.04436114430427551,0.08886809647083282,9.964771270751953,0.3376866579055786,-3.1497013568878174
1413393214130760500,-0.0096672298386693,0.06509548425674438,0.07925673574209213,8.968756675720215,0.27641481161117554,-2.5649023056030273
1413393214135760500,-0.03628554567694664,0.023376837372779846,0.05979390814900398,9.299030303955078,-0.23123452067375183,-2.581347703933716
1413393214140760500,-0.04200039431452751,0.029224082827568054,0.07428718358278275,9.032979011535645,0.014258102513849735,-2.597106456756592
1413393214145760500,-0.02723855897784233,0.00818626582622528,0.09968313574790955,9.49995231628418,-0.2362566888332367,-2.8366377353668213
1413393214150760500,-0.016003113240003586,0.04384565353393555,0.09859966486692429,9.94509506225586,-0.466702401638031,-3.021275758743286
1413393214155760500,0.0056382594630122185,0.03897260129451752,0.08771855384111404,9.080955505371094,-0.4794791042804718,-2.4635512828826904
1413393214160760500,0.022300798445940018,0.006743922829627991,0.0783647820353508,9.541479110717773,-0.6348762512207031,-2.643691301345825
1413393214165760500,0.03247718885540962,0.02636943757534027,0.07183978706598282,9.477431297302246,-0.018419340252876282,-2.70808482170105
1413393214170760500,0.03059125319123268,0.01369410753250122,0.10773926228284836,9.192266464233398,0.47099724411964417,-2.6461496353149414
1413393214175760500,0.010245251469314098,0.027330949902534485,0.12215724587440491,9.968425750732422,0.41578131914138794,-3.0770418643951416
1413393214180760500,-0.019284632056951523,0.03962831199169159,0.10390203446149826,9.064902305603027,0.2780754864215851,-2.4669628143310547
1413393214185760500,-0.028615441173315048,0.016184896230697632,0.09020767360925674,9.440460205078125,-0.19781509041786194,-2.4263622760772705
1413393214190760500,-0.03231970593333244,0.026333048939704895,0.06928116083145142,9.569005012512207,-0.20913296937942505,-2.563095808029175
1413393214195760500,-0.020943518728017807,0.009418219327926636,0.08237145841121674,8.89338493347168,0.03927619755268097,-2.4274110794067383
1413393214200760500,-0.002800297923386097,0.013793125748634338,0.09967454522848129,9.553924560546875,-0.13015905022621155,-2.77706241607666
1413393214205760500,-0.0012706192210316658,0.03075520694255829,0.0749555230140686,9.35641860961914,-0.2973178029060364,-2.397758722305298
1413393214210760500,0.008692371658980846,0.018395349383354187,0.06532058864831924,9.375311851501465,-0.2767789363861084,-2.653491258621216
1413393214215760500,0.016145411878824234,0.02046351134777069,0.04933111369609833,9.372396469116211,-0.24379248917102814,-2.538163900375366
1413393214220760500,0.013838070444762707,0.03251384198665619,0.06150464341044426,9.388376235961914,0.23801206052303314,-2.6316113471984863
1413393214225760500,0.005698728375136852,0.02955712378025055,0.09649919718503952,9.428337097167969,0.6732165217399597,-2.8822195529937744
1413393214230760500,-0.020762842148542404,0.03926798701286316,0.09680911898612976,9.493060111999512,0.3235222101211548,-2.790696620941162
1413393214235760500,-0.04311792179942131,0.04346223175525665,0.07282860577106476,9.486305236816406,-0.22932647168636322,-2.833988666534424
1413393214240760500,-0.042673077434301376,0.030784353613853455,0.06384139508008957,9.074272155761719,-0.41883009672164917,-2.4987423419952393
1413393214245760500,-0.028993304818868637,0.020704001188278198,0.05961988493800163,9.50031852722168,-0.5645489692687988,-2.705869197845459
1413393214250760500,-0.0020859213545918465,0.03263302147388458,0.07580303400754929,9.316230773925781,-0.2560722827911377,-2.6700351238250732
1413393214255760500,0.022759024053812027,0.01562771201133728,0.11373212188482285,9.109025955200195,-0.18499836325645447,-2.6520869731903076
1413393214260760500,0.01575319841504097,0.022411823272705078,0.09655538946390152,9.554096221923828,-0.24320223927497864,-2.88419246673584
1413393214265760500,0.002612772397696972,0.02671198546886444,0.06825893372297287,9.49068832397461,-0.231400266289711,-2.677276372909546
1413393214270760500,0.005304056219756603,0.006223350763320923,0.07860387116670609,9.199235916137695,-0.03236796706914902,-2.6326475143432617
1413393214275760500,-0.007553425617516041,0.02039077877998352,0.06901004165410995,9.255958557128906,0.06585828959941864,-2.6869595050811768
1413393214280760500,-0.013199654407799244,0.030812472105026245,0.09702511131763458,9.519630432128906,0.14739198982715607,-2.863097906112671
1413393214285760500,-0.014892724342644215,0.028032079339027405,0.1255497932434082,9.35847282409668,0.07999325543642044,-2.6975088119506836
1413393214290760500,-0.02347176894545555,0.035816892981529236,0.10997786372900009,9.366052627563477,-0.20517770946025848,-2.572035789489746
1413393214295760500,-0.026243355125188828,0.02856948971748352,0.0725654736161232,9.366985321044922,-0.41919413208961487,-2.4989824295043945
1413393214300760500,-0.005724367685616016,0.02248626947402954,0.06775016337633133,9.255406379699707,-0.45436421036720276,-2.4984982013702393
1413393214305760500,0.009856867603957653,0.015031173825263977,0.06924719363451004,9.453303337097168,-0.19209621846675873,-2.8068807125091553
1413393214310760500,0.021862734109163284,0.027985095977783203,0.09335578233003616,9.680179595947266,0.04690049588680267,-2.9320266246795654
1413393214315760500,0.02273576334118843,0.04842860996723175,0.11213112622499466,9.263689994812012,0.45733922719955444,-2.8413760662078857
1413393214320760500,0.00041705649346113205,0.032633766531944275,0.09582463651895523,9.014854431152344,0.3265608251094818,-2.426563262939453
1413393214325760500,-0.020570512861013412,0.00622144341468811,0.06897007673978806,9.680802345275879,0.08262328058481216,-2.7001359462738037
1413393214330760500,-0.026091139763593674,0.027878373861312866,0.05871100351214409,9.576517105102539,-0.011335649527609348,-2.667677402496338
1413393214335760500,-0.030855592340230942,0.01934581995010376,0.07020112127065659,9.112628936767578,0.0039243376813828945,-2.574363946914673
1413393214340760500,-0.02170352265238762,0.012119248509407043,0.09465429931879044,9.582060813903809,-0.10345969349145889,-2.77571439743042
1413393214345760500,-0.004274931736290455,0.04533363878726959,0.10645893961191177,9.690274238586426,-0.19565865397453308,-2.6777899265289307
1413393214350760500,0.006972405128180981,0.0441708117723465,0.09053166955709457,9.129429817199707,-0.21165186166763306,-2.3582441806793213
1413393214355760500,0.009313034825026989,0.009331434965133667,0.05856521427631378,9.55020809173584,-0.15936152637004852,-2.6371803283691406
1413393214360760500,0.0006109951063990593,0.01771824061870575,0.04101325944066048,9.600235939025879,-0.13925358653068542,-2.7104508876800537
1413393214365760500,-0.0018319608643651009,0.025125175714492798,0.05728134512901306,9.291335105895996,0.004064527805894613,-2.736320972442627
1413393214370760500,-0.008811396546661854,0.011407032608985901,0.08548659831285477,9.338197708129883,0.1353081911802292,-2.8512821197509766
1413393214375760500,-0.006517884321510792,0.049107491970062256,0.10439075529575348,9.812395095825195,-0.08553273230791092,-2.8731024265289307
1413393214380760500,-0.004730758257210255,0.04819786548614502,0.09847088158130646,8.940143585205078,-0.07503453642129898,-2.466803550720215
1413393214385760500,-0.009176087565720081,0.011879101395606995,0.09120182693004608,8.931352615356445,-0.014651292003691196,-2.4103875160217285
1413393214390760500,-0.020372923463582993,0.006555348634719849,0.065020352602005,9.551717758178711,-0.3070138692855835,-2.6296210289001465
1413393214395760500,-0.016990359872579575,0.015577912330627441,0.06763875484466553,9.493821144104004,-0.2683795094490051,-2.858532667160034
1413393214400760500,-0.006372478790581226,0.02609008550643921,0.0863657221198082,9.174560546875,-0.16255377233028412,-2.7033393383026123
1413393214405760500,0.006412315182387829,0.024308040738105774,0.10957329720258713,9.728585243225098,-0.31756681203842163,-2.9561872482299805
1413393214410760500,0.015214967541396618,0.04735587537288666,0.10331999510526657,9.315114974975586,-0.07090535759925842,-2.5712623596191406
1413393214415760500,0.017934147268533707,0.03246137499809265,0.09187521040439606,9.192030906677246,0.21593181788921356,-2.555812120437622
1413393214420760500,0.0037120161578059196,0.012892916798591614,0.0838131457567215,9.184379577636719,0.16051320731639862,-2.475121021270752
1413393214425760500,-0.019538607448339462,0.009817510843276978,0.06682190299034119,9.746068000793457,-0.0044263205491006374,-2.875431537628174
1413393214430760500,-0.024117153137922287,0.030886679887771606,0.07736670225858688,9.682206153869629,0.0705748125910759,-2.9296927452087402
1413393214435760500,-0.023635204881429672,0.04273076355457306,0.0955834835767746,9.201725959777832,-0.04133838042616844,-2.5808560848236084
1413393214440760500,-0.009152752347290516,0.02933935821056366,0.10191435366868973,9.426078796386719,-0.3107050955295563,-2.7506377696990967
1413393214445760500,0.006177577190101147,0.03294968605041504,0.0907997190952301,9.453713417053223,-0.2616252601146698,-2.609370231628418
1413393214450760500,0.011282715015113354,0.03922232985496521,0.08003559708595276,9.193876266479492,0.0879005640745163,-2.4857006072998047
1413393214455760500,0.000705408863723278,0.0027295202016830444,0.06811875104904175,9.13405704498291,0.024797478690743446,-2.648202896118164
1413393214460760500,-0.008234304375946522,0.0026303082704544067,0.057398829609155655,9.641475677490234,-0.06626886129379272,-2.7989132404327393
1413393214465760500,-0.015157428570091724,0.0343833863735199,0.06983857601881027,9.607694625854492,-0.0038270079530775547,-2.881788492202759
1413393214470760500,-0.010332685895264149,0.032214388251304626,0.0974687710404396,9.052576065063477,0.0473143495619297,-2.4749391078948975
1413393214475760500,-0.013349589891731739,0.023650750517845154,0.10052402317523956,9.534324645996094,-0.05286960303783417,-2.71014404296875
1413393214480760500,-0.004345309920608997,0.036979615688323975,0.09254175424575806,9.529136657714844,-0.07732197642326355,-2.597019672393799
1413393214485760500,-0.005256009288132191,0.030749857425689697,0.08251575380563736,8.97286605834961,-0.03000430203974247,-2.354238748550415
1413393214490760500,-0.008682024665176868,0.004133835434913635,0.0713680163025856,9.53428840637207,-0.14629508554935455,-2.7106049060821533
1413393214495760500,-0.01363296527415514,0.013337582349777222,0.06342466920614243,9.610276222229004,-0.26891952753067017,-2.75787353515625
1413393214500760500,-0.00831597764045,0.03432033956050873,0.06708746403455734,9.62950325012207,-0.2892909049987793,-2.9486782550811768
1413393214505760500,0.0027307746931910515,0.033789992332458496,0.09299378097057343,9.07711124420166,-0.10992727428674698,-2.6288933753967285
1413393214510760500,0.007783818058669567,0.03128163516521454,0.10056056827306747,9.5286283493042,-0.151920348405838,-2.7442355155944824
1413393214515760500,0.011030900292098522,0.03920237720012665,0.09076371043920517,9.42868423461914,0.056305211037397385,-2.6880457401275635
1413393214520760500,0.0021117059513926506,0.02320103347301483,0.08111540228128433,9.11194896697998,0.0949162021279335,-2.483168125152588
1413393214525760500,-0.02137364074587822,0.015580147504806519,0.06904833018779755,9.44351577758789,-0.0522448793053627,-2.7759008407592773
1413393214530760500,-0.02396976575255394,0.009144172072410583,0.07706256210803986,9.39593505859375,-0.1535881757736206,-2.734447479248047
1413393214535760500,-0.016893308609724045,0.03534881770610809,0.09068614989519119,9.615228652954102,-0.14659371972084045,-2.83315110206604
1413393214540760500,-0.011546340771019459,0.028724372386932373,0.10160768777132034,9.06103801727295,-0.2230813056230545,-2.573395013809204
1413393214545760500,0.008404511027038097,0.02495744824409485,0.10484666377305984,9.51076889038086,-0.3357563316822052,-2.7266249656677246
1413393214550760500,0.019335109740495682,0.035149216651916504,0.0984114408493042,9.412660598754883,-0.04852809011936188,-2.6472697257995605
1413393214555760500,0.012693124823272228,0.025184184312820435,0.08544398099184036,9.135430335998535,0.1351662427186966,-2.474287509918213
1413393214560760500,-0.004701984114944935,0.012811437249183655,0.0721307024359703,9.426629066467285,0.06951842457056046,-2.7179107666015625
1413393214565760500,-0.014792335219681263,0.011252418160438538,0.08040638267993927,9.552122116088867,0.015661465004086494,-2.7917723655700684
1413393214570760500,-0.019740145653486252,0.04296283423900604,0.08571065217256546,9.47819995880127,-0.05921262130141258,-2.6711344718933105
1413393214575760500,-0.020935069769620895,0.020646199584007263,0.09116831421852112,9.183345794677734,-0.11803479492664337,-2.5821871757507324
1413393214580760500,-0.0023247869685292244,0.03473652899265289,0.09254457801580429,9.70848560333252,-0.22218145430088043,-2.7009146213531494
1413393214585760500,0.001191827468574047,0.04268442094326019,0.07863955944776535,9.3723783493042,-0.11421943455934525,-2.6389331817626953
1413393214590760500,-0.0011160047724843025,0.016981661319732666,0.06708232313394547,8.955740928649902,-0.008163847960531712,-2.4419422149658203
1413393214595760500,-0.006192636676132679,0.006582006812095642,0.06617879122495651,9.591423034667969,-0.04904650151729584,-2.6517558097839355
1413393214600760500,-0.010204535908997059,0.013168811798095703,0.06880903989076614,9.53609561920166,-0.04912477359175682,-2.679269313812256
1413393214605760500,-0.0118998559191823,0.030558690428733826,0.08469491451978683,9.52499771118164,-0.1874234974384308,-2.8747477531433105
1413393214610760500,-0.009645712561905384,0.0214451402425766,0.08336053788661957,9.265544891357422,-0.09363631159067154,-2.6628305912017822
1413393214615760500,-0.0028772326186299324,0.03588959574699402,0.09198161214590073,9.675078392028809,-0.1264895796775818,-2.7186129093170166
1413393214620760500,0.0037118373438715935,0.035646721720695496,0.09377558529376984,9.427990913391113,0.007089422084391117,-2.69474720954895
1413393214625760500,-0.00023485440760850906,0.034415826201438904,0.08434317260980606,9.10292911529541,-0.01786208339035511,-2.490520477294922
1413393214630760500,-0.008473587222397327,0.014169454574584961,0.07529772073030472,9.346843719482422,-0.12249722331762314,-2.636439561843872
1413393214635760500,-0.01023626048117876,0.004026919603347778,0.08580910414457321,9.559209823608398,-0.1854596734046936,-2.7034873962402344
1413393214640760500,-0.009300452657043934,0.03538075089454651,0.08075344562530518,9.64078426361084,-0.2607901096343994,-2.8258285522460938
1413393214645760500,-0.005180087871849537,0.027783110737800598,0.08652576059103012,9.069936752319336,-0.17496483027935028,-2.6471316814422607
1413393214650760500,0.002745497040450573,0.01943330466747284,0.09001419693231583,9.460901260375977,-0.0835665687918663,-2.849766254425049
1413393214655760500,0.007774519734084606,0.03202253580093384,0.09174588322639465,9.575695991516113,0.006512890104204416,-2.6369354724884033
1413393214660760500,0.0014392463490366936,0.03566034138202667,0.08221384882926941,9.070331573486328,-0.011547978967428207,-2.475431203842163
1413393214665760500,-0.0057294489815831184,0.014507889747619629,0.07919101417064667,9.102843284606934,0.039452895522117615,-2.5062880516052246
1413393214670760500,-0.013196033425629139,0.012492865324020386,0.07795916497707367,9.568920135498047,-0.032488588243722916,-2.589500665664673
1413393214675760500,-0.013943907804787159,0.021790191531181335,0.08849518746137619,9.606632232666016,-0.1968182921409607,-2.7522056102752686
1413393214680760500,-0.01594720408320427,0.028433308005332947,0.08369610458612442,9.371435165405273,-0.08502688258886337,-2.6462061405181885
1413393214685760500,-0.00686859805136919,0.035717979073524475,0.08736316114664078,9.503946304321289,-0.0747874528169632,-2.8091695308685303
1413393214690760500,0.005018684081733227,0.03699834644794464,0.09570952504873276,9.330582618713379,-0.11458013206720352,-2.605211019515991
1413393214695760500,0.008996027521789074,0.03278997540473938,0.09098450839519501,9.255939483642578,-0.03494512662291527,-2.4977874755859375
1413393214700760500,-0.0021629156544804573,0.022723019123077393,0.07814054191112518,9.242744445800781,0.09649188071489334,-2.5639607906341553
1413393214705760500,-0.002840963192284107,0.018296316266059875,0.08180946856737137,9.323123931884766,0.031392842531204224,-2.6392648220062256
1413393214710760500,-0.011749115772545338,0.011022046208381653,0.08926549553871155,9.572918891906738,-0.0988776683807373,-2.825216770172119
1413393214715760500,-0.016649600118398666,0.027286171913146973,0.08049753308296204,9.527372360229492,-0.07600739598274231,-2.670337438583374
1413393214720760500,-0.02128998562693596,0.027788370847702026,0.07335034757852554,9.414090156555176,-0.06705713272094727,-2.809316635131836
1413393214725760500,-0.004353073425590992,0.03198091685771942,0.08799148350954056,9.429303169250488,-0.130985289812088,-2.6127607822418213
1413393214730760500,0.0029633669182658195,0.03407751023769379,0.09022117406129837,9.443628311157227,-0.1635342240333557,-2.7193374633789062
1413393214735760500,-0.003702920861542225,0.025106504559516907,0.0743308812379837,9.298588752746582,-0.04151829332113266,-2.514319658279419
1413393214740760500,-0.0049703242257237434,0.017718255519866943,0.07426021993160248,9.511333465576172,-0.040877796709537506,-2.6790060997009277
1413393214745760500,-3.523845225572586e-05,0.025077417492866516,0.08041620254516602,9.266773223876953,-0.18784509599208832,-2.564506769180298
1413393214750760500,-0.008313176222145557,0.020958945155143738,0.07668662071228027,9.37751579284668,-0.14837996661663055,-2.8101601600646973
1413393214755760500,-0.016568224877119064,0.02345716953277588,0.07417739927768707,9.56833553314209,-0.010741885751485825,-2.775932788848877
1413393214760760500,-0.002580908127129078,0.03456920385360718,0.09160028398036957,9.455818176269531,0.020805565640330315,-2.696068525314331
1413393214765760500,0.0005587069317698479,0.03380464017391205,0.09699147939682007,9.16637134552002,-0.09067245572805405,-2.531240224838257
1413393214770760500,-0.005497303791344166,0.023881390690803528,0.08930598944425583,9.240219116210938,-0.09735427051782608,-2.6367075443267822
1413393214775760500,-0.008013543672859669,0.016011416912078857,0.08145944774150848,9.372818946838379,0.005964980460703373,-2.588838815689087
1413393214780760500,0.0015658168122172356,0.01592092216014862,0.09452538937330246,9.46015739440918,-0.10624728351831436,-2.5972180366516113
1413393214785760500,-0.003698688931763172,0.021164849400520325,0.08663986623287201,9.240964889526367,-0.20289713144302368,-2.6465532779693604
1413393214790760500,-0.008248058147728443,0.017076298594474792,0.07562950998544693,9.519050598144531,-0.08491326868534088,-2.743795871734619
1413393214795760500,-0.005990487523376942,0.030218690633773804,0.08184351027011871,9.543315887451172,0.037174805998802185,-2.785266876220703
1413393214800760500,-0.0004811407998204231,0.03593970835208893,0.10174857825040817,9.478363037109375,0.05562148988246918,-2.628669500350952
1413393214805760500,-0.004303616471588612,0.035876065492630005,0.08745236694812775,9.305679321289062,-0.043001092970371246,-2.6124556064605713
1413393214810760500,-0.01249146182090044,0.027225539088249207,0.07722464203834534,9.249161720275879,-0.05138972029089928,-2.5478036403656006
1413393214815760500,-0.00901311356574297,0.01804579794406891,0.07978198677301407,9.420586585998535,-0.1305571347475052,-2.710692882537842
1413393214820760500,-0.01000091154128313,0.023005560040473938,0.08176817744970322,9.37234878540039,-0.19591829180717468,-2.5887715816497803
1413393214825760500,-0.0124482037499547,0.016471385955810547,0.07421278208494186,9.510160446166992,-0.12419600039720535,-2.8019299507141113
1413393214830760500,-0.010945749469101429,0.02977590262889862,0.07219792157411575,9.560473442077637,0.029538827016949654,-2.751950979232788
1413393214835760500,-0.0026154490187764168,0.02808287739753723,0.08790218085050583,9.526493072509766,0.015414671041071415,-2.7026491165161133
1413393214840760500,0.0004711328074336052,0.028888940811157227,0.09111583977937698,9.403465270996094,-0.016733553260564804,-2.701462984085083
1413393214845760500,-0.006728869862854481,0.0274646133184433,0.07572288066148758,9.43758773803711,-0.018795808777213097,-2.669816493988037
1413393214850760500,-0.009225261397659779,0.020875290036201477,0.0850130096077919,9.241020202636719,-0.01793188787996769,-2.491173028945923
1413393214855760500,-8.257944136857986e-05,0.020771771669387817,0.09283394366502762,9.4359130859375,-0.25240659713745117,-2.670865297317505
1413393214860760500,-0.004964557476341724,0.018350183963775635,0.07970786094665527,9.218481063842773,-0.1642976850271225,-2.53135347366333
1413393214865760500,-0.011807066388428211,0.012221381068229675,0.07080404460430145,9.648889541625977,-0.05928447097539902,-2.8348357677459717
1413393214870760500,-0.003901449032127857,0.029614031314849854,0.08240965008735657,9.445135116577148,0.038895055651664734,-2.71842885017395
1413393214875760500,-0.0021729739382863045,0.030305325984954834,0.09073422849178314,9.388127326965332,0.016180459409952164,-2.7119133472442627
1413393214880760500,-0.006810930557549,0.03447540104389191,0.08326062560081482,9.298715591430664,-0.0017758511239662766,-2.596560001373291
1413393214885760500,-0.015258473344147205,0.029995739459991455,0.07364007085561752,9.38852310180664,-0.06789711117744446,-2.661468267440796
1413393214890760500,-0.0057623060420155525,0.025748565793037415,0.08528870344161987,9.362473487854004,-0.23655444383621216,-2.5633866786956787
1413393214895760500,0.0006953952834010124,0.021617770195007324,0.08440124243497849,9.371529579162598,-0.26944348216056824,-2.6472134590148926
1413393214900760500,-0.00428424496203661,0.012172386050224304,0.07014747709035873,9.510778427124023,-0.03562796860933304,-2.8257391452789307
1413393214905760500,-0.010257032699882984,0.031727954745292664,0.0792674720287323,9.560185432434082,0.10286381095647812,-2.727046489715576
1413393214910760500,-0.007468176074326038,0.029698893427848816,0.08773776888847351,9.387892723083496,-0.08930356055498123,-2.6782188415527344
1413393214915760500,-0.005766776390373707,0.02757897973060608,0.09403940290212631,9.45250129699707,-0.03359346091747284,-2.7103607654571533
1413393214920760500,-0.012874615378677845,0.03212735056877136,0.08555836230516434,9.445646286010742,0.029202662408351898,-2.6535069942474365
1413393214925760500,-0.011205893941223621,0.02578064799308777,0.09306962788105011,9.2893705368042,-0.010339715518057346,-2.605087995529175
1413393214930760500,-0.0010471316054463387,0.02093568444252014,0.0900808796286583,9.354775428771973,-0.47203734517097473,-2.554443359375
1413393214935760500,0.0069399503991007805,0.014713630080223083,0.0867132619023323,9.372390747070312,-0.26249706745147705,-2.531881809234619
1413393214940760500,-8.207745850086212e-06,0.011404246091842651,0.07521295547485352,9.608244895935059,0.037433281540870667,-2.760787010192871
1413393214945760500,-0.003183242864906788,0.028919801115989685,0.07845321297645569,9.478586196899414,0.05600759759545326,-2.7097668647766113
1413393214950760500,-0.007058409042656422,0.02909044921398163,0.07941915839910507,9.339571952819824,0.05654732882976532,-2.728940725326538
1413393214955760500,-0.009569761343300343,0.02964244782924652,0.08590784668922424,9.395901679992676,0.11034967005252838,-2.6856741905212402
1413393214960760500,-0.020021196454763412,0.021516472101211548,0.07799873501062393,9.420562744140625,-0.04227502644062042,-2.652939796447754
1413393214965760500,-0.009201672859489918,0.028551563620567322,0.08444751799106598,9.403565406799316,-0.2849365472793579,-2.55570125579834
1413393214970760500,0.0005272356793284416,0.018259510397911072,0.08174559473991394,9.33958625793457,-0.36002835631370544,-2.580364227294922
1413393214975760500,0.0012031970545649529,0.01410241425037384,0.074997678399086,9.39651870727539,-0.14936363697052002,-2.7116212844848633
1413393214980760500,-0.002577883191406727,0.011984452605247498,0.0777592658996582,9.575465202331543,0.06387927383184433,-2.809715747833252
1413393214985760500,-0.00475649256259203,0.03318990767002106,0.08099568635225296,9.584734916687012,0.08072954416275024,-2.7431299686431885
1413393214990760500,-0.00832310039550066,0.029949814081192017,0.0900665670633316,9.0951509475708,0.07246620953083038,-2.5975255966186523
1413393214995760500,-0.009658736176788807,0.03078886866569519,0.09002611041069031,9.468210220336914,0.02110200934112072,-2.7184369564056396
1413393215000760500,-0.015162688679993153,0.02348393201828003,0.08818215131759644,9.46899700164795,-0.07493129372596741,-2.6037418842315674
1413393215005760500,-0.003054705448448658,0.027217984199523926,0.08461285382509232,9.485971450805664,-0.3750668168067932,-2.636922597885132
1413393215010760500,0.004853236488997936,0.012068450450897217,0.0750424936413765,9.144295692443848,-0.22274483740329742,-2.475803852081299
1413393215015760500,0.006637441925704479,0.009942382574081421,0.06256480515003204,9.665183067321777,-0.1802530735731125,-2.784203052520752
1413393215020760500,0.006624835543334484,0.01767149567604065,0.07440812885761261,9.511992454528809,0.17098861932754517,-2.56359601020813
1413393215025760500,-0.011168611235916615,0.019372612237930298,0.08024124801158905,9.331437110900879,0.2768169939517975,-2.769599437713623
1413393215030760500,-0.027524467557668686,0.025653347373008728,0.08517126739025116,9.486344337463379,0.4507047235965729,-2.807307243347168
1413393215035760500,-0.04464810714125633,0.018866270780563354,0.08460011333227158,9.291116714477539,0.1775384247303009,-2.6458795070648193
1413393215040760500,-0.05208745226264,0.02341960370540619,0.08182122558355331,9.323004722595215,-0.02261321432888508,-2.5402536392211914
1413393215045760500,-0.045294132083654404,-0.005531042814254761,0.06886864453554153,9.331759452819824,-0.5708062648773193,-2.4979069232940674
1413393215050760500,-0.008817863650619984,0.004185870289802551,0.058767613023519516,9.675421714782715,-1.07806396484375,-2.6697535514831543
1413393215055760500,0.03812919929623604,0.023132920265197754,0.051426198333501816,9.18530559539795,-0.7238714098930359,-2.4644365310668945
1413393215060760500,0.07846033573150635,0.01373523473739624,0.08714181929826736,9.493813514709473,0.014822952449321747,-2.835029363632202
1413393215065760500,0.07461529970169067,0.037604495882987976,0.097940593957901,9.2485933303833,0.6785396337509155,-2.491271495819092
1413393215070760500,0.012004869990050793,0.025945454835891724,0.08711536228656769,9.624588966369629,1.029728889465332,-2.8227744102478027
1413393215075760500,-0.058634188026189804,0.046660080552101135,0.09037656337022781,9.373364448547363,0.8992221355438232,-2.8544509410858154
1413393215080760500,-0.09546718001365662,0.0404408723115921,0.10267842561006546,8.527557373046875,-0.04743971675634384,-2.4203951358795166
1413393215085760500,-0.06994669139385223,0.004645422101020813,0.1298975646495819,8.993436813354492,-1.1508651971817017,-2.61078143119812
1413393215090760500,-0.0009850980713963509,0.01826341450214386,0.14137104153633118,9.36307430267334,-1.426459789276123,-2.40718674659729
1413393215095760500,0.05197041109204292,0.009887069463729858,0.11790517717599869,9.437865257263184,-0.9213508367538452,-2.667851209640503
1413393215100760500,0.05564369633793831,-0.012301355600357056,0.06658152490854263,9.568321228027344,0.025137731805443764,-2.728691816329956
1413393215105760500,0.02422000840306282,0.03442941606044769,0.03199741616845131,9.851847648620605,0.7147148251533508,-2.8149681091308594
1413393215110760500,-0.01908354088664055,0.027475059032440186,0.031353823840618134,9.178995132446289,0.6271319389343262,-2.7181789875030518
1413393215115760500,-0.033381085842847824,0.040614619851112366,0.06667064875364304,9.477402687072754,0.2808658480644226,-2.6600887775421143
1413393215120760500,-0.024189438670873642,0.052838101983070374,0.09494496881961823,9.41389274597168,0.05570385232567787,-2.6528806686401367
1413393215125760500,-0.03415333852171898,0.03322358429431915,0.08616616576910019,9.485323905944824,-0.03421175852417946,-2.9162378311157227
1413393215130760500,-0.03585496172308922,0.05992104113101959,0.07707377523183823,9.096903800964355,-0.10238475352525711,-2.3774538040161133
1413393215135760500,-0.021770339459180832,0.01477000117301941,0.08339725434780121,9.154960632324219,-0.45315447449684143,-2.516099214553833
1413393215140760500,0.013154524378478527,0.033793821930885315,0.09961415082216263,9.64067268371582,-0.6850301623344421,-2.595118999481201
1413393215145760500,0.04077071323990822,0.015598252415657043,0.09595829248428345,9.280150413513184,-0.17974312603473663,-2.580298662185669
1413393215150760500,0.03253023698925972,0.009121060371398926,0.08865617215633392,9.607067108154297,0.32283496856689453,-3.0125844478607178
1413393215155760500,0.002429860644042492,0.04340428113937378,0.07678945362567902,9.421869277954102,0.4793797433376312,-2.669881820678711
1413393215160760500,-0.028998594731092453,-0.006215095520019531,0.07393471896648407,9.469988822937012,0.043504390865564346,-2.652754783630371
1413393215165760500,-0.022027503699064255,0.01921127736568451,0.06990858167409897,9.86788272857666,-0.22870087623596191,-2.6816067695617676
1413393215170760500,-0.0052307965233922005,0.03670743107795715,0.07924658060073853,9.136151313781738,0.07349105924367905,-2.4929704666137695
1413393215175760500,-0.01369373220950365,0.000755012035369873,0.08162464201450348,9.372167587280273,0.1642533540725708,-2.9485602378845215
1413393215180760500,-0.03544854745268822,0.03546060621738434,0.055481404066085815,9.707901954650879,-0.18464481830596924,-2.817239284515381
1413393215185760500,-0.026756878942251205,0.03914564847946167,0.05805934593081474,9.088940620422363,-0.5101721286773682,-2.3451249599456787
1413393215190760500,0.01903310790657997,4.3258070945739746e-05,0.09035705029964447,9.118976593017578,-0.6040121912956238,-2.462148904800415
1413393215195760500,0.0441800095140934,0.026874586939811707,0.09748852998018265,9.378501892089844,-0.38958293199539185,-2.6281261444091797
1413393215200760500,0.02912323549389839,0.004434466361999512,0.10070067644119263,9.04981517791748,0.41537797451019287,-2.7603671550750732
1413393215205760500,-0.007648986764252186,0.02022385597229004,0.08992945402860641,9.82741641998291,0.585965096950531,-2.9865522384643555
1413393215210760500,-0.040003519505262375,0.062030479311943054,0.07057826220989227,9.64560604095459,-0.04478326067328453,-2.653634786605835
1413393215215760500,-0.029385264962911606,0.021314382553100586,0.08876106888055801,9.022844314575195,-0.36735695600509644,-2.4660396575927734
1413393215220760500,-0.010466319508850574,0.028921470046043396,0.09608016163110733,9.378022193908691,-0.35863813757896423,-2.4410603046417236
1413393215225760500,-0.008109760470688343,0.012134850025177002,0.08975400775671005,9.26511287689209,0.037722133100032806,-2.889758586883545
1413393215230760500,-0.01472532469779253,0.03197595477104187,0.07836389541625977,9.469045639038086,0.11936856806278229,-2.833920955657959
1413393215235760500,-0.017534609884023666,0.044812917709350586,0.06470184028148651,9.573522567749023,-0.39600348472595215,-2.711282253265381
1413393215240760500,0.006033631972968578,0.02264745533466339,0.08455096185207367,9.487971305847168,-0.4228760302066803,-2.6993045806884766
1413393215245760500,0.034997884184122086,0.03868798911571503,0.10120392590761185,9.118307113647461,-0.042114101350307465,-2.449978828430176
1413393215250760500,0.021410305052995682,0.004059344530105591,0.09528499841690063,9.002583503723145,0.3628373444080353,-2.6066198348999023
1413393215255760500,-0.0031235041096806526,0.008859500288963318,0.09810338169336319,9.778897285461426,0.593116283416748,-3.0664846897125244
1413393215260760500,-0.0361756794154644,0.03706027567386627,0.07427423447370529,9.876810073852539,-0.028602108359336853,-2.728606700897217
1413393215265760500,-0.034168850630521774,0.027808785438537598,0.07504262775182724,9.455403327941895,-0.3090234100818634,-2.6210012435913086
1413393215270760500,-0.006079149432480335,0.042766183614730835,0.08813080191612244,9.146796226501465,-0.19481122493743896,-2.4809975624084473
1413393215275760500,-0.004952949471771717,0.00818672776222229,0.088909812271595,8.903339385986328,-0.08738294988870621,-2.589574098587036
1413393215280760500,-0.01664779707789421,-0.0022711604833602905,0.07114972919225693,10.02933120727539,0.05264507979154587,-3.0577852725982666
1413393215285760500,-0.015333530493080616,0.04527793824672699,0.06807037442922592,9.506417274475098,-0.24492204189300537,-2.458068609237671
1413393215290760500,0.004946532659232616,0.03548462688922882,0.06917358189821243,9.444255828857422,-0.49993637204170227,-2.729186534881592
1413393215295760500,0.02666943147778511,0.0215253084897995,0.08612541109323502,8.868599891662598,-0.05428464710712433,-2.365448474884033
1413393215300760500,0.01836608722805977,0.009810835123062134,0.09951966255903244,9.10997200012207,0.36196935176849365,-2.590437173843384
1413393215305760500,-0.0182444266974926,0.015435323119163513,0.08096194267272949,9.880034446716309,0.3150660991668701,-3.076849937438965
1413393215310760500,-0.030449803918600082,0.03552448749542236,0.0870145931839943,9.376164436340332,-0.01435528602451086,-2.5232913494110107
1413393215315760500,-0.022343497723340988,0.015447348356246948,0.09238626807928085,9.590622901916504,-0.46939271688461304,-2.941066265106201
1413393215320760500,-0.004107129760086536,0.031900554895401,0.09299513697624207,9.09586238861084,-0.32273879647254944,-2.449216842651367
1413393215325760500,0.002979266457259655,0.01680654287338257,0.09755430370569229,9.007530212402344,0.09471642971038818,-2.5484237670898438
1413393215330760500,-0.012858879752457142,0.005448386073112488,0.07791430503129959,9.659481048583984,-0.12866368889808655,-2.962329626083374
1413393215335760500,-0.01602047309279442,0.03128691017627716,0.06361039727926254,9.428472518920898,-0.19778910279273987,-2.6374359130859375
1413393215340760500,-0.0015331627801060677,0.024329721927642822,0.07536234706640244,9.56692123413086,-0.37455570697784424,-2.899449348449707
1413393215345760500,0.016523201018571854,0.03884574770927429,0.08611813932657242,9.429987907409668,-0.08172861486673355,-2.8154664039611816
1413393215350760500,0.010180833749473095,0.047077834606170654,0.09358455240726471,8.827972412109375,0.2760421335697174,-2.428341865539551
1413393215355760500,-0.01141746062785387,0.003666713833808899,0.07928647100925446,9.709047317504883,-0.018527695909142494,-2.8970959186553955
1413393215360760500,-0.018553655594587326,0.03027215600013733,0.06956398487091064,9.844179153442383,-0.01234180573374033,-2.740009307861328
1413393215365760500,-0.009068486280739307,0.02752014994621277,0.08900002390146255,9.42199420928955,0.045708589255809784,-2.7623276710510254
1413393215370760500,-0.010813427157700062,0.0261773020029068,0.09518489986658096,9.201159477233887,0.10035762190818787,-2.775164842605591
1413393215375760500,-0.014165145345032215,0.010372728109359741,0.09895908087491989,9.014913558959961,0.08834391087293625,-2.4269907474517822
1413393215380760500,-0.022090476006269455,-0.0016477853059768677,0.07675335556268692,10.052507400512695,-0.4159596860408783,-2.930669069290161
1413393215385760500,-0.006131020374596119,0.01765267550945282,0.06439990550279617,9.631596565246582,-0.3491266965866089,-2.7164058685302734
1413393215390760500,0.0220712311565876,0.01801455020904541,0.09852046519517899,9.248839378356934,0.19781634211540222,-2.760993242263794
1413393215395760500,0.025401223450899124,0.04002997279167175,0.10438262671232224,8.793901443481445,-0.026010051369667053,-2.3421456813812256
1413393215400760500,-0.008582991547882557,-0.016952380537986755,0.0823708102107048,9.388704299926758,0.19585222005844116,-2.550415277481079
1413393215405760500,-0.01686742529273033,0.010446056723594666,0.06055646017193794,9.877036094665527,0.052232395857572556,-2.7731425762176514
1413393215410760500,-0.014748972840607166,0.03027920424938202,0.08593476563692093,9.338634490966797,0.00017103925347328186,-2.7513558864593506
1413393215415760500,-0.016992714256048203,0.02207791805267334,0.09991476684808731,8.889780044555664,0.031492434442043304,-2.4368412494659424
1413393215420760500,-0.028130602091550827,-0.02576000988483429,0.08292631059885025,9.114706039428711,-0.17056052386760712,-2.349698781967163
1413393215425760500,-0.023992907255887985,-0.0026408135890960693,0.053917840123176575,10.276041030883789,-0.5602961182594299,-2.9566285610198975
1413393215430760500,0.0036458997055888176,0.03327035903930664,0.0685122087597847,9.445601463317871,-0.35220998525619507,-2.619602918624878
1413393215435760500,0.03000747039914131,0.02788868546485901,0.08978983014822006,9.412063598632812,-0.2685648202896118,-2.7101073265075684
1413393215440760500,0.018164295703172684,0.023231089115142822,0.06723861396312714,8.890892028808594,-0.21135614812374115,-2.1252102851867676
1413393215445760500,0.004023033194243908,-0.009303510189056396,0.05652116239070892,9.920356750488281,0.3122117817401886,-3.0492441654205322
1413393215450760500,0.0027802465483546257,0.04577253758907318,0.09381124377250671,9.34803295135498,0.5822842717170715,-2.775784492492676
1413393215455760500,-0.027349185198545456,0.027381986379623413,0.1072780191898346,8.702380180358887,0.2578001916408539,-2.5601117610931396
1413393215460760500,-0.050692882388830185,0.012435808777809143,0.08047962933778763,9.281474113464355,-0.39074811339378357,-2.6036813259124756
1413393215465760500,-0.03400490805506706,-0.012505903840065002,0.08909138292074203,9.404093742370605,-0.34705013036727905,-2.629697799682617
1413393215470760500,0.0052682338282465935,0.02535763382911682,0.11392725259065628,9.755034446716309,-0.4518193006515503,-2.756932020187378
1413393215475760500,0.01717722788453102,0.012913182377815247,0.10939634591341019,9.427393913269043,-0.4218621253967285,-2.8008930683135986
1413393215480760500,0.0006479797884821892,0.017281100153923035,0.05045585706830025,9.43684196472168,-0.2606220245361328,-2.7463700771331787
1413393215485760500,0.02278010919690132,0.018727421760559082,0.09167569130659103,9.542259216308594,0.39301416277885437,-2.8497366905212402
1413393215490760500,0.018642444163560867,0.03125986456871033,0.10740723460912704,9.45417594909668,0.2617707848548889,-2.6286661624908447
1413393215495760500,-0.017485003918409348,0.049085572361946106,0.07057467103004456,9.714391708374023,-0.04626810923218727,-2.7747416496276855
1413393215500760500,-0.025304581969976425,0.004005491733551025,0.07037635892629623,8.777277946472168,0.11464942246675491,-2.6296825408935547
1413393215505760500,-0.001828518696129322,0.027176499366760254,0.10471851378679276,9.795051574707031,0.014770965091884136,-2.6132609844207764
1413393215510760500,-0.012109738774597645,0.03496889770030975,0.0946018323302269,9.528191566467285,-0.029034946113824844,-2.8747382164001465
1413393215515760500,-0.033555712550878525,0.00820469856262207,0.04470633342862129,8.593597412109375,-0.24271376430988312,-2.3360979557037354
1413393215520760500,0.0006913123652338982,-0.018149107694625854,0.0766981840133667,9.47297191619873,-0.2527931332588196,-2.661412000656128
1413393215525760500,0.022020284086465836,0.009051769971847534,0.09853275865316391,9.936741828918457,-0.060397230088710785,-2.652235746383667
1413393215530760500,-0.002776932902634144,0.0386970192193985,0.06938324123620987,9.731119155883789,-0.007946261204779148,-2.9907052516937256
1413393215535760500,-0.012705978937447071,0.0004077106714248657,0.07022153586149216,8.663420677185059,0.06632237881422043,-2.3521132469177246
1413393215540760500,0.00318125169724226,0.017055898904800415,0.09488345682621002,9.900568962097168,-0.09049969911575317,-2.6743454933166504
1413393215545760500,-0.00242402870208025,0.047071948647499084,0.10051488876342773,9.900360107421875,0.11508488655090332,-2.757181167602539
1413393215550760500,-0.020669277757406235,0.040028855204582214,0.06791682541370392,8.928722381591797,-0.2911500334739685,-2.393960475921631
1413393215555760500,-0.0030486108735203743,0.008519917726516724,0.07921424508094788,9.037395477294922,-0.3594442307949066,-2.5981526374816895
1413393215560760500,0.01826312020421028,0.014154642820358276,0.0998658612370491,9.508504867553711,0.3686269223690033,-2.7100110054016113
1413393215565760500,-0.02316543087363243,0.023760497570037842,0.06596263498067856,9.470335006713867,0.2633683681488037,-2.782280445098877
1413393215570760500,-0.03635920211672783,0.007288724184036255,0.054397497326135635,8.958456039428711,-0.35199999809265137,-2.4622108936309814
1413393215575760500,-0.003161427564918995,-0.0009740293025970459,0.08808162063360214,9.055438995361328,-0.18875224888324738,-2.359156370162964
1413393215580760500,-0.009335440583527088,0.009092405438423157,0.0807838961482048,9.776355743408203,-0.0279651191085577,-2.881079912185669
1413393215585760500,-0.026554789394140244,0.014564573764801025,0.06559789180755615,9.16897201538086,-0.2096204161643982,-2.6199047565460205
1413393215590760500,-0.0007373364642262459,0.01604565978050232,0.08203684538602829,9.307340621948242,-0.5467357635498047,-2.6644303798675537
1413393215595760500,0.021706853061914444,0.03683839738368988,0.09496874362230301,10.212111473083496,-0.025894686579704285,-2.9134633541107178
1413393215600760500,-0.0040657492354512215,0.07526659965515137,0.075944684445858,9.747414588928223,0.20144668221473694,-2.9032349586486816
1413393215605760500,-0.013727006502449512,0.06068597733974457,0.06877900660037994,8.524253845214844,-0.2431263029575348,-2.190288543701172
1413393215610760500,0.006773519329726696,0.009971991181373596,0.09404214471578598,9.568873405456543,0.04367116093635559,-2.8416714668273926
1413393215615760500,-0.009236437268555164,0.05347742140293121,0.09564518928527832,9.366539001464844,0.3444613516330719,-2.653320074081421
1413393215620760500,-0.019589316099882126,0.0022451281547546387,0.09600900858640671,8.544248580932617,-0.20122376084327698,-2.5659024715423584
1413393215625760500,0.008360314182937145,-0.02712242305278778,0.11830153316259384,9.77713394165039,-0.5378518104553223,-2.8401572704315186
1413393215630760500,0.01179774384945631,0.03416220843791962,0.11800802499055862,9.995139122009277,0.33628037571907043,-3.0846657752990723
1413393215635760500,-0.0021120579913258553,0.04880128800868988,0.1016230434179306,8.791190147399902,-0.08926734328269958,-2.5322210788726807
1413393215640760500,0.0013242242857813835,-0.04854394495487213,0.09845580905675888,9.106097221374512,-0.49551159143447876,-2.554669141769409
1413393215645760500,0.001092362217605114,0.004439979791641235,0.07781476527452469,10.558537483215332,0.5174477696418762,-3.1926381587982178
1413393215650760500,-0.014580306597054005,0.05482344329357147,0.07938385009765625,9.153706550598145,0.2590984106063843,-2.8019707202911377
1413393215655760500,-0.029036369174718857,-0.036248862743377686,0.053434960544109344,8.727493286132812,-0.8247224688529968,-2.236006498336792
1413393215660760500,-0.016781296581029892,-0.021459579467773438,0.037222374230623245,10.294543266296387,0.20175130665302277,-2.717271327972412
1413393215665760500,-0.0010033966973423958,0.04193103313446045,0.07794255763292313,9.3582124710083,0.008666853420436382,-2.589479684829712
1413393215670760500,-0.010367942042648792,-0.034723564982414246,0.0469588004052639,8.573909759521484,-0.7615507245063782,-2.8160464763641357
1413393215675760500,0.014260786585509777,0.005699783563613892,0.06717167049646378,9.771187782287598,0.7103469967842102,-3.1167328357696533
1413393215680760500,0.012456285767257214,0.04991883039474487,0.12027906626462936,8.939949035644531,0.5413639545440674,-2.6948623657226562
1413393215685760500,-0.030266564339399338,-0.04263851046562195,0.09299172461032867,8.417770385742188,-0.621821939945221,-3.016698122024536
1413393215690760500,-0.01767246052622795,-0.018309667706489563,0.090016208589077,10.026419639587402,0.22010861337184906,-3.1950621604919434
1413393215695760500,0.01853429153561592,0.03791682422161102,0.1460178941488266,9.149569511413574,0.29422858357429504,-2.498826026916504
1413393215700760500,-0.0072854431346058846,-0.03459562361240387,0.10009381175041199,8.532360076904297,-1.0910089015960693,-2.493156909942627
1413393215705760500,-0.006460052914917469,-0.05722944438457489,0.06252812594175339,9.571976661682129,0.07231462746858597,-3.297179698944092
1413393215710760500,0.020744938403367996,0.01896977424621582,0.10850640386343002,9.935997009277344,0.10152791440486908,-2.7744102478027344
1413393215715760500,-0.019349094480276108,-0.012730821967124939,0.040110450237989426,9.00658130645752,-0.6243062019348145,-2.6436102390289307
1413393215720760500,-0.020299594849348068,-0.0196722149848938,0.027594855055212975,9.991266250610352,0.4666271209716797,-3.121490716934204
1413393215725760500,0.014152157120406628,0.0440695583820343,0.09752947092056274,9.591180801391602,-0.3426574766635895,-2.612436294555664
1413393215730760500,-0.012109083123505116,0.0053441524505615234,0.047500211745500565,8.874968528747559,-0.3116610050201416,-2.7582309246063232
1413393215735760500,-0.011777144856750965,0.023482337594032288,0.07245636731386185,9.154889106750488,0.9472410082817078,-2.644402027130127
1413393215740760500,-0.004192632623016834,0.021123617887496948,0.12435461580753326,9.468038558959961,-0.16661681234836578,-2.689309597015381
1413393215745760500,-0.04065490886569023,0.009650886058807373,0.061895012855529785,8.678627967834473,-0.634841799736023,-2.750026226043701
1413393215750760500,-0.012279030866920948,-0.04004211723804474,0.11302047222852707,8.569103240966797,0.2969719469547272,-2.3326125144958496
1413393215755760500,0.02663140371441841,-0.023110389709472656,0.1576574593782425,10.68836498260498,-0.711327314376831,-3.152763605117798
1413393215760760500,0.005038040690124035,0.012631446123123169,0.07948260754346848,9.360549926757812,-0.8598174452781677,-3.008356809616089
1413393215765760500,0.02963586524128914,-0.03172115981578827,0.11951480805873871,8.517413139343262,0.7100368738174438,-2.463005781173706
1413393215770760500,0.04061083868145943,-0.01592192053794861,0.11961048096418381,10.69529914855957,-0.49677157402038574,-3.2839860916137695
1413393215775760500,-0.014057797379791737,0.033466637134552,0.0459832027554512,8.952217102050781,0.5639193654060364,-3.000393867492676
1413393215780760500,-0.009099078364670277,-0.027156412601470947,0.11885052174329758,9.086841583251953,0.7009472846984863,-2.4958503246307373
1413393215785760500,-0.04085559770464897,0.027019530534744263,0.030578428879380226,10.842097282409668,-0.5832751393318176,-3.4392576217651367
1413393215790760500,-0.039749544113874435,0.06756375730037689,0.022983195260167122,8.478330612182617,0.317069947719574,-2.378220319747925
1413393215795760500,0.0022121844813227654,-0.06243912875652313,0.11179905384778976,9.271844863891602,-0.25705331563949585,-2.5389814376831055
1413393215800760500,-0.023164715617895126,0.05666866898536682,0.03522166237235069,10.136730194091797,-0.6735602617263794,-3.2088565826416016
1413393215805760500,0.0006706146523356438,0.04798115789890289,0.05059795454144478,7.5873517990112305,0.6792858839035034,-2.025057554244995
1413393215810760500,0.03222696855664253,-0.05554772913455963,0.1303679198026657,9.526001930236816,-0.2070714384317398,-2.8675522804260254
1413393215815760500,-0.010779482312500477,0.01689732074737549,0.07794871926307678,9.046887397766113,-0.3385925590991974,-2.858873128890991
1413393215820760500,0.007689463905990124,-0.020172730088233948,0.11993609368801117,8.019949913024902,0.9201463460922241,-2.139145612716675
1413393215825760500,0.017129946500062943,-0.002328038215637207,0.12439536303281784,10.806052207946777,-0.7451391220092773,-3.108057975769043
1413393215830760500,-0.014075887389481068,0.011549487709999084,0.08730906993150711,9.013471603393555,-0.09203828871250153,-2.50948166847229
1413393215835760500,0.005069839768111706,-0.05707789957523346,0.11327534168958664,9.929047584533691,0.17824579775333405,-2.774202823638916
1413393215840760500,-0.03327785059809685,0.0399610698223114,0.012695936486124992,10.060152053833008,-0.36300697922706604,-3.2155728340148926
1413393215845760500,-0.026813026517629623,0.058568716049194336,0.03422298654913902,9.078780174255371,0.22519166767597198,-2.4090347290039062
1413393215850760500,-0.0034303339198231697,0.0503385066986084,0.08886861801147461,10.210405349731445,-0.45205193758010864,-2.7514994144439697
1413393215855760500,-0.03368189558386803,0.07428605854511261,0.05335314944386482,9.199540138244629,-0.29686641693115234,-3.0463931560516357
1413393215860760500,0.007158341817557812,0.03962939977645874,0.10009527951478958,8.1862154006958,0.3120076358318329,-2.138343095779419
1413393215865760500,0.015820685774087906,0.03768789768218994,0.10227293521165848,9.020425796508789,-0.7819074988365173,-2.1662371158599854
1413393215870760500,0.003587055020034313,0.018151387572288513,0.0885305404663086,8.762046813964844,-0.07453539967536926,-2.784708023071289
1413393215875760500,0.019172359257936478,-0.03542684018611908,0.13282740116119385,9.497620582580566,0.5488004088401794,-2.6404805183410645
1413393215880760500,-0.026791255921125412,-0.02398701012134552,0.07474852353334427,9.732914924621582,-0.03395532816648483,-3.1990933418273926
1413393215885760500,-0.02226833626627922,0.02537192404270172,0.09750019758939743,9.621389389038086,0.3896355628967285,-3.0673606395721436
1413393215890760500,-0.006679949350655079,0.026902511715888977,0.07546292990446091,9.735848426818848,-0.681725025177002,-2.0449881553649902
1413393215895760500,-0.011185270734131336,0.03701752424240112,0.05480491742491722,9.895567893981934,-0.43987321853637695,-3.4189484119415283
1413393215900760500,0.02195500209927559,0.03425246477127075,0.08867732435464859,10.002933502197266,0.03694378584623337,-2.653090000152588
1413393215905760500,-0.00876851100474596,0.0270092636346817,0.04592689126729965,9.195226669311523,0.06573183089494705,-2.5831234455108643
1413393215910760500,-0.015208703465759754,0.07348093390464783,0.0342339351773262,9.252952575683594,0.20599789917469025,-3.084709644317627
1413393215915760500,-0.010335874743759632,0.03170759975910187,0.06982393562793732,9.032471656799316,-0.173325777053833,-1.5117586851119995
1413393215920760500,-0.02699221298098564,-0.012605056166648865,0.07236774265766144,8.956897735595703,-0.052407559007406235,-3.027310371398926
1413393215925760500,-0.003261965699493885,0.015030622482299805,0.07296906411647797,9.12264633178711,0.01742785982787609,-2.9406824111938477
1413393215930760500,-0.001377400942146778,-0.014708638191223145,0.08607704192399979,8.827798843383789,-0.15333598852157593,-2.3668363094329834
1413393215935760500,0.0016867099329829216,-0.016538426280021667,0.11753558367490768,9.815284729003906,-0.040918394923210144,-3.7031400203704834
1413393215940760500,0.01979069784283638,0.03067919611930847,0.14659181237220764,9.639790534973145,-0.17941485345363617,-1.9182682037353516
1413393215945760500,0.00662838201969862,0.031523361802101135,0.14247772097587585,9.417972564697266,-0.08079606294631958,-3.288455009460449
1413393215950760500,0.012780833058059216,0.059893980622291565,0.12352647632360458,9.792356491088867,0.14534083008766174,-3.2491066455841064
1413393215955760500,-0.013243732042610645,0.026269331574440002,0.06777957826852798,8.92937183380127,0.010293496772646904,-1.6180776357650757
1413393215960760500,-0.0207010917365551,0.013965949416160583,0.04254152253270149,9.536568641662598,-0.09659606963396072,-3.829747200012207
1413393215965760500,-0.019870366901159286,0.04892747104167938,0.012562686577439308,9.407328605651855,-0.12108991295099258,-2.2333593368530273
1413393215970760500,-0.03874605521559715,-0.012245982885360718,0.015048477798700333,8.866948127746582,0.14680027961730957,-2.72609543800354
1413393215975760500,-0.0149201275780797,0.0517280250787735,0.05276647210121155,10.077795028686523,-0.15899644792079926,-4.231723308563232
1413393215980760500,0.0005041686818003654,0.041657328605651855,0.090128593146801,8.67839241027832,-0.443325400352478,-1.774137020111084
1413393215985760500,0.01109533291310072,0.01326875388622284,0.11612760275602341,9.467036247253418,-0.41454362869262695,-3.6151654720306396
1413393215990760500,0.022074494510889053,0.09094509482383728,0.09941601753234863,9.822361946105957,0.012297777459025383,-2.0020196437835693
1413393215995760500,0.003255384974181652,0.01058177649974823,0.11682377010583878,8.276815414428711,0.44726482033729553,-2.204108715057373
1413393216000760500,-0.006348532624542713,0.025572851300239563,0.11209415644407272,10.504342079162598,-0.20947833359241486,-3.967271566390991
1413393216005760500,-0.02008179947733879,0.031346023082733154,0.0838932991027832,8.656447410583496,-0.10477017611265182,-1.1590341329574585
1413393216010760500,-0.014929872937500477,-0.021457597613334656,0.0951668843626976,9.08198356628418,0.12573115527629852,-3.5490384101867676
1413393216015760500,-1.3830140233039856e-06,0.024917960166931152,0.0751209482550621,9.793227195739746,-0.8634889721870422,-2.2624073028564453
1413393216020760500,0.006350713782012463,-0.011221975088119507,0.0830710306763649,9.625322341918945,-0.2105913758277893,-2.0724496841430664
1413393216025760500,0.028333980590105057,0.05444753170013428,0.10155243426561356,10.304253578186035,-0.110273078083992,-4.105133533477783
1413393216030760500,0.017098475247621536,0.061219945549964905,0.07986130565404892,8.599514961242676,-0.016873743385076523,-1.2165427207946777
1413393216035760500,0.000622170977294445,0.014236971735954285,0.09193915128707886,9.198752403259277,0.5170990824699402,-3.3097851276397705
1413393216040760500,-0.01364984828978777,0.08288954198360443,0.06192488968372345,9.646947860717773,-0.19945502281188965,-1.7508201599121094
1413393216045760500,-0.044937532395124435,-0.005383342504501343,0.025318261235952377,8.830647468566895,0.4680357277393341,-2.585862398147583
1413393216050760500,-0.037544023245573044,0.055182576179504395,0.028869882225990295,9.638323783874512,-0.05174195021390915,-3.5109364986419678
1413393216055760500,-0.03575339540839195,-0.009054392576217651,0.022401470690965652,8.763968467712402,-0.46268945932388306,-1.358481526374817
1413393216060760500,-0.0066599370911717415,0.045884087681770325,0.06251686811447144,10.30062484741211,-0.32167306542396545,-4.189973831176758
1413393216065760500,0.028858307749032974,0.07145397365093231,0.0837051048874855,8.658207893371582,-0.5144936442375183,-2.0547778606414795
1413393216070760500,0.026635486632585526,-0.01548224687576294,0.10388114303350449,9.439702987670898,0.5050798058509827,-2.96333909034729
1413393216075760500,0.01942240074276924,0.08889266848564148,0.1140550822019577,9.030855178833008,0.48515090346336365,-3.418419122695923
1413393216080760500,-0.017975743860006332,-0.0380484014749527,0.07693873345851898,8.179527282714844,0.3132287263870239,-1.420102596282959
1413393216085760500,-0.032246481627225876,0.029979676008224487,0.08803119510412216,10.576922416687012,0.43744099140167236,-4.465855598449707
1413393216090760500,-0.03519342467188835,0.033203959465026855,0.07869467884302139,8.195638656616211,-0.37593308091163635,-1.7244387865066528
1413393216095760500,-0.03043464943766594,-0.058584898710250854,0.0796671062707901,9.24594783782959,-0.11621159315109253,-2.799309730529785
1413393216100760500,-0.006035772152245045,0.08042532205581665,0.0865088552236557,9.328666687011719,-0.4142929017543793,-2.1809487342834473
1413393216105760500,-0.001486760564148426,-0.062054574489593506,0.07946296036243439,9.32064437866211,-0.031177664175629616,-2.356266498565674
1413393216110760500,0.0009756563231348991,0.11135703325271606,0.07233085483312607,10.809538841247559,-0.5571314692497253,-4.059686183929443
1413393216115760500,0.013001802377402782,0.03162708878517151,0.0642048791050911,8.763211250305176,-0.4826481342315674,-1.5039036273956299
1413393216120760500,0.011856365017592907,0.0710902214050293,0.06227387115359306,10.716351509094238,0.15706072747707367,-3.9807941913604736
1413393216125760500,0.016653303056955338,0.10442125797271729,0.07928591221570969,7.735342025756836,-0.09003546833992004,-1.6600669622421265
1413393216130760500,0.005887600593268871,-0.048062458634376526,0.06965626776218414,9.534862518310547,0.09506851434707642,-2.1185734272003174
1413393216135760500,0.004995125345885754,0.12329426407814026,0.07774906605482101,10.3565034866333,-0.16538561880588531,-3.7752604484558105
1413393216140760500,-0.010379073210060596,-0.03612011671066284,0.08773660659790039,7.764178276062012,0.3657281994819641,-1.7091360092163086
1413393216145760500,-0.033379267901182175,0.0456465482711792,0.08957088738679886,11.38182258605957,0.15139558911323547,-4.422633647918701
1413393216150760500,-0.021811839193105698,0.10387220978736877,0.11597363650798798,8.05867862701416,-0.1444813758134842,-1.8028473854064941
1413393216155760500,-0.011723351664841175,-0.07047130167484283,0.12644222378730774,9.47771167755127,0.00552761647850275,-3.4598567485809326
1413393216160760500,-0.006270033307373524,0.11447770893573761,0.11558511108160019,8.745502471923828,-0.5254376530647278,-2.301868438720703
1413393216165760500,0.001366931013762951,-0.09545974433422089,0.08795968443155289,9.612420082092285,-9.167120151687413e-05,-2.234433889389038
1413393216170760500,0.009946811012923717,0.0730251669883728,0.07405920326709747,11.17917537689209,-0.8677469491958618,-3.9655351638793945
1413393216175760500,0.015992198139429092,0.00484880805015564,0.05929695442318916,7.469038009643555,-0.012570198625326157,-1.2578155994415283
1413393216180760500,0.01179684977978468,-0.0027997344732284546,0.05917362496256828,11.415390968322754,0.4424700140953064,-3.6543123722076416
1413393216185760500,-0.000529182143509388,0.12356725335121155,0.030312534421682358,8.933121681213379,0.0807315856218338,-2.418250799179077
1413393216190760500,-0.007882487960159779,-0.07685169577598572,0.07407393306493759,8.890117645263672,0.6995810270309448,-2.6212785243988037
1413393216195760500,-0.03239118680357933,0.09304070472717285,0.04573651775717735,10.184774398803711,-0.028233816847205162,-3.4116156101226807
1413393216200760500,-0.038735102862119675,-0.055630311369895935,0.09472379088401794,7.373332977294922,0.549816370010376,-1.5326277017593384
1413393216205760500,-0.045293744653463364,-0.03959357738494873,0.09221642464399338,11.338826179504395,-0.6466449499130249,-3.5056605339050293
1413393216210760500,-0.02449394389986992,0.03178343176841736,0.09711499512195587,8.042689323425293,0.15227147936820984,-1.6837726831436157
1413393216215760500,0.0008654473349452019,-0.10606707632541656,0.09160535782575607,10.816959381103516,0.022638259455561638,-3.5366055965423584
1413393216220760500,0.001976790837943554,0.0544661283493042,0.08787649124860764,8.668012619018555,-0.16600215435028076,-1.844576120376587
1413393216225760500,0.007905381731688976,-0.11359746754169464,0.10696636140346527,9.348708152770996,0.5220224857330322,-2.683265209197998
1413393216230760500,0.009168568067252636,0.030970096588134766,0.08184373378753662,10.14432144165039,-0.5944131016731262,-2.8427610397338867
1413393216235760500,0.022246379405260086,-0.061867937445640564,0.11196836084127426,8.009718894958496,0.4365209937095642,-2.3610620498657227
1413393216240760500,0.015724558383226395,-0.0030879974365234375,0.05175401270389557,10.301178932189941,-0.6672341823577881,-2.9743125438690186
1413393216245760500,0.017889875918626785,0.02049751579761505,0.08377689123153687,8.089699745178223,0.4753708839416504,-1.9678435325622559
1413393216250760500,0.0002739904448390007,-0.06548307836055756,0.07799166440963745,10.169759750366211,0.2574140727519989,-2.8702447414398193
1413393216255760500,-0.021358098834753036,0.033144429326057434,0.06052209436893463,9.81001091003418,-0.024808213114738464,-2.637965202331543
1413393216260760500,-0.021783899515867233,-0.05888815224170685,0.10785382241010666,8.97888469696045,0.6240528225898743,-2.7622578144073486
1413393216265760500,-0.03520957753062248,-0.020968347787857056,0.0553881861269474,9.623007774353027,-0.7848290205001831,-2.8806233406066895
1413393216270760500,0.0019054589793086052,-0.059931471943855286,0.1546051800251007,8.710493087768555,0.05323679745197296,-2.84297776222229
1413393216275760500,0.007689761929214001,-0.051037222146987915,0.07595621049404144,9.770800590515137,-1.1095021963119507,-2.858785629272461
1413393216280760500,0.02250002697110176,-0.0419384241104126,0.14064422249794006,8.828919410705566,0.699968695640564,-3.0710511207580566
1413393216285760500,-0.00014655012637376785,-0.061669111251831055,0.07488038390874863,9.698723793029785,-0.2749684453010559,-2.7047369480133057
1413393216290760500,-0.018358629196882248,0.0028602033853530884,0.07412456721067429,9.381913185119629,0.24318771064281464,-3.4410197734832764
1413393216295760500,0.005397203378379345,0.008132606744766235,0.09118111431598663,8.552899360656738,-0.2789892554283142,-2.1673247814178467
1413393216300760500,-0.0030112387612462044,-0.02304360270500183,0.04393617436289787,9.419025421142578,-0.6132495999336243,-2.7824227809906006
1413393216305760500,0.04421797767281532,0.019279643893241882,0.14473092555999756,9.3380708694458,0.49599489569664,-2.907789468765259
1413393216310760500,0.011731970123946667,0.0028555840253829956,0.05601543188095093,9.613240242004395,-0.10226792842149734,-2.575873374938965
1413393216315760500,0.004681366495788097,0.03975711762905121,0.15719228982925415,9.161050796508789,1.2958414554595947,-3.104930877685547
1413393216320760500,-0.03421793505549431,-0.018937379121780396,0.07682237774133682,8.943205833435059,-0.24366120994091034,-2.655855417251587
1413393216325760500,-0.05316327139735222,0.013319224119186401,0.08764465898275375,9.327581405639648,0.549872875213623,-3.4213716983795166
1413393216330760500,-0.024561893194913864,0.014305323362350464,0.051511235535144806,8.52899169921875,-0.8715614080429077,-2.012371778488159
1413393216335760500,-0.018411975353956223,-0.0019154995679855347,0.07476756721735,9.426714897155762,-0.2663552165031433,-3.833775520324707
1413393216340760500,0.012658211402595043,0.023476839065551758,0.11266417056322098,8.239924430847168,-0.0779738575220108,-1.9622979164123535
1413393216345760500,-0.021916966885328293,-0.07681038975715637,0.06803826987743378,9.768985748291016,-0.3139169216156006,-3.35774827003479
1413393216350760500,0.003970998339354992,0.03723989427089691,0.13696707785129547,9.773405075073242,0.5633089542388916,-3.141857862472534
1413393216355760500,-0.028133701533079147,-0.05888110399246216,0.06638319045305252,8.96839427947998,-0.729854166507721,-2.4379000663757324
1413393216360760500,0.0034638522192835808,0.05098108947277069,0.10781034827232361,10.26444149017334,-0.009828898124396801,-4.02103853225708
1413393216365760500,0.00735828559845686,0.0077684372663497925,0.04995385929942131,7.914546966552734,-0.9795579314231873,-1.632922887802124
1413393216370760500,0.026605743914842606,0.003122478723526001,0.07438904792070389,11.50604248046875,-0.16127249598503113,-4.483130931854248
1413393216375760500,0.030251700431108475,0.12477929890155792,0.0746154934167862,8.282002449035645,0.3245052695274353,-1.400404453277588
1413393216380760500,-0.012973767705261707,-0.03567798435688019,0.10777775198221207,9.776299476623535,0.5203482508659363,-4.135469913482666
1413393216385760500,-0.015412730164825916,0.07615359127521515,0.09992633014917374,8.134490966796875,-0.144426167011261,-1.5366301536560059
1413393216390760500,-0.03367648646235466,-0.11751431226730347,0.10755500197410583,9.225557327270508,-0.358028769493103,-3.2326765060424805
1413393216395760500,0.011574896983802319,0.03538678586483002,0.1038648709654808,9.934443473815918,-0.6134212017059326,-2.41418719291687
1413393216400760500,-0.011616435833275318,-0.12887251377105713,0.03864705562591553,8.333446502685547,-0.5622186064720154,-1.9323482513427734
1413393216405760500,0.028591591864824295,-0.04342266917228699,0.09037015587091446,11.054218292236328,0.03933987021446228,-3.7672019004821777
1413393216410760500,-0.010675367899239063,-0.0524846613407135,0.02507059834897518,8.948974609375,0.11968210339546204,-1.375895380973816
1413393216415760500,0.003851848654448986,-0.0376826673746109,0.09142692387104034,12.160836219787598,-0.03467380255460739,-4.695635795593262
1413393216420760500,-0.022007476538419724,0.07302320003509521,-0.0046666949056088924,9.301558494567871,-0.11445643752813339,-0.8947176933288574
1413393216425760500,-0.010266256518661976,0.01593621075153351,0.063593789935112,10.934110641479492,0.4287608861923218,-4.283851146697998
1413393216430760500,-0.016292091459035873,0.12093555927276611,0.009660573676228523,7.640264511108398,-0.14332757890224457,-1.0345007181167603
1413393216435760500,-0.021281491965055466,-0.007465362548828125,0.0903932973742485,9.730260848999023,0.12467622756958008,-3.594726085662842
1413393216440760500,0.013500216417014599,0.12945809960365295,0.055036596953868866,8.803862571716309,-0.29730334877967834,-1.738199234008789
1413393216445760500,0.005204814486205578,-0.011452212929725647,0.1477333903312683,9.17487907409668,0.8955528140068054,-3.892996072769165
1413393216450760500,0.001119541935622692,0.12338021397590637,0.10546369105577469,9.168254852294922,-0.36761674284935,-2.4789721965789795
1413393216455760500,-0.04642811045050621,-0.07684454321861267,0.07813666760921478,7.098415374755859,0.6870409846305847,-2.3569374084472656
1413393216460760500,-0.02296825870871544,0.0008246302604675293,0.06873907893896103,9.311371803283691,-0.5258113741874695,-2.9045000076293945
1413393216465760500,-0.05895077809691429,-0.17486196756362915,-0.00032985908910632133,7.452332496643066,0.6974197626113892,-1.54180109500885
1413393216470760500,-0.01772962138056755,-0.07742124795913696,0.08236030489206314,11.414612770080566,-0.6401022672653198,-4.255536079406738
1413393216475760500,-0.06277012825012207,-0.10644674301147461,-0.010433120653033257,7.110449314117432,0.5798630714416504,-1.4990710020065308
1413393216480760500,-0.006943118758499622,-0.12111704051494598,0.1454690396785736,11.508332252502441,-0.4215356111526489,-3.889157772064209
1413393216485760500,-0.0258147232234478,-0.04386623203754425,0.05343566834926605,7.901675224304199,0.530752420425415,-1.6299718618392944
1413393216490760500,0.013185429386794567,-0.12745925784111023,0.18523964285850525,12.293967247009277,-0.5342968106269836,-4.582223415374756
1413393216495760500,-0.023422356694936752,0.017416968941688538,0.07466453313827515,8.103662490844727,0.9635012149810791,-1.780686378479004
1413393216500760500,-0.02305961772799492,-0.023880571126937866,0.1758650243282318,10.941790580749512,0.16945967078208923,-4.92209005355835
1413393216505760500,-0.057913538068532944,0.09496770799160004,0.0552121102809906,8.428425788879395,0.007199237588793039,-1.0821986198425293
1413393216510760500,-0.02962658926844597,-0.051129862666130066,0.13875651359558105,10.086398124694824,-0.28609180450439453,-3.8622028827667236
1413393216515760500,-0.03543063625693321,0.10318845510482788,0.031018199399113655,9.226005554199219,-0.45066317915916443,-2.358201742172241
