#timestamp [ns],w_RS_S_x [rad s^-1],w_RS_S_y [rad s^-1],w_RS_S_z [rad s^-1],a_RS_S_x [m s^-2],a_RS_S_y [m s^-2],a_RS_S_z [m s^-2]
1413394881575760500,0.02024581932313422,0.016755160819145562,0.08656833089891874,10.149882749999998,-0.024516625,-3.2035056666666666
1413394881580760500,0.020943951023931952,0.03839724354387525,0.08587019919812101,8.9240515,0.14709974999999997,-2.427145875
1413394881585760500,0.009075712110370514,0.02583087292951608,0.09285151620609833,9.626861416666666,0.17161637500000002,-2.8439284999999996
1413394881590760500,-0.014660765716752367,0.02652900463031381,0.09354964790689606,9.471589458333332,0.17978858333333333,-2.7458620000000002
1413394881595760500,-0.017453292519943295,0.032114058236695664,0.06981317007977318,9.022118,-0.22882183333333334,-2.3045627499999997
1413394881600760500,0.013962634015954637,0.017453292519943295,0.0767944870877505,9.945577541666665,-0.8744262916666666,-2.8684451249999996
1413394881605760500,0.024434609527920613,-0.0020943951023931952,0.050963614158234416,8.940395916666665,-0.32688833333333334,-2.435318083333333
1413394881610760500,0.048869219055841226,0.029321531433504733,0.07120943348136866,9.9047165,0.17978858333333333,-3.015544875
1413394881615760500,-0.0020943951023931952,0.05375614096142535,0.05375614096142535,9.340834124999999,1.1849702083333333,-2.7867230416666664
1413394881620760500,-0.05515240436302082,0.0153588974175501,0.08866272600131193,8.77695175,1.2094868333333333,-2.5905900416666663
1413394881625760500,-0.09564404300928926,0.030019663134302467,0.07749261878854824,9.822994416666667,0.10623870833333333,-2.7213453750000003
1413394881630760500,-0.07051130178057091,0.016755160819145562,0.10611601852125524,9.349006333333334,-1.1195925416666666,-2.7376897916666665
1413394881635760500,-0.01884955592153876,0.027925268031909273,0.08447393579652555,8.785123958333333,-1.4791697083333333,-2.378112625
1413394881640760500,0.04817108735504349,-0.01117010721276371,0.10122909661567112,9.970094166666666,-1.1522813749999998,-2.655967708333333
1413394881645760500,0.07609635538695278,0.03490658503988659,0.08587019919812101,9.561483749999999,-0.14709974999999997,-2.852100708333333
1413394881650760500,0.06073745796940267,0.04468042885105484,0.10053096491487339,9.07115125,0.5475379583333333,-2.132946375
1413394881655760500,0.02583087292951608,-0.019547687622336492,0.0879645943005142,10.869037083333334,0.032688833333333334,-3.4977051666666665
1413394881660760500,-0.0006981317007977319,0.08726646259971647,0.046076692252650306,8.588990958333333,0.0980665,-2.1411185833333333
1413394881665760500,-0.009075712110370514,0.032812189937493394,0.05515240436302082,9.299973083333333,0.20430520833333332,-2.6396232916666666
1413394881670760500,-0.024434609527920613,0.00767944870877505,0.08028514559173915,10.084505083333333,0.5965712083333333,-3.219850083333333
1413394881675760500,-0.06841690667817772,0.060039326268604934,0.08028514559173915,8.548129916666667,0.809048625,-2.3127349583333334
1413394881680760500,-0.0879645943005142,-0.004886921905584123,0.12426744274199628,9.299973083333333,0.4004382083333333,-2.8929617499999996
1413394881685760500,-0.06911503837897544,0.029321531433504733,0.12077678423800758,9.651378041666666,-1.299381125,-2.582417833333333
1413394881690760500,0.0,0.010471975511965976,0.08028514559173915,8.736090708333332,-2.1247741666666666,-2.0103632499999997
1413394881695760500,0.09075712110370514,-0.03839724354387525,0.05235987755982988,10.100849499999999,-2.0021910416666664,-2.852100708333333
1413394881700760500,0.1626646862858715,0.039793506945470715,0.06562437987498679,10.24794925,-0.53936575,-2.8684451249999996
1413394881705760500,0.1270599695451872,0.06422811647339133,0.039095375244672985,8.77695175,2.0348798749999997,-2.4925235416666665
1413394881710760500,0.0307177948351002,0.0,0.08168140899333462,9.847511041666666,2.9338227916666666,-3.0400614999999998
1413394881715760500,-0.08447393579652555,0.08447393579652555,0.07260569688296412,10.166227166666665,1.3402421666666664,-2.9583394166666666
1413394881720760500,-0.16146257519721985,0.026912683621048927,0.11390093713998795,7.708444118499756,0.24559098482131958,-2.2885935306549072
1413394881725760500,-0.13511177897453308,0.027986356988549232,0.09807204455137253,9.881657600402832,-1.55915367603302,-2.6560544967651367
1413394881730760500,-0.04457509517669678,-0.006126681342720985,0.08577951043844223,9.200133323669434,-2.2534921169281006,-2.5508224964141846
1413394881735760500,0.05946602672338486,0.023816267028450966,0.07654748857021332,9.121749877929688,-1.9320696592330933,-2.3536007404327393
1413394881740760500,0.11125537008047104,-0.03850920498371124,0.077672079205513,9.937886238098145,-0.35018056631088257,-3.1875929832458496
1413394881745760500,0.10075544565916061,0.06905700266361237,0.04949546232819557,9.497908592224121,0.46034881472587585,-2.481106996536255
1413394881750760500,0.05713319033384323,0.01602758653461933,0.07102492451667786,9.397254943847656,1.0765560865402222,-2.9281582832336426
1413394881755760500,0.007650591433048248,0.046017199754714966,0.06200452148914337,9.824870109558105,0.615800678730011,-2.9431705474853516
1413394881760760500,-0.04036511480808258,0.08212832361459732,0.06847227364778519,9.138148307800293,0.7974755764007568,-2.3866889476776123
1413394881765760500,-0.06736354529857635,0.008607113733887672,0.08895072340965271,9.127138137817383,0.2223053276538849,-2.5928473472595215
1413394881770760500,-0.0761721134185791,0.023764899000525475,0.09790428727865219,9.912333488464355,-0.05845395475625992,-3.042530059814453
1413394881775760500,-0.06580283492803574,0.04652658849954605,0.09434559941291809,8.874970436096191,-0.6218696236610413,-2.237374782562256
1413394881780760500,-0.04331088811159134,-0.030859123915433884,0.08899173140525818,9.398417472839355,-0.7128031849861145,-2.7778592109680176
1413394881785760500,0.006581999361515045,0.05306720733642578,0.06482460349798203,9.827268600463867,-1.348455786705017,-2.7262914180755615
1413394881790760500,0.04593239724636078,0.013343838974833488,0.08477012068033218,8.831979751586914,-0.787010133266449,-2.395920515060425
1413394881795760500,0.0850365087389946,0.007388012483716011,0.10040825605392456,9.986087799072266,-0.391755610704422,-3.1383087635040283
1413394881800760500,0.06966444104909897,0.06183072179555893,0.07021299749612808,9.260178565979004,0.26050910353660583,-1.7838042974472046
1413394881805760500,0.04504197835922241,0.035571254789829254,0.10197863727807999,9.846221923828125,0.7657591700553894,-3.0992825031280518
1413394881810760500,-0.015617143362760544,0.0007260255515575409,0.06113861873745918,8.321483612060547,0.9750549793243408,-2.5637526512145996
1413394881815760500,-0.05860400199890137,0.04268430173397064,0.08404605090618134,9.881531715393066,0.5321254134178162,-3.0427331924438477
1413394881820760500,-0.0870220959186554,0.02400354854762554,0.08625774085521698,8.768867492675781,-0.022960003465414047,-2.4031896591186523
1413394881825760500,-0.07608677446842194,-0.007090861909091473,0.08586594462394714,10.051252365112305,-0.8288614153862,-3.0706870555877686
1413394881830760500,-0.02189299836754799,0.08182172477245331,0.07983236014842987,8.970128059387207,-1.1203184127807617,-1.9773478507995605
1413394881835760500,0.030860505998134613,-0.028677761554718018,0.08855529129505157,9.617531776428223,-1.0680714845657349,-3.109697103500366
1413394881840760500,0.057590194046497345,0.03924667835235596,0.05582193285226822,9.011205673217773,-0.43967604637145996,-2.1730709075927734
1413394881845760500,0.07655992358922958,0.015621533617377281,0.08048982918262482,9.644071578979492,0.09568888694047928,-2.93064022064209
1413394881850760500,0.06479211896657944,0.037907399237155914,0.06997954100370407,9.259139060974121,0.5164044499397278,-2.838322639465332
1413394881855760500,0.002773962914943695,0.03729701787233353,0.07137884944677353,9.659306526184082,0.9033471345901489,-2.714402914047241
1413394881860760500,-0.03986828774213791,0.017424454912543297,0.0910506397485733,9.69205379486084,0.8751391172409058,-3.126837730407715
1413394881865760500,-0.07028508186340332,0.08744415640830994,0.08844760805368423,8.54986572265625,0.32026055455207825,-2.00095272064209
1413394881870760500,-0.08962171524763107,-0.027964113280177116,0.07792142033576965,9.93796443939209,-0.784237802028656,-3.0561773777008057
1413394881875760500,-0.046028830111026764,0.017263012006878853,0.08774804323911667,9.894593238830566,-0.8764352798461914,-2.8586835861206055
1413394881880760500,0.0032174810767173767,0.03889952600002289,0.06989791989326477,8.412924766540527,-0.986881673336029,-1.7502760887145996
1413394881885760500,0.04287910461425781,0.016466761007905006,0.09385377168655396,10.321090698242188,-0.6698523163795471,-3.5711328983306885
1413394881890760500,0.05151260644197464,-0.0061220694333314896,0.06536966562271118,8.269601821899414,-0.058764051645994186,-1.5602229833602905
1413394881895760500,0.05005749315023422,0.051839470863342285,0.09058279544115067,10.89881706237793,0.10599096119403839,-3.8202450275421143
1413394881900760500,0.010221071541309357,0.023467985913157463,0.04958411306142807,8.712955474853516,0.24919277429580688,-2.044037103652954
1413394881905760500,0.00875069946050644,0.0164471548050642,0.09903263300657272,9.195058822631836,0.5458894968032837,-2.907262086868286
1413394881910760500,-0.014979824423789978,0.06989829242229462,0.08655112236738205,9.73103141784668,0.06663580238819122,-2.7398273944854736
1413394881915760500,-0.0495564267039299,-0.0044042449444532394,0.07194309681653976,8.640230178833008,0.30137547850608826,-2.270313262939453
1413394881920760500,-0.03555428981781006,0.03042748011648655,0.10145282745361328,9.838235855102539,-0.073789581656456,-2.716309070587158
1413394881925760500,-0.036930061876773834,0.02158218063414097,0.09621070325374603,9.404960632324219,-0.25680357217788696,-2.489931344985962
1413394881930760500,-0.03406929224729538,0.022665446624159813,0.07480600476264954,8.9068603515625,-0.4861893653869629,-2.571992874145508
1413394881935760500,0.009680628776550293,0.03396042436361313,0.08353132754564285,9.821362495422363,-0.8749022483825684,-2.5153255462646484
1413394881940760500,0.04851525276899338,0.02023310400545597,0.08444099128246307,9.504150390625,-0.7843881249427795,-2.7992801666259766
1413394881945760500,0.05885518342256546,0.024875951930880547,0.0741833969950676,9.150595664978027,-0.07942011952400208,-2.5385870933532715
1413394881950760500,0.05360368639230728,0.019891073927283287,0.08548629283905029,9.325439453125,0.4453529417514801,-2.411083936691284
1413394881955760500,0.01935543864965439,0.026074687018990517,0.09024083614349365,9.644856452941895,0.8070793151855469,-2.9854013919830322
1413394881960760500,-0.0402778685092926,0.017377400770783424,0.06950013339519501,9.396428108215332,0.9731712937355042,-2.750541925430298
1413394881965760500,-0.08068414032459259,0.021683992817997932,0.08755549788475037,10.035868644714355,0.5625510811805725,-3.0859644412994385
1413394881970760500,-0.08559246361255646,0.05970513075590134,0.08365192264318466,9.13520622253418,-0.44982337951660156,-2.555551528930664
1413394881975760500,-0.03699894994497299,0.02407543547451496,0.08757542818784714,8.824853897094727,-1.710922122001648,-2.41505765914917
1413394881980760500,0.0401071235537529,-0.004184938967227936,0.08579020947217941,9.46310806274414,-1.2908821105957031,-2.521635055541992
1413394881985760500,0.08962158113718033,0.0059310030192136765,0.08972896635532379,9.976235389709473,0.09191353619098663,-2.9004619121551514
1413394881990760500,0.04389818757772446,0.026340344920754433,0.06555592268705368,9.740266799926758,1.0970547199249268,-3.183774471282959
1413394881995760500,-0.013123802840709686,0.041436657309532166,0.06978428363800049,8.982511520385742,1.0657145977020264,-2.456465244293213
1413394882000760500,-0.053964339196681976,0.03127457946538925,0.07170577347278595,9.546335220336914,0.12589702010154724,-2.6141300201416016
1413394882005760500,-0.04923509806394577,0.027807166799902916,0.057556137442588806,9.372901916503906,-0.681538999080658,-2.3824918270111084
1413394882010760500,-0.006568126380443573,0.018913691863417625,0.08354666084051132,9.550987243652344,-0.7841021418571472,-2.8250839710235596
1413394882015760500,0.019018828868865967,0.028884204104542732,0.10389778017997742,9.021573066711426,-0.24538269639015198,-2.5074265003204346
1413394882020760500,0.017926223576068878,0.01856364496052265,0.11150039732456207,9.438009262084961,0.1625339537858963,-2.7533767223358154
1413394882025760500,-0.007067881524562836,0.031734101474285126,0.08039730787277222,9.512690544128418,0.21037361025810242,-2.550870895385742
1413394882030760500,-0.017162933945655823,0.013636374846100807,0.0746658518910408,9.365839004516602,-0.19265806674957275,-2.8336069583892822
1413394882035760500,-0.008491553366184235,0.030488478019833565,0.06110755354166031,9.248985290527344,-0.6670464277267456,-2.4735000133514404
1413394882040760500,0.008307412266731262,0.01864985190331936,0.07110698521137238,9.36350154876709,-0.3741551339626312,-2.749438524246216
1413394882045760500,0.01514182984828949,0.007127480581402779,0.08588561415672302,9.357421875,0.25606492161750793,-2.7380568981170654
1413394882050760500,0.0077940598130226135,0.03792706876993179,0.10379517823457718,9.782890319824219,0.2898983657360077,-2.7222702503204346
1413394882055760500,-0.012424781918525696,0.037386730313301086,0.09270419180393219,9.372772216796875,0.19478432834148407,-2.698302984237671
1413394882060760500,-0.022766537964344025,0.030413197353482246,0.10035107284784317,9.510762214660645,0.17989642918109894,-2.7299745082855225
1413394882065760500,-0.04085040092468262,0.026899227872490883,0.06783382594585419,9.283160209655762,-0.23882973194122314,-2.4579453468322754
1413394882070760500,-0.026988781988620758,0.012090185657143593,0.07024649530649185,9.537408828735352,-0.6586111187934875,-2.669611692428589
1413394882075760500,0.018361054360866547,0.02484859712421894,0.0745452418923378,9.346344947814941,-1.0358753204345703,-2.376251459121704
1413394882080760500,0.0545416995882988,0.024984491989016533,0.08254015445709229,9.436568260192871,-0.6410326957702637,-2.7589621543884277
1413394882085760500,0.0631783977150917,0.02073424495756626,0.0872773677110672,9.35694694519043,0.32410475611686707,-2.844261407852173
1413394882090760500,0.03413499891757965,0.0378289520740509,0.08619436621665955,9.65136432647705,1.147027850151062,-2.7085001468658447
1413394882095760500,-0.03560750186443329,0.02726556546986103,0.08304068446159363,9.129130363464355,1.3853801488876343,-2.670938014984131
1413394882100760500,-0.1034543514251709,0.01825968362390995,0.08724015206098557,9.11381721496582,0.5454135537147522,-2.560124158859253
1413394882105760500,-0.10414166748523712,0.016391022130846977,0.09882380068302155,9.422958374023438,-0.781282365322113,-2.5642175674438477
1413394882110760500,-0.03476764261722565,0.000508258119225502,0.10013256222009659,9.673221588134766,-1.9170749187469482,-2.7260403633117676
1413394882115760500,0.04283425956964493,0.02005344070494175,0.08477392047643661,9.255264282226562,-1.6295913457870483,-2.3117458820343018
1413394882120760500,0.0942801758646965,0.03069833107292652,0.08580246567726135,9.552205085754395,-0.4599043130874634,-2.7180628776550293
1413394882125760500,0.08871906250715256,0.011054165661334991,0.07375961542129517,9.234551429748535,0.4790666699409485,-2.5817883014678955
1413394882130760500,0.04494229704141617,0.023147663101553917,0.06778234243392944,9.790650367736816,0.8939853310585022,-2.8792123794555664
1413394882135760500,-0.011111550033092499,0.03084762580692768,0.057949598878622055,9.33430004119873,0.9760802388191223,-2.6514217853546143
1413394882140760500,-0.05092480033636093,0.026583796367049217,0.08584188669919968,9.007302284240723,0.6592153906822205,-2.9436404705047607
1413394882145760500,-0.08191969245672226,0.034579187631607056,0.09917449206113815,9.259753227233887,-0.002412292407825589,-2.5742080211639404
1413394882150760500,-0.08082474768161774,0.005361875519156456,0.09977656602859497,9.480347633361816,-0.6821995377540588,-2.801262140274048
1413394882155760500,-0.029949910938739777,0.022652314975857735,0.09418174624443054,9.534939765930176,-1.2389529943466187,-2.507737636566162
1413394882160760500,0.03140562027692795,0.010267825797200203,0.08467400074005127,9.288418769836426,-1.5964452028274536,-2.5624022483825684
1413394882165760500,0.08900419622659683,0.01117628626525402,0.055656179785728455,9.467758178710938,-1.329987645149231,-2.4988014698028564
1413394882170760500,0.12805524468421936,0.012463117018342018,0.05706936493515968,9.601396560668945,-0.17039935290813446,-2.5552163124084473
1413394882175760500,0.09967081993818283,0.023198312148451805,0.06635644286870956,9.807031631469727,1.2143136262893677,-3.1172728538513184
1413394882180760500,0.012255378067493439,0.053936585783958435,0.08315481245517731,9.166259765625,2.1010537147521973,-2.7072947025299072
1413394882185760500,-0.08892864733934402,0.037663862109184265,0.10822228342294693,9.224875450134277,1.8131992816925049,-2.845660448074341
1413394882190760500,-0.16074645519256592,0.03357131779193878,0.11049456894397736,9.30217170715332,0.587009847164154,-2.897005081176758
1413394882195760500,-0.1547861397266388,0.03463052213191986,0.09359612315893173,9.268420219421387,-1.7464118003845215,-2.440695285797119
1413394882200760500,-0.052540987730026245,0.000529218465089798,0.08714058250188828,9.287517547607422,-2.6382334232330322,-2.441164255142212
1413394882205760500,0.06839223951101303,-0.0027456022799015045,0.07308165729045868,9.504947662353516,-2.1423916816711426,-2.5878727436065674
1413394882210760500,0.1529068648815155,0.015871936455368996,0.06523878127336502,9.461063385009766,-0.4217233657836914,-2.6606342792510986
1413394882215760500,0.13337746262550354,0.021124502643942833,0.06717820465564728,10.052922248840332,1.1722387075424194,-3.198814630508423
1413394882220760500,0.04292788356542587,0.05743291974067688,0.06559453159570694,9.2914457321167,1.859605073928833,-2.62233567237854
1413394882225760500,-0.048046037554740906,0.053296662867069244,0.07695488631725311,9.300683975219727,1.4428216218948364,-2.7589480876922607
1413394882230760500,-0.11026843637228012,0.046929724514484406,0.08649227768182755,9.08946418762207,0.570784330368042,-2.6747822761535645
1413394882235760500,-0.10904449224472046,0.014726439490914345,0.10116402804851532,8.991385459899902,-0.2713262438774109,-2.588921546936035
1413394882240760500,-0.07445801794528961,0.016312910243868828,0.10218662768602371,9.553380012512207,-0.8537726402282715,-2.7701938152313232
1413394882245760500,-0.028742901980876923,-0.003937900066375732,0.10502330958843231,9.404812812805176,-0.9755345582962036,-2.6701552867889404
1413394882250760500,0.011669434607028961,0.010754523798823357,0.07412198185920715,9.673550605773926,-0.999813437461853,-2.7031149864196777
1413394882255760500,0.05317894369363785,0.024310162290930748,0.0596310980618,9.445184707641602,-0.756611168384552,-2.278134822845459
1413394882260760500,0.09191776067018509,-0.0009077955037355423,0.07220974564552307,9.691309928894043,-0.6192018985748291,-3.003448963165283
1413394882265760500,0.07608897238969803,0.0570867657661438,0.055220700800418854,9.651000022888184,0.39187565445899963,-2.4672305583953857
1413394882270760500,0.04835144430398941,0.028927212581038475,0.09419823437929153,9.455977439880371,1.0981937646865845,-2.91237473487854
1413394882275760500,-0.016750887036323547,0.06073027849197388,0.08773952722549438,9.43812084197998,1.3470203876495361,-2.9486734867095947
1413394882280760500,-0.08685765415430069,0.03662225604057312,0.09000957757234573,8.98272705078125,1.1040139198303223,-2.5390570163726807
1413394882285760500,-0.11013097316026688,0.015397490933537483,0.08670303225517273,9.611271858215332,-0.05595717951655388,-3.0916943550109863
1413394882290760500,-0.09754714369773865,0.022497029975056648,0.08529870212078094,8.564322471618652,-1.0224040746688843,-2.2923974990844727
1413394882295760500,-0.041231557726860046,0.011474518105387688,0.060959361493587494,9.608497619628906,-1.6713037490844727,-2.750547170639038
1413394882300760500,0.044903382658958435,-0.03239792585372925,0.08944112062454224,8.857206344604492,-1.5087164640426636,-2.6583168506622314
1413394882305760500,0.10351160913705826,0.03467988222837448,0.08743077516555786,9.870555877685547,-0.644894540309906,-2.7435762882232666
1413394882310760500,0.11775345355272293,0.030663253739476204,0.09737732261419296,9.25227165222168,0.704692006111145,-2.517061233520508
1413394882315760500,0.05895239859819412,0.03584647178649902,0.08647864311933517,9.831178665161133,1.3006761074066162,-3.1172878742218018
1413394882320760500,-0.020728543400764465,0.0590750128030777,0.06345341354608536,9.030913352966309,1.1905052661895752,-2.269019365310669
1413394882325760500,-0.07362096011638641,0.0007678214460611343,0.07535229623317719,9.399389266967773,0.6858354210853577,-2.9941678047180176
1413394882330760500,-0.10302162915468216,0.054952070116996765,0.078729048371315,9.373576164245605,-0.03231944516301155,-2.6738405227661133
1413394882335760500,-0.08776484429836273,-0.0018357709050178528,0.09640932828187943,8.859649658203125,-0.8161989450454712,-2.7334439754486084
1413394882340760500,-0.03362036496400833,0.020007474347949028,0.0986749678850174,9.829890251159668,-1.3494088649749756,-2.778276205062866
1413394882345760500,0.013199768960475922,0.031961433589458466,0.08318885415792465,9.34591007232666,-1.164780616760254,-2.4063446521759033
1413394882350760500,0.0671069398522377,0.015107551589608192,0.07533863186836243,9.788854598999023,-0.4547896087169647,-3.0221285820007324
1413394882355760500,0.07250607758760452,0.020139185711741447,0.07164883613586426,9.005512237548828,-0.10654927790164948,-2.6933462619781494
1413394882360760500,0.04202054440975189,0.037994809448719025,0.05583006143569946,9.10567569732666,0.7271439433097839,-2.5503084659576416
1413394882365760500,0.018128015100955963,0.010889865458011627,0.07489221543073654,9.952764511108398,0.41920986771583557,-3.147850751876831
1413394882370760500,-0.023396562784910202,0.05313527584075928,0.07474564015865326,8.949372291564941,0.3576892614364624,-2.4592573642730713
1413394882375760500,-0.034087054431438446,0.0267950389534235,0.11484160274267197,9.577632904052734,0.49239349365234375,-2.9937212467193604
1413394882380760500,-0.04456102102994919,0.028945835307240486,0.10048829764127731,9.29970932006836,-0.2767922878265381,-2.6709110736846924
1413394882385760500,-0.048825182020664215,0.04262106865644455,0.07388526201248169,8.93913745880127,-0.4004199504852295,-2.114765167236328
1413394882390760500,-0.0056348517537117004,-0.01924579218029976,0.10076166689395905,9.642780303955078,-0.4444787800312042,-2.982605218887329
1413394882395760500,-0.0004895254969596863,0.030366702005267143,0.06899387389421463,9.519018173217773,-0.5629802346229553,-2.530866861343384
1413394882400760500,0.003299124538898468,0.0060196202248334885,0.06454625725746155,9.322895050048828,-0.18625660240650177,-2.6710121631622314
1413394882405760500,0.03481685370206833,0.02368437685072422,0.07784126698970795,9.650486946105957,-0.5155128240585327,-2.613377571105957
1413394882410760500,0.04080867022275925,0.05924759805202484,0.072969451546669,9.267492294311523,0.001336625195108354,-2.586158514022827
1413394882415760500,0.039562828838825226,0.012975094839930534,0.1030755490064621,9.650533676147461,0.6835341453552246,-2.8298897743225098
1413394882420760500,-0.010675512254238129,0.03720645606517792,0.06376533210277557,9.5610990524292,0.3413592278957367,-2.591970205307007
1413394882425760500,-0.03129822015762329,0.03831229358911514,0.07582993805408478,8.908291816711426,0.22115306556224823,-2.622784376144409
1413394882430760500,-0.03500988334417343,-0.0009833667427301407,0.09194347262382507,9.1697359085083,-0.12087375670671463,-2.5653297901153564
1413394882435760500,-0.044614166021347046,0.024067329242825508,0.057585809379816055,9.626559257507324,-0.5338399410247803,-2.6790690422058105
1413394882440760500,-0.014352314174175262,0.012924207374453545,0.09974025189876556,9.31447982788086,-0.3206021785736084,-2.915637969970703
1413394882445760500,0.01060272753238678,0.031958118081092834,0.09180313348770142,9.993268966674805,-0.6192474365234375,-2.7125563621520996
1413394882450760500,0.014257945120334625,0.039434775710105896,0.0737655833363533,8.972099304199219,-0.3115173578262329,-2.4066362380981445
1413394882455760500,0.024928294122219086,0.015237221494317055,0.086039699614048,9.226778984069824,0.16473983228206635,-2.5571680068969727
1413394882460760500,0.00885859876871109,0.01640554703772068,0.0742446631193161,9.284504890441895,-0.031020060181617737,-2.3688080310821533
1413394882465760500,-0.009358234703540802,0.0007584486156702042,0.07111582905054092,10.000845909118652,0.3152136206626892,-3.1488442420959473
1413394882470760500,-0.010813139379024506,0.025546351447701454,0.09749704599380493,9.486326217651367,0.22019948065280914,-2.738901138305664
1413394882475760500,-0.04026897996664047,0.04065084457397461,0.09460654854774475,9.07225227355957,0.10544028133153915,-2.6952946186065674
1413394882480760500,-0.03835297375917435,0.02841140143573284,0.09891001880168915,9.668145179748535,-0.26865190267562866,-2.7777113914489746
1413394882485760500,-0.01239069551229477,0.02146606706082821,0.07879948616027832,9.518417358398438,-0.9846782088279724,-2.5619056224823
1413394882490760500,0.01958393305540085,0.053335003554821014,0.05847667157649994,9.468389511108398,-0.6080407500267029,-2.6134963035583496
1413394882495760500,0.039978988468647,-0.0029264260083436966,0.065360426902771,8.931661605834961,-0.25810378789901733,-2.4005331993103027
1413394882500760500,0.04435201734304428,0.028361739590764046,0.051730040460824966,9.739995002746582,-0.2367381602525711,-2.8096296787261963
1413394882505760500,0.04420386999845505,0.018084434792399406,0.06609871983528137,9.283065795898438,0.06821563839912415,-2.491631269454956
1413394882510760500,0.037221215665340424,0.019088605418801308,0.07275456935167313,9.51264476776123,0.3725513815879822,-3.0078907012939453
1413394882515760500,0.006875142455101013,0.05393451452255249,0.07855364680290222,8.965452194213867,0.715910017490387,-2.3052427768707275
1413394882520760500,-0.03712243586778641,-0.0063906945288181305,0.09865099936723709,9.41362190246582,1.0370087623596191,-3.2316572666168213
1413394882525760500,-0.09318891912698746,0.038230836391448975,0.08525305986404419,9.496947288513184,0.5692532062530518,-2.733006000518799
1413394882530760500,-0.10863890498876572,0.0412793830037117,0.10830789804458618,9.072990417480469,-0.3122721314430237,-2.695650577545166
1413394882535760500,-0.07025107741355896,0.012548582628369331,0.09955470263957977,9.437891006469727,-1.6383992433547974,-2.6625816822052
1413394882540760500,0.019349731504917145,0.01694575883448124,0.0938965231180191,9.203341484069824,-2.0416860580444336,-2.2122349739074707
1413394882545760500,0.11257896572351456,0.017524516209959984,0.07832146435976028,9.466898918151855,-1.741654634475708,-2.685540199279785
1413394882550760500,0.15505799651145935,0.006827414035797119,0.060122087597846985,9.422944068908691,-0.43046635389328003,-2.359344244003296
1413394882555760500,0.12560686469078064,0.021581972017884254,0.07514488697052002,9.953283309936523,1.5330488681793213,-3.0776867866516113
1413394882560760500,0.017816372215747833,0.04905034601688385,0.06953614950180054,9.539815902709961,2.314384698867798,-3.0270605087280273
1413394882565760500,-0.10307727009057999,0.047797054052352905,0.06869853287935257,9.340179443359375,1.8047518730163574,-2.9027130603790283
1413394882570760500,-0.15653282403945923,0.04055303335189819,0.08857099711894989,9.229276657104492,0.21148760616779327,-2.6161959171295166
1413394882575760500,-0.1309628039598465,0.028756873682141304,0.08526910841464996,8.924793243408203,-1.632498025894165,-2.365201234817505
1413394882580760500,-0.04928610473871231,-0.0017995592206716537,0.08531646430492401,9.248397827148438,-1.8547171354293823,-2.351377010345459
1413394882585760500,0.04974956065416336,-0.00739714689552784,0.09463463723659515,9.681450843811035,-1.246700406074524,-2.7271530628204346
1413394882590760500,0.0894249752163887,0.021323153749108315,0.0901801735162735,9.658221244812012,-0.33404242992401123,-2.557732582092285
1413394882595760500,0.08195824176073074,0.02064710296690464,0.0866767168045044,9.628023147583008,0.41040003299713135,-2.7049269676208496
1413394882600760500,0.04111097753047943,0.036836177110672,0.0671759694814682,9.538707733154297,0.5420684218406677,-2.6309685707092285
1413394882605760500,0.010324172675609589,0.035320281982421875,0.06670928001403809,9.24423885345459,0.486869215965271,-2.4338765144348145
1413394882610760500,-0.0183393657207489,0.021859316155314445,0.07610878348350525,9.552685737609863,0.40989556908607483,-2.9427051544189453
1413394882615760500,-0.047081075608730316,0.0399957075715065,0.08306299149990082,9.4307222366333,0.5060619115829468,-2.7803537845611572
1413394882620760500,-0.06632183492183685,0.039361484348773956,0.09339858591556549,9.258986473083496,0.155000701546669,-2.714833974838257
1413394882625760500,-0.056136131286621094,0.024808676913380623,0.09170591831207275,9.291332244873047,-0.5875851511955261,-2.647308588027954
1413394882630760500,-0.021627109497785568,0.0185548048466444,0.07557829469442368,9.094439506530762,-0.7479912042617798,-2.31831693649292
1413394882635760500,0.007371567189693451,-0.003913268446922302,0.05886896327137947,9.420795440673828,-0.6767590641975403,-2.7261226177215576
1413394882640760500,0.043860867619514465,0.003751792013645172,0.06675010174512863,9.658075332641602,-0.6145630478858948,-2.6129097938537598
1413394882645760500,0.057722680270671844,0.017868025228381157,0.0693771094083786,9.600865364074707,-0.19802381098270416,-2.8007493019104004
1413394882650760500,0.040238045156002045,0.026351341977715492,0.07827267050743103,9.365667343139648,0.40243351459503174,-2.7216148376464844
1413394882655760500,0.00896664708852768,0.03460285812616348,0.08368095010519028,9.594511032104492,0.7327032089233398,-2.8946197032928467
1413394882660760500,-0.031005412340164185,0.0485561341047287,0.07590336352586746,9.536053657531738,0.4008176624774933,-2.828502893447876
1413394882665760500,-0.04592515528202057,0.047021880745887756,0.07887399196624756,9.356525421142578,0.24526765942573547,-2.713636875152588
1413394882670760500,-0.050897642970085144,0.03091052733361721,0.07555736601352692,9.152790069580078,-0.26068127155303955,-2.5319018363952637
1413394882675760500,-0.03834414482116699,0.02612137235701084,0.07908806949853897,9.201587677001953,-0.4977250397205353,-2.5475385189056396
1413394882680760500,-0.005484722554683685,0.015703631564974785,0.09469563513994217,9.551962852478027,-0.8536502718925476,-2.6139285564422607
1413394882685760500,0.023883946239948273,0.014350352808833122,0.09374088048934937,9.584569931030273,-0.7413362264633179,-2.6619625091552734
1413394882690760500,0.039396993815898895,0.022909922525286674,0.07604619115591049,9.331427574157715,-0.37443777918815613,-2.5713284015655518
1413394882695760500,0.03891333192586899,0.015788616612553596,0.07267835736274719,9.536550521850586,0.16416658461093903,-2.842287540435791
1413394882700760500,0.02783232182264328,0.035960182547569275,0.07745514810085297,9.512728691101074,0.4434664845466614,-2.7128500938415527
1413394882705760500,0.00122157484292984,0.029550595209002495,0.08109281957149506,9.479679107666016,0.419829785823822,-2.812047004699707
1413394882710760500,-0.02478005737066269,0.04422856867313385,0.08120885491371155,9.25885009765625,0.3009476661682129,-2.542137622833252
1413394882715760500,-0.03756920248270035,0.023321570828557014,0.09062185883522034,9.071137428283691,0.06663229316473007,-2.4998323917388916
1413394882720760500,-0.04056546092033386,0.014182107523083687,0.09547942876815796,9.24315357208252,-0.11342502385377884,-2.492238759994507
1413394882725760500,-0.03136657178401947,0.003783075138926506,0.09503668546676636,9.602204322814941,-0.5657774806022644,-2.7445363998413086
1413394882730760500,-0.013023383915424347,0.02268810383975506,0.07412442564964294,9.739323616027832,-0.7074950933456421,-2.9079391956329346
1413394882735760500,0.0191633403301239,0.024227222427725792,0.07364595681428909,9.232414245605469,-0.5622878074645996,-2.5873398780822754
1413394882740760500,0.040907129645347595,0.024182410910725594,0.07373396307229996,9.585115432739258,-0.0888713076710701,-2.8909213542938232
1413394882745760500,0.04507851600646973,0.04104941338300705,0.07341746985912323,9.251008987426758,0.12485463917255402,-2.5143070220947266
1413394882750760500,0.022772550582885742,0.026833808049559593,0.0726063996553421,9.58538818359375,0.3809586465358734,-2.950718402862549
1413394882755760500,0.0010283663868904114,0.03864362835884094,0.0806436836719513,9.022756576538086,0.58595871925354,-2.371882200241089
1413394882760760500,-0.03113856166601181,0.013467570766806602,0.09327097237110138,9.055582046508789,0.4075651168823242,-2.755009889602661
1413394882765760500,-0.05421730875968933,0.014748888090252876,0.09713919460773468,9.365839958190918,0.04943651333451271,-2.6489627361297607
1413394882770760500,-0.04865157604217529,0.007178351283073425,0.09518259763717651,9.536961555480957,-0.41049233078956604,-2.8340935707092285
1413394882775760500,-0.023624464869499207,0.038005582988262177,0.07561331987380981,9.69016170501709,-0.7556446194648743,-2.9079153537750244
1413394882780760500,0.005794055759906769,0.019420942291617393,0.07009892910718918,9.12600326538086,-0.7981100082397461,-2.504204511642456
1413394882785760500,0.03800589591264725,0.027696428820490837,0.06307446956634521,9.510688781738281,-0.47811901569366455,-2.8245928287506104
1413394882790760500,0.049200646579265594,0.0326765701174736,0.07272996008396149,9.340312004089355,-0.030587807297706604,-2.571732759475708
1413394882795760500,0.03736555576324463,0.021245555952191353,0.07339819520711899,9.561189651489258,0.35464560985565186,-2.8611464500427246
1413394882800760500,0.003986187279224396,0.0345487967133522,0.08287782222032547,9.128814697265625,0.5114200711250305,-2.3959524631500244
1413394882805760500,-0.03106784075498581,0.014921775087714195,0.08858752250671387,9.553284645080566,0.31717365980148315,-2.828371524810791
1413394882810760500,-0.04865220934152603,0.034345775842666626,0.08315988630056381,9.659178733825684,0.04870343580842018,-2.8197479248046875
1413394882815760500,-0.05007297545671463,0.0274254959076643,0.09084143489599228,9.447020530700684,-0.24647213518619537,-2.8019638061523438
1413394882820760500,-0.03262823075056076,0.041550904512405396,0.07839544117450714,9.42120361328125,-0.6647676825523376,-2.670354127883911
1413394882825760500,0.0036495551466941833,0.025667401030659676,0.08892063051462173,9.085443496704102,-0.8298712372779846,-2.398167610168457
1413394882830760500,0.03574748337268829,0.02486412413418293,0.08338052779436111,9.502738952636719,-0.5686104893684387,-2.6617846488952637
1413394882835760500,0.05536941438913345,0.022196484729647636,0.0886797085404396,9.185898780822754,-0.14495696127414703,-2.4249842166900635
1413394882840760500,0.04229651391506195,0.014994582161307335,0.08510717749595642,9.55337905883789,0.31286048889160156,-2.6647703647613525
1413394882845760500,0.013037718832492828,0.019173646345734596,0.084328293800354,9.291793823242188,0.48554250597953796,-2.591249704360962
1413394882850760500,-0.019160650670528412,0.01472906582057476,0.08366615325212479,9.585893630981445,0.5202633142471313,-2.8782966136932373
1413394882855760500,-0.03674156963825226,0.02877054549753666,0.0845915749669075,9.292402267456055,0.1216098964214325,-2.663738250732422
1413394882860760500,-0.044435761868953705,0.02616378851234913,0.08394179493188858,9.512203216552734,-0.27135398983955383,-2.875244617462158
1413394882865760500,-0.029133662581443787,0.04306897521018982,0.07417208701372147,9.355066299438477,-0.5586520433425903,-2.5474114418029785
1413394882870760500,0.0008092001080513,0.02148587815463543,0.08398493379354477,9.200392723083496,-0.7060086727142334,-2.595362663269043
1413394882875760500,0.023804940283298492,0.023456765338778496,0.07488606870174408,9.347850799560547,-0.4697246253490448,-2.6053943634033203
1413394882880760500,0.035874299705028534,0.009521536529064178,0.08391111344099045,9.454827308654785,-0.0626593679189682,-2.7198591232299805
1413394882885760500,0.024172522127628326,0.02609083242714405,0.07766442000865936,9.626004219055176,0.23161548376083374,-2.7463486194610596
1413394882890760500,0.008782602846622467,0.023310447111725807,0.07605350017547607,9.381786346435547,0.28946828842163086,-2.679962158203125
1413394882895760500,-0.011467821896076202,0.030242716893553734,0.07611997425556183,9.54503059387207,0.3396183252334595,-2.8279006481170654
1413394882900760500,-0.031064704060554504,0.03102351538836956,0.07826890051364899,9.397625923156738,0.07935965806245804,-2.7776482105255127
1413394882905760500,-0.0360427126288414,0.033821865916252136,0.08523018658161163,9.340215682983398,-0.3041855990886688,-2.7117037773132324
1413394882910760500,-0.025688163936138153,0.03324418514966965,0.08471596986055374,9.257918357849121,-0.5823222398757935,-2.5555264949798584
1413394882915760500,0.0035522058606147766,0.010241402313113213,0.08534067869186401,9.11086654663086,-0.6079766750335693,-2.473310708999634
1413394882920760500,0.01897522062063217,0.006649211049079895,0.08252370357513428,9.51122760772705,-0.3872937858104706,-2.686849594116211
1413394882925760500,0.026084817945957184,0.012890936806797981,0.08117552101612091,9.577260971069336,-0.10235124081373215,-2.7856502532958984
1413394882930760500,0.013647980988025665,0.02885674126446247,0.07756012678146362,9.63422966003418,0.17492537200450897,-2.843895435333252
1413394882935760500,0.00035528093576431274,0.028327925130724907,0.07820971310138702,9.33248233795166,0.1830269694328308,-2.597853422164917
1413394882940760500,-0.01354137808084488,0.035249508917331696,0.07411252707242966,9.471047401428223,0.061351582407951355,-2.8669960498809814
1413394882945760500,-0.021969210356473923,0.026912959292531013,0.0796298161149025,9.071415901184082,0.02980274148285389,-2.4176812171936035
1413394882950760500,-0.016501542180776596,0.025461470708251,0.08879615366458893,9.536216735839844,-0.24737606942653656,-2.74489688873291
1413394882955760500,-0.009638108313083649,0.035428352653980255,0.0852794200181961,9.135168075561523,-0.4356532394886017,-2.417048931121826
1413394882960760500,0.00493428111076355,0.015755200758576393,0.0922415554523468,9.446076393127441,-0.32926636934280396,-2.7604165077209473
1413394882965760500,0.012016020715236664,0.024741241708397865,0.08455877006053925,9.389595031738281,-0.02721068449318409,-2.573748826980591
1413394882970760500,0.0093197301030159,0.026798250153660774,0.0824805423617363,9.561060905456543,-0.04441580921411514,-2.8423349857330322
1413394882975760500,0.0017507076263427734,0.033089615404605865,0.07489726692438126,9.470646858215332,0.03579886257648468,-2.597909927368164
1413394882980760500,-0.001740194857120514,0.017722247168421745,0.07893212884664536,9.389689445495605,0.1504020243883133,-2.7117972373962402
1413394882985760500,-0.009426109492778778,0.03174977749586105,0.07681361585855484,9.389313697814941,0.07752688974142075,-2.639319896697998
1413394882990760500,-0.012226633727550507,0.016446029767394066,0.08601699024438858,9.250682830810547,-0.15887755155563354,-2.637871265411377
1413394882995760500,-0.009499810636043549,0.020621025934815407,0.0866590067744255,9.527970314025879,-0.3055074214935303,-2.696464776992798
1413394883000760500,-0.0012741237878799438,0.017912955954670906,0.07897908985614777,9.274240493774414,-0.2803747057914734,-2.5475168228149414
1413394883005760500,0.0029083341360092163,0.012135537341237068,0.07419764250516891,9.446266174316406,-0.23116019368171692,-2.6873018741607666
1413394883010760500,0.003020934760570526,0.01835930533707142,0.0755206048488617,9.634292602539062,-0.027098970487713814,-2.793938398361206
1413394883015760500,-0.0011258423328399658,0.027569418773055077,0.06997457891702652,9.560815811157227,0.07016778737306595,-2.802339792251587
1413394883020760500,-0.008763246238231659,0.035247802734375,0.07073637843132019,9.372678756713867,0.08580256253480911,-2.7696478366851807
1413394883025760500,-0.008737199008464813,0.03605155646800995,0.07966941595077515,9.299429893493652,-0.061556097120046616,-2.6789135932922363
1413394883030760500,-0.008768707513809204,0.0262728463858366,0.08450263738632202,9.299386978149414,-0.15129190683364868,-2.5968878269195557
1413394883035760500,-0.0039046630263328552,0.01927320472896099,0.08323054015636444,9.22584056854248,-0.3062354624271393,-2.5231564044952393
1413394883040760500,-0.000438496470451355,0.020566852763295174,0.0873551219701767,9.479052543640137,-0.3466687500476837,-2.654574155807495
1413394883045760500,0.005745358765125275,0.02201053686439991,0.08524306118488312,9.282746315002441,-0.22341005504131317,-2.5234193801879883
1413394883050760500,0.00504804402589798,0.014230987057089806,0.07840152084827423,9.495080947875977,-0.10850127786397934,-2.7776243686676025
1413394883055760500,0.0016186907887458801,0.033200912177562714,0.08042340725660324,9.552997589111328,0.005481214728206396,-2.6467537879943848
1413394883060760500,-0.005954869091510773,0.022608475759625435,0.08032328635454178,9.372968673706055,0.10366220027208328,-2.9410107135772705
1413394883065760500,-0.013677924871444702,0.038743212819099426,0.0817607194185257,9.340357780456543,-0.028324611485004425,-2.532207727432251
1413394883070760500,-0.010880328714847565,0.024891836568713188,0.08529026061296463,9.299480438232422,-0.20057034492492676,-2.6861648559570312
1413394883075760500,-0.006002165377140045,0.031131012365221977,0.08034895360469818,9.39708423614502,-0.26526516675949097,-2.572948455810547
1413394883080760500,-0.0004373118281364441,0.01290862075984478,0.09368009865283966,9.26695728302002,-0.19947828352451324,-2.5891499519348145
1413394883085760500,0.0030373111367225647,0.025494573637843132,0.08465995639562607,9.658589363098145,-0.2981063723564148,-2.631220817565918
1413394883090760500,0.011341497302055359,0.0157125573605299,0.08310578018426895,9.323381423950195,-0.232529416680336,-2.6374495029449463
1413394883095760500,0.013428345322608948,0.022612934932112694,0.07900159060955048,9.552970886230469,0.0705837607383728,-2.6146206855773926
1413394883100760500,0.0009981244802474976,0.03034437634050846,0.07754760980606079,9.479535102844238,0.201640784740448,-2.744966983795166
1413394883105760500,-0.014303460717201233,0.03802058845758438,0.07548365741968155,9.593210220336914,0.16777056455612183,-2.8601677417755127
1413394883110760500,-0.017910972237586975,0.038808710873126984,0.0818750262260437,9.291041374206543,-0.09425011277198792,-2.5238332748413086
1413394883115760500,-0.01097395271062851,0.02761848084628582,0.08382570743560791,9.332353591918945,-0.14235854148864746,-2.703742027282715
1413394883120760500,-0.004601567983627319,0.02264033444225788,0.08733271062374115,9.005505561828613,-0.19926756620407104,-2.5065321922302246
1413394883125760500,-0.0003831014037132263,0.010088315233588219,0.08812500536441803,9.495479583740234,-0.3471788167953491,-2.8343029022216797
1413394883130760500,0.007182322442531586,0.019154006615281105,0.08453027158975601,9.56855297088623,-0.3799934387207031,-2.589664936065674
1413394883135760500,0.018969200551509857,0.01780472882091999,0.07834978401660919,9.421515464782715,-0.10941233485937119,-2.768430709838867
1413394883140760500,0.010045252740383148,0.02891155146062374,0.06924987584352493,9.381230354309082,0.1279575228691101,-2.638854503631592
1413394883145760500,-0.003108486533164978,0.031131373718380928,0.0740538090467453,9.60193157196045,0.20919375121593475,-2.728848695755005
1413394883150760500,-0.013639897108078003,0.03661435842514038,0.06583621352910995,9.445719718933105,0.12773291766643524,-2.7701098918914795
1413394883155760500,-0.01379123330116272,0.03109264187514782,0.07760917395353317,9.144194602966309,-0.02004214935004711,-2.6379430294036865
1413394883160760500,-0.015817418694496155,0.03387465327978134,0.07895293831825256,9.307663917541504,-0.22356532514095306,-2.6544971466064453
1413394883165760500,-0.011545464396476746,0.01993999443948269,0.09151868522167206,9.19320011138916,-0.32188495993614197,-2.547140598297119
1413394883170760500,-0.0025457069277763367,0.014282425865530968,0.08604687452316284,9.47911548614502,-0.4697401821613312,-2.752345085144043
1413394883175760500,0.009902246296405792,0.02758249081671238,0.07691654562950134,9.462499618530273,-0.2812674343585968,-2.6051735877990723
1413394883180760500,0.020464546978473663,0.01215076632797718,0.07975371927022934,9.584558486938477,-0.11752605438232422,-2.8754589557647705
1413394883185760500,0.011488012969493866,0.03451129049062729,0.07207997888326645,9.495137214660645,0.15158261358737946,-2.6224637031555176
1413394883190760500,0.0003466382622718811,0.03249666839838028,0.078968346118927,9.414539337158203,0.16055165231227875,-2.753134250640869
1413394883195760500,-0.015047702938318253,0.03244811296463013,0.08038929104804993,9.519989967346191,0.07869112491607666,-2.778412342071533
1413394883200760500,-0.020044680684804916,0.0318220853805542,0.08449138700962067,9.27444076538086,-0.15880456566810608,-2.539653778076172
1413394883205760500,-0.019283335655927658,0.031087392941117287,0.09152942895889282,9.299349784851074,-0.2974354922771454,-2.605595827102661
1413394883210760500,-0.006018251180648804,0.01360231451690197,0.09643302112817764,9.267291069030762,-0.33789581060409546,-2.4742143154144287
1413394883215760500,0.00023051351308822632,0.010722639039158821,0.08872491866350174,9.544482231140137,-0.39533135294914246,-2.8504621982574463
1413394883220760500,0.014806367456912994,0.022707639262080193,0.07979071140289307,9.380415916442871,-0.2980462312698364,-2.6869430541992188
1413394883225760500,0.01977645605802536,0.01703695021569729,0.07905542105436325,9.495361328125,-0.02823786996304989,-2.8672988414764404
1413394883230760500,0.013561278581619263,0.0359564945101738,0.07265325635671616,9.479308128356934,0.2909543812274933,-2.679696798324585
1413394883235760500,-0.0016814544796943665,0.031847067177295685,0.0790165439248085,9.438471794128418,0.2663598656654358,-2.7697227001190186
1413394883240760500,-0.009471170604228973,0.04010092467069626,0.07963928580284119,9.479022979736328,0.044813234359025955,-2.6802308559417725
1413394883245760500,-0.02070857211947441,0.025485815480351448,0.08443846553564072,9.242226600646973,-0.11813405901193619,-2.630168914794922
1413394883250760500,-0.01653064787387848,0.021196840330958366,0.08673103153705597,9.241972923278809,-0.17379750311374664,-2.6959736347198486
1413394883255760500,-0.010875336825847626,0.023374537006020546,0.0866960734128952,9.348370552062988,-0.4031907618045807,-2.5722086429595947
1413394883260760500,0.002267010509967804,0.011434737592935562,0.08597637712955475,9.44649600982666,-0.33878093957901,-2.7849466800689697
1413394883265760500,0.012757785618305206,0.025521295145154,0.07769924402236938,9.576777458190918,-0.22463412582874298,-2.6135222911834717
1413394883270760500,0.01628124713897705,0.019916148856282234,0.0755157321691513,9.405082702636719,-0.10949517041444778,-2.7845399379730225
1413394883275760500,0.00522603839635849,0.031026864424347878,0.06924833357334137,9.454593658447266,0.1441856175661087,-2.7450525760650635
1413394883280760500,-0.005217738449573517,0.025444773957133293,0.07272224128246307,9.324296951293945,0.2580372989177704,-2.786297082901001
1413394883285760500,-0.014342986047267914,0.041589222848415375,0.07759873569011688,9.462651252746582,-0.06912848353385925,-2.6879284381866455
1413394883290760500,-0.02070843055844307,0.022081194445490837,0.08315340429544449,9.119562149047852,-0.21563059091567993,-2.555915355682373
1413394883295760500,-0.013716660439968109,0.027513859793543816,0.08318682760000229,9.41363525390625,-0.30476242303848267,-2.7279257774353027
1413394883300760500,-0.00047773122787475586,0.020655551925301552,0.0901615172624588,9.22584056854248,-0.3958372175693512,-2.457585573196411
1413394883305760500,0.011320851743221283,0.014902418479323387,0.08601586520671844,9.625714302062988,-0.3706217408180237,-2.9242918491363525
1413394883310760500,0.014865316450595856,0.022702226415276527,0.07485634833574295,9.55212688446045,-0.1923113912343979,-2.597428321838379
1413394883315760500,0.015610821545124054,0.01989082433283329,0.0762706845998764,9.413429260253906,-0.036370355635881424,-2.8912761211395264
1413394883320760500,0.007962264120578766,0.03245263546705246,0.07061424851417542,9.348589897155762,0.14404119551181793,-2.606323719024658
1413394883325760500,-0.003850318491458893,0.02483164332807064,0.08179458975791931,9.495964050292969,0.15152427554130554,-2.8263211250305176
1413394883330760500,-0.014996189624071121,0.03668048232793808,0.08318361639976501,9.438289642333984,0.036669064313173294,-2.5005943775177
1413394883335760500,-0.015812646597623825,0.020578870549798012,0.09210969507694244,9.11158561706543,-0.22370795905590057,-2.6212716102600098
1413394883340760500,-0.013049200177192688,0.02401675470173359,0.08733333647251129,9.258631706237793,-0.3784708082675934,-2.6464180946350098
1413394883345760500,-0.001882888376712799,0.005964500829577446,0.09295924752950668,9.258797645568848,-0.3295830190181732,-2.588256359100342
1413394883350760500,0.014848776161670685,0.02049320749938488,0.09016397595405579,9.658669471740723,-0.19914968311786652,-2.826998233795166
1413394883355760500,0.013465248048305511,0.025549212470650673,0.07837559282779694,9.397285461425781,-0.08606516569852829,-2.5639333724975586
1413394883360760500,0.0072611793875694275,0.02969648502767086,0.07487066835165024,9.495137214660645,-0.011857382953166962,-2.8098702430725098
1413394883365760500,-0.0024609938263893127,0.02696963958442211,0.0691542997956276,9.307737350463867,0.17651192843914032,-2.524529218673706
1413394883370760500,-0.00881814956665039,0.029668709263205528,0.0818047821521759,9.577401161193848,0.06130068749189377,-2.843421459197998
1413394883375760500,-0.017118610441684723,0.039398178458213806,0.08181501924991608,9.30742073059082,-0.08575108647346497,-2.5980303287506104
1413394883380760500,-0.01088329404592514,0.025509634986519814,0.09003430604934692,9.176880836486816,-0.20750859379768372,-2.5643017292022705
1413394883385760500,-0.010963283479213715,0.02624945156276226,0.0817687138915062,9.39719009399414,-0.30549871921539307,-2.646270275115967
1413394883390760500,0.0001283213496208191,0.019210828468203545,0.08532123267650604,9.422171592712402,-0.2728423476219177,-2.637390375137329
1413394883395760500,0.00862245261669159,0.012051193043589592,0.0860455110669136,9.60154914855957,-0.22365128993988037,-2.875965118408203
1413394883400760500,0.011390820145606995,0.027524644508957863,0.06926936656236649,9.470484733581543,0.012552273459732533,-2.744516611099243
1413394883405760500,0.0017193928360939026,0.02408175729215145,0.07342339307069778,9.2420654296875,0.053426820784807205,-2.711622953414917
1413394883410760500,-0.0003659352660179138,0.02895416133105755,0.07202888280153275,9.503681182861328,0.16056771576404572,-2.810697555541992
1413394883415760500,-0.00879671424627304,0.031764402985572815,0.08455376327037811,9.414196968078613,0.02088489755988121,-2.7776083946228027
1413394883420760500,-0.01717923954129219,0.028284827247262,0.07977499067783356,9.364282608032227,-0.16707852482795715,-2.7447099685668945
1413394883425760500,-0.010824650526046753,0.029665352776646614,0.08450013399124146,9.282498359680176,-0.3625010848045349,-2.605142831802368
1413394883430760500,-0.002608485519886017,0.01917552389204502,0.08800504356622696,9.3646821975708,-0.37876224517822266,-2.645482301712036
1413394883435760500,0.01198209822177887,0.026889747008681297,0.08677071332931519,9.332003593444824,-0.26420339941978455,-2.596804141998291
1413394883440760500,0.012134723365306854,0.010065646842122078,0.08042947947978973,9.332222938537598,-0.14174766838550568,-2.744316577911377
1413394883445760500,0.005146004259586334,0.026177698746323586,0.07413089275360107,9.584985733032227,-0.019732855260372162,-2.687701940536499
1413394883450760500,0.001651860773563385,0.022690104320645332,0.07412509620189667,9.274402618408203,0.0375497080385685,-2.7521448135375977
1413394883455760500,-0.005290217697620392,0.03379464149475098,0.07410775870084763,9.463201522827148,0.1111898273229599,-2.7780368328094482
1413394883460760500,-0.016398552805185318,0.02698148600757122,0.08177784830331802,9.242716789245605,0.03760476037859917,-2.6381659507751465
1413394883465760500,-0.017137568444013596,0.02894935943186283,0.08737131953239441,9.38901138305664,-0.22419799864292145,-2.679126024246216
1413394883470760500,-0.004659183323383331,0.027643771842122078,0.09151747077703476,9.241621017456055,-0.4537356495857239,-2.4005866050720215
1413394883475760500,0.00851210206747055,0.02265884540975094,0.08875174075365067,9.568853378295898,-0.34642937779426575,-2.7769765853881836
1413394883480760500,0.013488322496414185,0.021296629682183266,0.0866178572177887,9.315948486328125,-0.04368346184492111,-2.540761709213257
1413394883485760500,0.014218233525753021,0.015670141205191612,0.08042627573013306,9.51165771484375,-0.052404019981622696,-2.8265581130981445
1413394883490760500,0.0029993578791618347,0.03245248645544052,0.06721614301204681,9.536049842834473,-0.06156317889690399,-2.6141176223754883
1413394883495760500,-0.0046219974756240845,0.015666449442505836,0.07413613796234131,9.438118934631348,0.1519264429807663,-2.867271900177002
1413394883500760500,-0.013605840504169464,0.03452902287244797,0.0706346184015274,9.430380821228027,0.15211892127990723,-2.6068153381347656
1413394883505760500,-0.01784270629286766,0.02553221769630909,0.07969170808792114,9.389601707458496,-0.0851464793086052,-2.7687275409698486
1413394883510760500,-0.01716010645031929,0.035279110074043274,0.07764618843793869,9.453939437866211,-0.45348942279815674,-2.6138758659362793
1413394883515760500,0.002257220447063446,0.010899940505623817,0.08661212027072906,9.282709121704102,-0.37963050603866577,-2.6128437519073486
1413394883520760500,0.016191735863685608,0.027562061324715614,0.08250947296619415,9.291175842285156,-0.26404282450675964,-2.556549310684204
1413394883525760500,0.019078440964221954,0.012175695970654488,0.08808908611536026,9.275163650512695,-0.019502855837345123,-2.6295597553253174
1413394883530760500,0.010109536349773407,0.016977673396468163,0.08455263078212738,9.74055004119873,0.1187070831656456,-2.8605153560638428
1413394883535760500,-0.0032534003257751465,0.021336277946829796,0.07202355563640594,9.405473709106445,0.11040527373552322,-2.695847988128662
1413394883540760500,-0.01440303772687912,0.028896482661366463,0.06577179580926895,9.438310623168945,0.14387427270412445,-2.8191356658935547
1413394883545760500,-0.017100345343351364,0.02058013342320919,0.07760559767484665,9.299372673034668,-0.07688004523515701,-2.686882734298706
1413394883550760500,-0.016429152339696884,0.029793204739689827,0.07697045803070068,9.356305122375488,-0.36362123489379883,-2.5474700927734375
1413394883555760500,-0.0018777921795845032,0.024172233417630196,0.0895501971244812,9.258124351501465,-0.45290619134902954,-2.653693914413452
1413394883560760500,0.013416297733783722,0.022684747353196144,0.09077375382184982,9.275065422058105,-0.18284235894680023,-2.6624093055725098
1413394883565760500,0.012034609913825989,0.011487247422337532,0.08091188967227936,9.495328903198242,0.05430038273334503,-2.606729030609131
1413394883570760500,0.0016750767827033997,0.024103203788399696,0.07353045791387558,9.740116119384766,-0.06854705512523651,-2.7536110877990723
1413394883575760500,-0.01294216513633728,0.033181868493556976,0.053345516324043274,9.413121223449707,-0.3714609146118164,-2.6699676513671875
1413394883580760500,-0.019263137131929398,-0.0017830561846494675,0.051877669990062714,9.3238525390625,-0.044131048023700714,-2.8833563327789307
1413394883585760500,-0.022018887102603912,0.003945890814065933,0.04169701412320137,9.527286529541016,-0.4618782699108124,-2.547701120376587
1413394883590760500,-0.008062057197093964,-0.02411090023815632,0.04499398171901703,9.355826377868652,-0.4780692756175995,-2.6854469776153564
1413394883595760500,0.014863848686218262,-0.017234280705451965,0.058148499578237534,9.658708572387695,-0.16663312911987305,-2.631361484527588
1413394883600760500,0.021166160702705383,0.014990432187914848,0.08454017341136932,9.870756149291992,0.4707382321357727,-3.0254757404327393
1413394883605760500,-0.0011110305786132812,0.04308097064495087,0.06838306039571762,9.559770584106445,0.13572485744953156,-2.811657190322876
1413394883610760500,-0.006692118942737579,0.031100841239094734,0.08808618038892746,9.217907905578613,-0.03510718420147896,-3.030766248703003
1413394883615760500,0.0037643983960151672,0.06306758522987366,0.13969749212265015,9.268573760986328,0.13637498021125793,-2.900322198867798
1413394883620760500,-0.0031039193272590637,0.0562157928943634,0.17773127555847168,8.811318397521973,0.15949927270412445,-2.6369121074676514
1413394883625760500,-0.018325552344322205,0.0476640984416008,0.17647525668144226,9.284950256347656,-0.4203758239746094,-2.8834609985351562
1413394883630760500,-0.014332838356494904,0.040413811802864075,0.1386289894580841,8.883238792419434,-0.9288730025291443,-2.3415446281433105
1413394883635760500,-0.002046912908554077,0.0054477062076330185,0.06341098994016647,9.060970306396484,-1.0656157732009888,-2.6359150409698486
1413394883640760500,0.032993048429489136,-0.012997467070817947,0.028559697791934013,9.468647956848145,-0.5913398265838623,-2.6534430980682373
1413394883645760500,0.049929164350032806,-0.006794115528464317,0.024306152015924454,9.551884651184082,0.25928783416748047,-2.6958255767822266
1413394883650760500,0.02902362495660782,0.03568165749311447,0.02297806367278099,9.266789436340332,0.8884491920471191,-2.5600216388702393
1413394883655760500,-0.022644005715847015,-0.003912761807441711,0.02366403490304947,8.852420806884766,0.7170670032501221,-2.3384292125701904
1413394883660760500,-0.05916866660118103,0.007334152236580849,0.020152680575847626,9.707927703857422,0.08762795478105545,-2.9823927879333496
1413394883665760500,-0.053490400314331055,0.01993289776146412,0.05990210920572281,9.201534271240234,0.03681093454360962,-2.4189341068267822
1413394883670760500,-0.02195880562067032,0.02046419493854046,0.12126656621694565,10.206307411193848,-0.44685712456703186,-3.139631509780884
1413394883675760500,-0.0008755698800086975,0.063408762216568,0.12429125607013702,8.775988578796387,-0.4479469954967499,-1.9837907552719116
1413394883680760500,0.01479349285364151,0.00825437717139721,0.12568752467632294,9.415096282958984,-0.5703250765800476,-2.6776821613311768
1413394883685760500,0.025084085762500763,0.05071727931499481,0.10582141578197479,10.099520683288574,-0.38114675879478455,-2.991027593612671
1413394883690760500,0.04264896363019943,0.03724542260169983,0.12974175810813904,9.447394371032715,0.0124541400000453,-2.6210994720458984
1413394883695760500,0.033932365477085114,0.05402638018131256,0.12000611424446106,9.813923835754395,0.05454586073756218,-2.8617353439331055
1413394883700760500,0.006741367280483246,0.03624957799911499,0.0819692462682724,8.875843048095703,-0.011341162025928497,-2.15440034866333
1413394883705760500,-0.013780266046524048,-0.0025857090950012207,0.054175373166799545,9.340510368347168,0.1689940094947815,-2.966174364089966
1413394883710760500,-0.03072042018175125,0.0071305278688669205,0.050005923956632614,9.674962997436523,0.1391884982585907,-2.9762299060821533
1413394883715760500,-0.03749367594718933,0.0063186269253492355,0.06331083923578262,9.536574363708496,-0.10730477422475815,-2.7374770641326904
1413394883720760500,-0.02878095954656601,0.015035370364785194,0.05398162826895714,9.150921821594238,-0.46941065788269043,-2.2214789390563965
1413394883725760500,-0.013646475970745087,0.011550044640898705,0.04802336171269417,9.381016731262207,-0.3983255624771118,-2.5468509197235107
1413394883730760500,-0.001964092254638672,-0.00045747123658657074,0.04670249670743942,9.185460090637207,0.07864731550216675,-2.859689235687256
1413394883735760500,0.001670636236667633,0.01790626533329487,0.06139647960662842,9.59225082397461,-0.1430279165506363,-3.031785249710083
1413394883740760500,0.021326661109924316,0.06543217599391937,0.09359246492385864,9.502518653869629,-0.39987730979919434,-2.6130831241607666
1413394883745760500,0.032465316355228424,0.02380572445690632,0.11097749322652817,8.662851333618164,-0.022147631272673607,-2.2997093200683594
1413394883750760500,0.021240293979644775,0.044441357254981995,0.10359539091587067,9.260643005371094,0.16964057087898254,-2.6790812015533447
1413394883755760500,-0.01225975900888443,0.027602313086390495,0.10225655138492584,9.293173789978027,0.40755438804626465,-2.7956788539886475
1413394883760760500,-0.027123630046844482,0.029965883120894432,0.10972625017166138,9.861380577087402,0.13795489072799683,-3.411149024963379
1413394883765760500,-0.030551597476005554,0.07077305018901825,0.09936259686946869,9.469882011413574,-0.4599103629589081,-2.5400471687316895
1413394883770760500,-0.007398553192615509,0.03117569349706173,0.10688706487417221,8.9813232421875,-0.5410087704658508,-2.4554519653320312
1413394883775760500,0.011518992483615875,0.024762483313679695,0.0885763168334961,9.348930358886719,-0.42725059390068054,-2.53067946434021
1413394883780760500,0.01201929897069931,0.011336630210280418,0.06565523147583008,9.51967716217041,0.012751533649861813,-2.842592239379883
1413394883785760500,0.002346448600292206,0.02454277314245701,0.06606637686491013,9.787324905395508,0.18436461687088013,-3.1323399543762207
1413394883790760500,-0.0038332268595695496,0.034493960440158844,0.05819623917341232,9.453723907470703,-0.39161285758018494,-2.5075252056121826
1413394883795760500,0.003236018121242523,0.008829403668642044,0.05800783261656761,9.153142929077148,-0.2830357849597931,-2.351057767868042
1413394883800760500,0.0067230090498924255,0.0011769365519285202,0.060266535729169846,9.292744636535645,0.06306599080562592,-2.5319597721099854
1413394883805760500,-0.00739113986492157,0.02657938189804554,0.06425144523382187,9.944228172302246,0.2831086218357086,-3.0248239040374756
1413394883810760500,-0.028432324528694153,0.023124584928154945,0.09018857032060623,9.461135864257812,0.5125390291213989,-2.960805892944336
1413394883815760500,-0.03205405920743942,0.04572570323944092,0.10008719563484192,9.740396499633789,-0.2325529307126999,-2.835639238357544
1413394883820760500,-0.017849769443273544,0.058722123503685,0.07244184613227844,9.1032075881958,-0.8212990164756775,-2.24417781829834
1413394883825760500,0.014225281774997711,0.01176668144762516,0.09217166155576706,8.679387092590332,-0.2800227701663971,-2.284817934036255
1413394883830760500,0.03313528746366501,0.014120811596512794,0.10918295383453369,9.919721603393555,0.11742544174194336,-2.9841079711914062
1413394883835760500,0.01636548340320587,0.038586877286434174,0.09916239976882935,9.404485702514648,0.28847864270210266,-2.9336862564086914
1413394883840760500,0.005138777196407318,0.03777196258306503,0.10769135504961014,9.593472480773926,0.1434410810470581,-2.8776443004608154
1413394883845760500,-0.005953110754489899,0.04025924205780029,0.0870150774717331,9.179244995117188,-0.2976379990577698,-2.350832939147949
1413394883850760500,-0.010077334940433502,0.009828053414821625,0.05218784883618355,8.752177238464355,-0.43618449568748474,-2.153576374053955
1413394883855760500,0.00663304328918457,-0.022994937375187874,0.07665088027715683,9.37994384765625,0.06273544579744339,-2.7458364963531494
1413394883860760500,-0.01098843663930893,0.02086547203361988,0.07207395136356354,9.902713775634766,0.18460798263549805,-2.951122283935547
1413394883865760500,-0.0319911390542984,0.03594575822353363,0.06774796545505524,9.404868125915527,0.12127760052680969,-2.844360113143921
1413394883870760500,-0.02347184717655182,0.038378193974494934,0.07027710974216461,9.602489471435547,-0.34662699699401855,-2.712479591369629
1413394883875760500,-0.006665967404842377,0.03995347023010254,0.05988788232207298,9.462095260620117,-0.8311554193496704,-2.4076902866363525
1413394883880760500,0.009381413459777832,0.014304889366030693,0.048400696367025375,8.832069396972656,-0.25687775015830994,-2.4235939979553223
1413394883885760500,0.03598729521036148,0.00694640539586544,0.08785496652126312,9.854314804077148,0.2405286580324173,-2.8938565254211426
1413394883890760500,0.01778177171945572,0.03439722955226898,0.10163626074790955,9.732747077941895,0.5184822082519531,-3.1149020195007324
1413394883895760500,-0.014383919537067413,0.049161046743392944,0.10611235350370407,9.58591365814209,0.47897395491600037,-2.9529385566711426
1413394883900760500,-0.014912806451320648,0.05065757781267166,0.1202884167432785,9.326310157775879,0.02977711334824562,-2.5660312175750732
1413394883905760500,-0.025540880858898163,0.04183995723724365,0.07713039219379425,9.241418838500977,-0.6660848259925842,-2.455916166305542
1413394883910760500,-0.0005589127540588379,-0.0004706159234046936,0.07422056794166565,8.995073318481445,-0.6575976610183716,-2.3579156398773193
1413394883915760500,0.024694159626960754,-0.0021940693259239197,0.09330853819847107,9.438481330871582,-0.1167256236076355,-2.7361257076263428
1413394883920760500,0.00923936814069748,0.015499358996748924,0.09959610551595688,9.724913597106934,0.2093333601951599,-3.0414774417877197
1413394883925760500,-0.01575978845357895,0.031082497909665108,0.09109747409820557,9.732504844665527,0.09525561332702637,-2.992739200592041
1413394883930760500,-0.013546518981456757,0.05084126442670822,0.07904961705207825,9.380929946899414,-0.06078242510557175,-2.5081708431243896
1413394883935760500,-0.009435705840587616,0.029298512265086174,0.049960728734731674,9.044727325439453,-0.8228854537010193,-2.291931390762329
1413394883940760500,0.0051753222942352295,-0.0025484077632427216,0.046514518558979034,9.24112606048584,-0.3865608274936676,-2.4965410232543945
1413394883945760500,0.0172625333070755,-0.002019185572862625,0.07151919603347778,9.381232261657715,0.3166367709636688,-2.8114206790924072
1413394883950760500,-0.0031926333904266357,0.028675103560090065,0.09903432428836823,9.757491111755371,0.730677604675293,-3.0938313007354736
1413394883955760500,-0.03052418678998947,0.05198732763528824,0.10371112078428268,9.732473373413086,0.2915947437286377,-2.9939119815826416
1413394883960760500,-0.026886045932769775,0.056589171290397644,0.09276982396841049,9.192938804626465,-0.37156417965888977,-2.3109006881713867
1413394883965760500,-0.012351550161838531,0.03838343173265457,0.06950770318508148,9.224891662597656,-0.8136597871780396,-2.43874192237854
1413394883970760500,0.012172259390354156,0.014228681102395058,0.0673823207616806,9.110618591308594,-0.7405879497528076,-2.316286087036133
1413394883975760500,0.027612611651420593,-0.0027008727192878723,0.07508894801139832,9.388728141784668,-0.20138555765151978,-2.6217644214630127
1413394883980760500,0.02465132623910904,0.025863921269774437,0.10350625216960907,9.789655685424805,0.5259068608283997,-3.0930676460266113
1413394883985760500,-0.008120797574520111,0.04360976815223694,0.10351260006427765,9.602325439453125,0.4962252378463745,-2.8625524044036865
1413394883990760500,-0.019196558743715286,0.05582268536090851,0.0877719521522522,9.626236915588379,-0.313577264547348,-2.6385488510131836
1413394883995760500,-0.01781011000275612,0.04176948219537735,0.06255211681127548,9.094738960266113,-0.40283942222595215,-2.406395435333252
1413394884000760500,-0.005358077585697174,0.001015298068523407,0.05531122535467148,8.955594062805176,-0.5098408460617065,-2.3565673828125
1413394884005760500,0.005937822163105011,-0.023779945448040962,0.06261614710092545,9.52791690826416,-0.2749311327934265,-2.687615394592285
1413394884010760500,0.010689310729503632,0.011112676933407784,0.09129099547863007,9.903508186340332,0.340389221906662,-3.101259231567383
1413394884015760500,-0.0019193291664123535,0.0325089693069458,0.10487575829029083,9.56911563873291,0.38124674558639526,-2.7975962162017822
1413394884020760500,-0.01922024041414261,0.04463467001914978,0.09815242886543274,9.610696792602539,0.04511004313826561,-2.688494920730591
1413394884025760500,-0.020556412637233734,0.038373008370399475,0.08206329494714737,9.503260612487793,-0.3972701132297516,-2.5624489784240723
1413394884030760500,-0.0025148019194602966,0.03386654704809189,0.06490956991910934,9.052978515625,-0.5702911615371704,-2.3810627460479736
1413394884035760500,0.01426628977060318,-0.0020243972539901733,0.06816373765468597,9.014022827148438,-0.35692092776298523,-2.3842804431915283
1413394884040760500,0.01429227739572525,0.004421290010213852,0.08305688202381134,9.732194900512695,0.029420211911201477,-2.9512851238250732
1413394884045760500,0.005778968334197998,0.04086983948945999,0.09793150424957275,9.576512336730957,0.38172289729118347,-2.9035444259643555
1413394884050760500,-0.003384917974472046,0.051405057311058044,0.10375697910785675,9.447367668151855,0.26020127534866333,-2.738565683364868
1413394884055760500,-0.026926927268505096,0.05016583204269409,0.08055658638477325,9.373869895935059,-0.01880219765007496,-2.5717716217041016
1413394884060760500,-0.019867073744535446,0.02767684869468212,0.06683146208524704,9.110883712768555,-0.32182085514068604,-2.53619122505188
1413394884065760500,-0.001742146909236908,0.01122169941663742,0.06470181792974472,9.045221328735352,-0.5773538947105408,-2.342674732208252
1413394884070760500,0.010667257010936737,-0.009796002879738808,0.06702937185764313,9.373250007629395,-0.3150438666343689,-2.794065475463867
1413394884075760500,0.015615366399288177,0.006634050980210304,0.08491362631320953,9.52782917022705,0.07833510637283325,-2.7797067165374756
1413394884080760500,0.009305082261562347,0.02293931506574154,0.09906283766031265,9.690899848937988,0.33249884843826294,-2.820955276489258
1413394884085760500,-0.006717115640640259,0.03739285469055176,0.08958572894334793,9.602239608764648,0.17644855380058289,-2.8108558654785156
1413394884090760500,-0.018466699868440628,0.042270831763744354,0.07447443902492523,9.51194953918457,-0.012748904526233673,-2.702007532119751
1413394884095760500,-0.019152335822582245,0.027494313195347786,0.06796426326036453,9.380409240722656,-0.41279298067092896,-2.6857845783233643
1413394884100760500,-0.0018888488411903381,0.028840286657214165,0.061986640095710754,9.282352447509766,-0.47740674018859863,-2.523104429244995
1413394884105760500,0.009939834475517273,0.017004193738102913,0.0795440599322319,9.495156288146973,-0.21541541814804077,-2.7618300914764404
1413394884110760500,0.011368416249752045,0.021416688337922096,0.09296240657567978,9.593400955200195,0.09573079645633698,-2.746906280517578
1413394884115760500,0.0008949041366577148,0.03962159901857376,0.09176185727119446,9.707418441772461,0.21145761013031006,-2.910196304321289
1413394884120760500,-0.014358796179294586,0.04151560366153717,0.08839395642280579,9.340744018554688,0.14294792711734772,-2.695335626602173
1413394884125760500,-0.02056141570210457,0.03091704659163952,0.07674211263656616,9.398008346557617,-0.12704098224639893,-2.6534042358398438
1413394884130760500,-0.008749149739742279,0.026717720553278923,0.07572601735591888,9.258174896240234,-0.4038722813129425,-2.5388259887695312
1413394884135760500,0.006551675498485565,0.018396342173218727,0.07262500375509262,9.037485122680664,-0.46152758598327637,-2.571031332015991
1413394884140760500,0.01208091527223587,-0.002519844099879265,0.08399119228124619,9.25076961517334,-0.068411685526371,-2.622988224029541
1413394884145760500,0.004389934241771698,0.004664992913603783,0.0948101058602333,9.569056510925293,0.07946553081274033,-2.7868728637695312
1413394884150760500,-0.004002340137958527,0.025597309693694115,0.09266266226768494,9.715496063232422,0.119378462433815,-2.8196778297424316
1413394884155760500,-0.015036650002002716,0.03371923416852951,0.08492380380630493,9.389602661132812,0.13540518283843994,-2.7528059482574463
1413394884160760500,-0.019142337143421173,0.02754010073840618,0.08040396124124527,9.414258003234863,-0.1510002762079239,-2.6378629207611084
1413394884165760500,-0.005972735583782196,0.030384903773665428,0.07031243294477463,9.39616584777832,-0.5265719294548035,-2.685473918914795
1413394884170760500,0.00993020087480545,0.02125171385705471,0.06750351190567017,9.14338493347168,-0.41199490427970886,-2.596278190612793
1413394884175760500,0.015535719692707062,0.005223007872700691,0.08463659882545471,9.267475128173828,0.03822794929146767,-2.68013072013855
1413394884180760500,0.00655239075422287,0.01730785332620144,0.08921858668327332,9.683221817016602,0.07043085992336273,-2.8361527919769287
1413394884185760500,-0.007400698959827423,0.039520859718322754,0.0829232782125473,9.723345756530762,0.11103320866823196,-2.9830057621002197
1413394884190760500,-0.010173656046390533,0.04140400141477585,0.09070125222206116,9.37358283996582,0.15997183322906494,-2.655461549758911
1413394884195760500,-0.01640239730477333,0.03724779188632965,0.08179014921188354,9.381765365600586,-0.05237817019224167,-2.654017686843872
1413394884200760500,-0.012945063412189484,0.038059622049331665,0.06816141307353973,9.371782302856445,-0.4693358242511749,-2.595834255218506
1413394884205760500,0.003003232181072235,0.025378866121172905,0.0681750476360321,9.183917999267578,-0.4202115833759308,-2.702421188354492
1413394884210760500,0.013382799923419952,0.013564551249146461,0.08791946619749069,9.292061805725098,-0.0682535320520401,-2.565896987915039
1413394884215760500,0.0058113932609558105,0.008161652833223343,0.08722399175167084,9.60161018371582,0.07862716913223267,-2.802983045578003
1413394884220760500,-0.003162205219268799,0.026160305365920067,0.08376751840114594,9.633553504943848,0.10284939408302307,-2.8274922370910645
1413394884225760500,-0.005273453891277313,0.028075801208615303,0.09132364392280579,9.528457641601562,0.08594100177288055,-2.810495376586914
1413394884230760500,-0.009496167302131653,0.04007553309202194,0.07765140384435654,9.430562973022461,-0.06072021275758743,-2.6134192943573
1413394884235760500,-0.009432628750801086,0.028309820219874382,0.0764893963932991,9.307086944580078,-0.23196683824062347,-2.5879688262939453
1413394884240760500,0.0037207752466201782,0.02056659571826458,0.07702697813510895,9.217170715332031,-0.36311882734298706,-2.547555685043335
1413394884245760500,0.008480057120323181,0.01293240673840046,0.08589522540569305,9.422368049621582,-0.25710248947143555,-2.556929588317871
1413394884250760500,0.0050859227776527405,-0.00024011358618736267,0.08527170121669769,9.42188549041748,-0.09338221698999405,-2.5657880306243896
1413394884255760500,-0.005278401076793671,0.02836584858596325,0.07816008478403091,9.764156341552734,-0.019807038828730583,-2.8191616535186768
1413394884260760500,-0.00812489539384842,0.03594466298818588,0.07604776322841644,9.177216529846191,0.021026400849223137,-2.555950403213501
1413394884265760500,-0.006026238203048706,0.031058693304657936,0.07711406797170639,9.708233833312988,-0.09429432451725006,-2.7282874584198
1413394884270760500,-0.011548437178134918,0.030432255938649178,0.06590031087398529,9.27442741394043,-0.20762866735458374,-2.5392234325408936
1413394884275760500,-0.003943793475627899,0.021217795088887215,0.07210387289524078,8.980653762817383,-0.247882679104805,-2.6367433071136475
1413394884280760500,0.010616399347782135,0.011544967070221901,0.08257953822612762,9.332558631896973,-0.24119703471660614,-2.507993459701538
1413394884285760500,0.0036960169672966003,-0.003001650795340538,0.0865248367190361,9.487506866455078,-0.08557084947824478,-2.6549882888793945
1413394884290760500,-0.005264215171337128,0.025606123730540276,0.08027943223714828,9.63341236114502,0.0626523569226265,-2.811870813369751
1413394884295760500,-0.00041397660970687866,0.026828551664948463,0.08872392028570175,9.267290115356445,-0.06127075105905533,-2.6297194957733154
1413394884300760500,0.0015862658619880676,0.01839270628988743,0.08670443296432495,9.634611129760742,-0.06967157125473022,-2.8512353897094727
1413394884305760500,-0.005998648703098297,0.024091651663184166,0.07286366075277328,9.437578201293945,0.013659775257110596,-2.589242935180664
1413394884310760500,-0.011514700949192047,0.017649145796895027,0.07003962993621826,9.250600814819336,-0.1173635944724083,-2.7442514896392822
1413394884315760500,-0.007488183677196503,0.01009691134095192,0.07822486013174057,9.35709285736084,-0.1351630687713623,-2.5245838165283203
1413394884320760500,-0.01653987169265747,-0.005824562162160873,0.08383288979530334,9.544106483459473,0.02911464124917984,-2.8192713260650635
1413394884325760500,-0.026810243725776672,0.02695366181433201,0.08452312648296356,9.56027603149414,0.00573209673166275,-2.860872268676758
1413394884330760500,-0.019891954958438873,0.026854367926716805,0.0900874137878418,9.536664009094238,-0.3220584988594055,-2.817889928817749
1413394884335760500,-0.0005041211843490601,0.031022952869534492,0.09582602977752686,9.43024730682373,-0.40430766344070435,-2.743483304977417
1413394884340760500,0.005144767463207245,0.04241105914115906,0.07910586893558502,9.412726402282715,-0.21544188261032104,-2.587986946105957
1413394884345760500,0.014921151101589203,0.024079909548163414,0.060909949243068695,9.249859809875488,-0.2720024287700653,-2.669826030731201
1413394884350760500,0.026677928864955902,0.011510739102959633,0.05612225458025932,9.168585777282715,-0.34698328375816345,-2.5553438663482666
1413394884355760500,0.03013276308774948,0.0101668331772089,0.06089266017079353,9.356086730957031,0.2582067847251892,-2.7541825771331787
1413394884360760500,0.014297164976596832,0.021325236186385155,0.061539988964796066,9.405316352844238,0.36521199345588684,-2.9505503177642822
1413394884365760500,-0.00176132470369339,0.023215273395180702,0.07825066149234772,9.471159934997559,0.2583247721195221,-2.7949533462524414
1413394884370760500,-0.01717749983072281,0.03507623076438904,0.07812920212745667,9.4715576171875,0.3068445026874542,-2.623059034347534
1413394884375760500,-0.02904444932937622,0.03587089478969574,0.08444637805223465,9.152606964111328,0.09438957273960114,-2.588907480239868
1413394884380760500,-0.03871367871761322,0.009864971041679382,0.09370778501033783,9.160723686218262,-0.23182463645935059,-2.7277586460113525
1413394884385760500,-0.03387223184108734,0.021298052743077278,0.08812323957681656,9.68333911895752,-0.6006340384483337,-2.753095865249634
1413394884390760500,-0.0032285675406455994,0.04173743724822998,0.1021561250090599,9.502323150634766,-0.6336609721183777,-2.6624391078948975
1413394884395760500,0.028171025216579437,0.03419514745473862,0.10213654488325119,9.2983980178833,-0.8131212592124939,-2.4897451400756836
1413394884400760500,0.05047260969877243,0.03129429370164871,0.09206824004650116,9.593646049499512,-0.2970786392688751,-2.6042816638946533
1413394884405760500,0.04497362673282623,0.04007307440042496,0.0768304169178009,9.487472534179688,0.36523550748825073,-2.6714560985565186
1413394884410760500,0.012909814715385437,0.02644233964383602,0.08365274965763092,9.41433048248291,0.7661791443824768,-2.8053207397460938
1413394884415760500,-0.037450939416885376,0.036246903240680695,0.05091533064842224,9.78180980682373,0.5458113551139832,-3.0834038257598877
1413394884420760500,-0.06046812981367111,0.04305500537157059,0.06315484642982483,9.079318046569824,-0.10082864761352539,-2.474726676940918
1413394884425760500,-0.044356152415275574,0.023555288091301918,0.07432083785533905,9.242013931274414,-0.7155202031135559,-2.424978256225586
1413394884430760500,-0.011611707508563995,0.014374589547514915,0.0795733854174614,9.389252662658691,-0.5855535268783569,-2.4329075813293457
1413394884435760500,0.016302093863487244,-0.008125338703393936,0.0923033133149147,9.249979019165039,-0.07849647104740143,-2.5805726051330566
1413394884440760500,0.012843944132328033,0.0035020913928747177,0.08515556901693344,9.821273803710938,0.1906263679265976,-2.927670478820801
1413394884445760500,-0.0011375322937965393,0.027392098680138588,0.09624823927879333,9.634902954101562,0.07650182396173477,-2.827523946762085
1413394884450760500,-0.0010807588696479797,0.04247254878282547,0.0891798660159111,9.560970306396484,-0.4710734486579895,-2.580517053604126
1413394884455760500,0.015774287283420563,0.025847801938652992,0.09367632865905762,9.22607421875,-0.5265822410583496,-2.2852306365966797
1413394884460760500,0.030363239347934723,0.011657068505883217,0.09418432414531708,9.005735397338867,-0.09190638363361359,-2.4726974964141846
1413394884465760500,0.01635909080505371,0.005760854110121727,0.09705425798892975,9.617490768432617,0.38921087980270386,-2.837042808532715
1413394884470760500,-0.027051270008087158,0.017393456771969795,0.07021749764680862,9.675122261047363,0.6856200695037842,-3.1014909744262695
1413394884475760500,-0.05159541219472885,0.03454204648733139,0.06842759996652603,9.447073936462402,0.25314459204673767,-2.8050618171691895
1413394884480760500,-0.05205618590116501,0.04607231914997101,0.05908437445759773,9.151970863342285,-0.813900351524353,-2.407919406890869
1413394884485760500,-0.007964558899402618,0.010276921093463898,0.061735786497592926,8.881885528564453,-0.9367707967758179,-2.3811886310577393
1413394884490760500,0.03110349178314209,-0.00041114166378974915,0.08406583964824677,9.176398277282715,-0.1677733063697815,-2.611644744873047
1413394884495760500,0.029040731489658356,0.0014083851128816605,0.09211096167564392,9.561237335205078,0.4922947883605957,-3.0663371086120605
1413394884500760500,-0.001005314290523529,0.021033620461821556,0.09335470199584961,9.50396728515625,0.4035331904888153,-2.9608700275421143
1413394884505760500,-0.007452629506587982,0.045200660824775696,0.09921775013208389,9.650663375854492,-0.03679560124874115,-2.8113787174224854
1413394884510760500,0.004463918507099152,0.04479725658893585,0.09012356400489807,9.486671447753906,-0.7468456029891968,-2.6605937480926514
1413394884515760500,0.011544652283191681,0.04379642754793167,0.07357021421194077,9.028478622436523,-0.4923546016216278,-2.438892126083374
1413394884520760500,0.02061576396226883,0.014019796624779701,0.08754420280456543,9.193428993225098,0.2687436044216156,-2.6549956798553467
1413394884525760500,-0.009603656828403473,0.024966301396489143,0.09474595636129379,9.568955421447754,0.7333334684371948,-3.026766061782837
1413394884530760500,-0.050236307084560394,0.039953529834747314,0.07675783336162567,9.46295166015625,0.19451051950454712,-2.8787524700164795
1413394884535760500,-0.040860339999198914,0.024928869679570198,0.08394742757081985,9.373933792114258,-0.7718436121940613,-2.638542413711548
1413394884540760500,-0.0038581565022468567,0.0314035564661026,0.06694701313972473,9.632791519165039,-0.8296646475791931,-2.6036343574523926
1413394884545760500,0.028272412717342377,0.014392176643013954,0.057485535740852356,8.840120315551758,-0.33171799778938293,-2.2584142684936523
1413394884550760500,0.03057355433702469,-0.002076301723718643,0.0822136253118515,9.577169418334961,0.15807415544986725,-2.925065517425537
1413394884555760500,0.004596225917339325,0.03137253224849701,0.08850523829460144,9.585897445678711,0.7139902710914612,-2.748516798019409
1413394884560760500,-0.019392937421798706,0.03658181428909302,0.10040232539176941,9.275968551635742,0.3811463713645935,-2.6900570392608643
1413394884565760500,-0.016472823917865753,0.024934591725468636,0.0944293886423111,9.87091064453125,-0.517055094242096,-2.8688788414001465
1413394884570760500,-0.0045482441782951355,0.045268744230270386,0.07305853813886642,9.40473747253418,-0.5746768712997437,-2.3989367485046387
1413394884575760500,0.007128067314624786,0.016453230753540993,0.0686882957816124,8.922527313232422,-0.23979268968105316,-2.5379178524017334
1413394884580760500,0.0030096545815467834,0.021736258640885353,0.08976097404956818,9.692083358764648,0.29789429903030396,-2.680979013442993
1413394884585760500,-0.016542747616767883,0.02881995029747486,0.09547467529773712,9.275956153869629,0.397477924823761,-2.7626430988311768
1413394884590760500,-0.018624063581228256,0.023453636094927788,0.10421755909919739,9.2262544631958,-0.5521543025970459,-2.4841458797454834
1413394884595760500,-0.0017570555210113525,0.01932266168296337,0.07751769572496414,9.854742050170898,-0.7235121726989746,-2.826272487640381
1413394884600760500,0.01984885334968567,0.025035275146365166,0.055582549422979355,9.126720428466797,-0.2398672103881836,-2.5128440856933594
1413394884605760500,0.018475890159606934,-0.0003541335463523865,0.06107873097062111,9.249835968017578,0.15134473145008087,-2.621890068054199
1413394884610760500,0.0031430870294570923,0.03575862944126129,0.06947484612464905,9.765679359436035,0.2494935244321823,-2.9013924598693848
1413394884615760500,-0.01227712631225586,0.039470039308071136,0.09775030612945557,8.907992362976074,0.29077666997909546,-2.507812023162842
1413394884620760500,-0.02211786061525345,0.0030373744666576385,0.111205093562603,9.276061058044434,-0.051747459918260574,-2.7223384380340576
1413394884625760500,-0.017901595681905746,0.026234732940793037,0.07937107235193253,9.749138832092285,-0.45879629254341125,-2.801612615585327
1413394884630760500,-0.00885561853647232,0.019258739426732063,0.06765082478523254,9.289560317993164,-0.3467575013637543,-2.718627691268921
1413394884635760500,-0.003973335027694702,0.007192580029368401,0.06175798922777176,9.470261573791504,-0.2179323136806488,-2.6714606285095215
1413394884640760500,-0.0032043009996414185,0.047983311116695404,0.07415218651294708,9.675663948059082,0.07787364721298218,-2.6955175399780273
1413394884645760500,0.007260061800479889,0.03683469444513321,0.1086578294634819,8.825806617736816,-0.05312336981296539,-2.530383348464966
1413394884650760500,0.00933104008436203,0.012124160304665565,0.09582529962062836,9.822548866271973,-0.3317062258720398,-2.827845335006714
1413394884655760500,0.010021738708019257,0.028256399556994438,0.0750528872013092,9.617840766906738,-0.06653109192848206,-2.932873249053955
1413394884660760500,0.003070615231990814,0.028310181573033333,0.06356216222047806,9.363439559936523,0.006126235704869032,-2.760859966278076
1413394884665760500,-0.012279480695724487,0.026639917865395546,0.05791935697197914,9.552343368530273,0.12657000124454498,-2.8603355884552
1413394884670760500,-0.006698407232761383,0.049339428544044495,0.08268904685974121,9.471639633178711,0.005089704878628254,-2.6784510612487793
1413394884675760500,0.009268738329410553,0.035320818424224854,0.11784446984529495,9.029940605163574,-0.16552697122097015,-2.4737699031829834
1413394884680760500,-0.002596348524093628,0.009166235104203224,0.09411479532718658,9.226821899414062,-0.1421390324831009,-2.5406293869018555
1413394884685760500,-0.010228760540485382,0.008541854098439217,0.07244707643985748,9.650444984436035,0.05452162027359009,-2.925743818283081
1413394884690760500,-0.01651865616440773,0.024751005694270134,0.05867603048682213,9.485710144042969,-0.24068421125411987,-2.7530763149261475
1413394884695760500,-0.017206821590662003,0.019249791279435158,0.05440770462155342,9.323787689208984,-0.4472522735595703,-2.499035358428955
1413394884700760500,0.010864920914173126,0.03343529999256134,0.08858466148376465,9.454917907714844,-0.23294951021671295,-2.603841781616211
1413394884705760500,0.031070269644260406,0.029054386541247368,0.10928482562303543,9.095010757446289,0.06980635970830917,-2.5218772888183594
1413394884710760500,0.005805619060993195,0.013401133939623833,0.08836359530687332,9.267481803894043,0.29163306951522827,-2.6154940128326416
1413394884715760500,-0.019334621727466583,0.022506168112158775,0.06977374106645584,9.887968063354492,0.34190255403518677,-2.805163860321045
1413394884720760500,-0.041662901639938354,0.04155585169792175,0.057068776339292526,9.518819808959961,-0.18305489420890808,-2.8840129375457764
1413394884725760500,-0.030471041798591614,0.0305886659771204,0.05939946323633194,9.118563652038574,-0.7165902853012085,-2.3600847721099854
1413394884730760500,0.01641317456960678,0.03268032521009445,0.09088920056819916,9.748726844787598,-0.5746538043022156,-2.898500442504883
1413394884735760500,0.03309338539838791,0.04508906602859497,0.09798760712146759,8.907241821289062,0.07096569985151291,-2.3909220695495605
1413394884740760500,0.012008510529994965,0.002213474363088608,0.09478839486837387,9.177700996398926,0.2655635476112366,-2.7212271690368652
1413394884745760500,-0.018624693155288696,0.010565489530563354,0.06772996485233307,9.871996879577637,0.20848600566387177,-3.0012452602386475
1413394884750760500,-0.031901441514492035,0.033248841762542725,0.05549965053796768,9.600428581237793,-0.25735822319984436,-2.7117385864257812
1413394884755760500,-0.010802820324897766,0.012970509007573128,0.07071171700954437,9.037240028381348,-0.7076048254966736,-2.400904893875122
1413394884760760500,0.02561119943857193,0.010947879403829575,0.09704534709453583,9.912701606750488,-0.4443471431732178,-2.9150569438934326
1413394884765760500,0.033203259110450745,0.048524223268032074,0.10692081600427628,9.282268524169922,0.536354660987854,-2.7038042545318604
1413394884770760500,-0.006788685917854309,0.015418028458952904,0.09682569652795792,8.941180229187012,0.6511505246162415,-2.535825252532959
1413394884775760500,-0.039589159190654755,0.01962861977517605,0.08628133684396744,9.791122436523438,0.06359981000423431,-2.9766597747802734
1413394884780760500,-0.042299240827560425,0.037688978016376495,0.06745633482933044,9.216657638549805,-0.6663863062858582,-2.496828317642212
1413394884785760500,-0.0003654882311820984,-0.005890276283025742,0.07089559733867645,9.159093856811523,-0.9209415316581726,-2.4416470527648926
1413394884790760500,0.039553701877593994,0.006585387513041496,0.07812660187482834,9.748581886291504,-0.43640413880348206,-2.948014974594116
1413394884795760500,0.03944399207830429,0.05002357065677643,0.08546961843967438,9.576532363891602,0.494769811630249,-2.8263230323791504
1413394884800760500,0.0010158643126487732,0.03577595204114914,0.09481226652860641,9.03858757019043,0.8218885064125061,-2.658876419067383
1413394884805760500,-0.03817705065011978,0.02958585135638714,0.0673726499080658,9.693334579467773,0.062278516590595245,-2.7465097904205322
1413394884810760500,-0.0353061780333519,0.0368778333067894,0.06886648386716843,9.070097923278809,-0.6491500735282898,-2.4963300228118896
1413394884815760500,-0.004530183970928192,0.0037540271878242493,0.07088559865951538,9.12632942199707,-0.7058163285255432,-2.636958122253418
1413394884820760500,0.03316213935613632,0.016243210062384605,0.09054140001535416,10.091532707214355,-0.035267673432826996,-3.098038911819458
1413394884825760500,0.01993696391582489,0.06811146438121796,0.09316433221101761,9.290914535522461,0.6749753952026367,-2.704738140106201
1413394884830760500,-0.011683113873004913,0.03793840855360031,0.09908168017864227,9.088046073913574,0.33903878927230835,-2.6162824630737305
1413394884835760500,-0.03465873748064041,0.02470887266099453,0.07428108155727386,9.423627853393555,-0.10068494826555252,-2.6383233070373535
1413394884840760500,-0.022782575339078903,0.025564847514033318,0.06906723976135254,9.265620231628418,-0.7064810395240784,-2.5210208892822266
1413394884845760500,0.005308099091053009,-0.004091478884220123,0.06461216509342194,9.306047439575195,-0.7972792983055115,-2.7272586822509766
1413394884850760500,0.02689497172832489,0.023333905264735222,0.06188647449016571,9.976949691772461,-0.10993468761444092,-2.9336962699890137
1413394884855760500,0.022010885179042816,0.059132903814315796,0.08474573493003845,9.249996185302734,0.7567958831787109,-2.6727192401885986
1413394884860760500,-0.010268069803714752,0.03321202099323273,0.08931048214435577,9.349401473999023,0.32291531562805176,-2.624382734298706
1413394884865760500,-0.03252507746219635,0.037298910319805145,0.08334775269031525,9.334052085876465,0.006663192994892597,-2.303943634033203
1413394884870760500,-0.024878300726413727,0.0023465119302272797,0.07818427681922913,8.988739013671875,-0.4597539007663727,-2.5291974544525146
1413394884875760500,0.00026860833168029785,-0.007583970203995705,0.0734509825706482,9.665764808654785,-0.896529495716095,-2.7359182834625244
1413394884880760500,0.019155465066432953,0.024806341156363487,0.07443983107805252,9.805448532104492,-0.46896007657051086,-2.9407472610473633
1413394884885760500,0.026167772710323334,0.04871658980846405,0.10235900431871414,9.1527681350708,0.45407727360725403,-2.590947151184082
1413394884890760500,0.0023282617330551147,0.02499031461775303,0.10247396677732468,9.113296508789062,0.1496431827545166,-2.3932366371154785
1413394884895760500,-0.017219197005033493,0.02488209493458271,0.09254126995801926,9.178096771240234,-0.1659645140171051,-2.4080569744110107
1413394884900760500,-0.013727687299251556,0.0030585993081331253,0.08372317254543304,9.17658519744873,-0.30512186884880066,-2.56343150138855
1413394884905760500,0.0016231387853622437,-0.006138511002063751,0.07887637615203857,9.797420501708984,-0.7818509936332703,-2.998004674911499
1413394884910760500,0.003175705671310425,0.03328277915716171,0.06535884737968445,9.584637641906738,-0.1821071207523346,-2.9252142906188965
1413394884915760500,0.012901805341243744,0.0453510656952858,0.08425207436084747,9.266283988952637,0.10265152156352997,-2.589860677719116
1413394884920760500,0.00787217915058136,0.03037634678184986,0.09623691439628601,9.341032028198242,0.28181809186935425,-2.6469719409942627
1413394884925760500,-0.008280716836452484,0.035294175148010254,0.08848641067743301,9.177964210510254,0.15406383574008942,-2.5641376972198486
1413394884930760500,-0.021998386830091476,0.011347219347953796,0.0733257606625557,9.28280258178711,-0.20664547383785248,-2.777001142501831
1413394884935760500,-0.010882966220378876,0.01829882524907589,0.0725250393152237,9.797266960144043,-0.4461003839969635,-2.974501848220825
1413394884940760500,-0.0025155171751976013,0.04581020772457123,0.06459745764732361,9.535344123840332,-0.2488369345664978,-2.8922998905181885
1413394884945760500,0.01011737436056137,0.046696171164512634,0.07456673681735992,9.192626953125,-0.11957122385501862,-2.5646417140960693
1413394884950760500,0.013607971370220184,0.024110788479447365,0.09783445298671722,9.471346855163574,0.1101609617471695,-2.7363295555114746
1413394884955760500,0.002863839268684387,0.040105558931827545,0.09057710319757462,9.234387397766113,0.10562960803508759,-2.4572761058807373
1413394884960760500,-0.01304132491350174,0.011168496683239937,0.08507546037435532,9.275064468383789,0.03777751699090004,-2.8840951919555664
1413394884965760500,-0.014328636229038239,0.009085508063435555,0.08502781391143799,9.72474479675293,-0.019585218280553818,-3.025031805038452
1413394884970760500,-0.01574476808309555,0.036749549210071564,0.06716063618659973,9.437348365783691,-0.4115837514400482,-2.793039083480835
1413394884975760500,-0.0010651648044586182,0.03956963121891022,0.07457064092159271,9.273650169372559,-0.33971118927001953,-2.4911110401153564
1413394884980760500,0.017029933631420135,0.025573356077075005,0.09318633377552032,9.503621101379395,-0.2242998629808426,-2.669198513031006
1413394884985760500,0.021679356694221497,0.033973462879657745,0.0919715091586113,9.258804321289062,0.04750284180045128,-2.4000258445739746
1413394884990760500,0.003675617277622223,0.018314683809876442,0.08587697893381119,9.446426391601562,0.004616271238774061,-2.7454872131347656
1413394884995760500,-0.00801851600408554,0.024489549919962883,0.07656833529472351,9.463696479797363,0.20792627334594727,-2.698025703430176
1413394885000760500,-0.02203018218278885,0.026927484199404716,0.07667692005634308,9.495251655578613,-0.10968220233917236,-2.7124345302581787
1413394885005760500,-0.019267477095127106,0.03403788059949875,0.07042348384857178,9.51050853729248,-0.36372554302215576,-2.7447562217712402
1413394885010760500,-0.0003592744469642639,0.03885675221681595,0.07719487696886063,9.22573184967041,-0.356587678194046,-2.374528408050537
1413394885015760500,0.016877591609954834,0.027685681357979774,0.08590920269489288,9.356666564941406,-0.1820719987154007,-2.611891031265259
1413394885020760500,0.01826091855764389,0.017764752730727196,0.08521048724651337,9.258820533752441,-0.04297827556729317,-2.5481083393096924
1413394885025760500,0.004455350339412689,0.015532491728663445,0.08353681862354279,9.373727798461914,0.24094147980213165,-2.6325066089630127
1413394885030760500,-0.00948486477136612,0.00645238533616066,0.08507493138313293,9.66695499420166,0.05433155968785286,-2.8781182765960693
1413394885035760500,-0.017186950892210007,0.028287949040532112,0.08893110603094101,9.560563087463379,-0.2167508751153946,-2.7449355125427246
1413394885040760500,-0.008726678788661957,0.03270117938518524,0.08344846218824387,9.429527282714844,-0.45313918590545654,-2.612175703048706
1413394885045760500,0.008670322597026825,0.017282916232943535,0.08053772151470184,9.348491668701172,-0.3796236515045166,-2.5626754760742188
1413394885050760500,0.021054871380329132,0.022643880918622017,0.08246578276157379,9.446171760559082,-0.2155831754207611,-2.653773784637451
1413394885055760500,0.01970849186182022,0.00723525695502758,0.08718287944793701,9.37274169921875,0.054269205778837204,-2.7050604820251465
1413394885060760500,-0.0024938061833381653,0.015463268384337425,0.08223406225442886,9.389820098876953,0.38923534750938416,-2.813398838043213
1413394885065760500,-0.02201492339372635,0.02405884675681591,0.08172832429409027,9.618172645568848,0.20072400569915771,-2.9511239528656006
1413394885070760500,-0.027586057782173157,0.03544428199529648,0.08124940097332001,9.626001358032227,-0.1998148113489151,-2.7936410903930664
1413394885075760500,-0.013657577335834503,0.03680931776762009,0.07153891026973724,9.388577461242676,-0.4779462516307831,-2.652743101119995
1413394885080760500,0.0037718862295150757,0.03320486098527908,0.07628589868545532,9.12746524810791,-0.3547907769680023,-2.4727625846862793
1413394885085760500,0.021831132471561432,0.020566387102007866,0.08170262724161148,9.184805870056152,-0.12572483718395233,-2.6293962001800537
1413394885090760500,0.020423784852027893,0.012696074321866035,0.08719594776630402,9.527824401855469,0.14321282505989075,-2.7385201454162598
1413394885095760500,-0.004621334373950958,0.022585289552807808,0.0823507234454155,9.300086975097656,0.405978262424469,-2.6735448837280273
1413394885100760500,-0.022676244378089905,0.024036342278122902,0.08667139708995819,9.667341232299805,0.10287699103355408,-2.9917633533477783
1413394885105760500,-0.02827189862728119,0.04374004900455475,0.08394329249858856,9.470391273498535,-0.20766669511795044,-2.694340944290161
1413394885110760500,-0.017852526158094406,0.03540258854627609,0.07496745884418488,9.233565330505371,-0.5266807079315186,-2.570284843444824
1413394885115760500,0.0037814900279045105,0.019812433049082756,0.07831393927335739,9.185080528259277,-0.4446330666542053,-2.3916847705841064
1413394885120760500,0.021777324378490448,0.015691908076405525,0.07761271297931671,9.462047576904297,-0.39597973227500916,-2.6373019218444824
1413394885125760500,0.02385198324918747,0.021197831258177757,0.08388867974281311,9.543534278869629,0.144335076212883,-2.7549691200256348
1413394885130760500,-0.0004027262330055237,0.02263062633574009,0.07960490137338638,9.365446090698242,0.3406374752521515,-2.7470996379852295
1413394885135760500,-0.017790865153074265,0.03604421019554138,0.0858798399567604,9.79828929901123,-0.020260686054825783,-2.9502487182617188
1413394885140760500,-0.026877671480178833,0.041677504777908325,0.07833787798881531,9.380531311035156,-0.2326633632183075,-2.5794365406036377
1413394885145760500,-0.01438061147928238,0.03800341486930847,0.07423822581768036,9.266190528869629,-0.4038964509963989,-2.652639627456665
1413394885150760500,0.003112189471721649,0.025469372048974037,0.08394838869571686,9.04648494720459,-0.4540587365627289,-2.244873523712158
1413394885155760500,0.01966635137796402,0.002463480457663536,0.08466904610395432,9.454352378845215,-0.4040895104408264,-2.6134097576141357
1413394885160760500,0.0196768119931221,0.013523975387215614,0.08313602954149246,9.682626724243164,0.11097172647714615,-2.714585542678833
1413394885165760500,0.004428781569004059,0.022669950500130653,0.08296716958284378,9.284040451049805,0.3886915147304535,-2.599694013595581
1413394885170760500,-0.015685487538576126,0.021302128210663795,0.0865587443113327,9.716361999511719,0.1435798853635788,-2.9428887367248535
1413394885175760500,-0.025466345250606537,0.03602772206068039,0.07834431529045105,9.51962947845459,-0.052907899022102356,-2.653564929962158
1413394885180760500,-0.013660319149494171,0.03170941025018692,0.08402824401855469,9.364588737487793,-0.36340412497520447,-2.7019498348236084
1413394885185760500,0.00025513023138046265,0.031701795756816864,0.07344650477170944,8.972862243652344,-0.44523829221725464,-2.3672382831573486
1413394885190760500,0.018303431570529938,0.0025510024279356003,0.08603161573410034,9.60128402709961,-0.41219401359558105,-2.793524742126465
1413394885195760500,0.022530145943164825,0.015079068019986153,0.08319782465696335,9.51893138885498,0.16045109927654266,-2.7303969860076904
1413394885200760500,0.005829900503158569,0.02187841199338436,0.08224198967218399,9.202349662780762,0.30749404430389404,-2.7221169471740723
1413394885205760500,-0.02123214304447174,0.014870850369334221,0.08661096543073654,9.537604331970215,0.25799882411956787,-2.9348113536834717
1413394885210760500,-0.026182524859905243,0.022793354466557503,0.07693083584308624,9.601153373718262,-0.028230858966708183,-2.6864984035491943
1413394885215760500,-0.024140991270542145,0.03653053939342499,0.07903784513473511,9.527222633361816,-0.3217526972293854,-2.89927339553833
1413394885220760500,-0.010158024728298187,0.038727447390556335,0.07434456795454025,8.907464981079102,-0.5679369568824768,-2.293452262878418
1413394885225760500,0.018381230533123016,0.008861316367983818,0.08739371597766876,9.421648025512695,-0.5102552175521851,-2.6944847106933594
1413394885230760500,0.02384033054113388,0.01456834189593792,0.07338723540306091,9.59164810180664,-0.21621990203857422,-2.6307640075683594
1413394885235760500,0.02253025770187378,0.021197954192757607,0.0845264121890068,9.487235069274902,0.25822022557258606,-2.893460512161255
1413394885240760500,0.0011366531252861023,0.025873495265841484,0.08511994779109955,9.357956886291504,0.3974265158176422,-2.8124773502349854
1413394885245760500,-0.024094901978969574,0.033237524330616,0.08382943272590637,9.667025566101074,0.14390699565410614,-2.8100662231445312
1413394885250760500,-0.027621351182460785,0.04640864580869675,0.0798279345035553,9.494646072387695,-0.21571850776672363,-2.9073336124420166
1413394885255760500,-0.014383375644683838,0.03867913782596588,0.07625864446163177,8.90760612487793,-0.5596151351928711,-2.4479830265045166
1413394885260760500,0.009249657392501831,0.0100905392318964,0.08600817620754242,9.177119255065918,-0.4520968794822693,-2.5721359252929688
1413394885265760500,0.01766141504049301,0.01174047589302063,0.07356750965118408,9.550811767578125,-0.36324718594551086,-2.6704018115997314
1413394885270760500,0.024641521275043488,0.014981778338551521,0.08726650476455688,9.560117721557617,0.07746439427137375,-2.762349843978882
1413394885275760500,0.00514751672744751,0.021801257506012917,0.08654291927814484,9.49712085723877,0.29906561970710754,-2.6326024532318115
1413394885280760500,-0.019201111048460007,0.03104817308485508,0.07959993183612823,9.577370643615723,0.29185327887535095,-2.7619497776031494
1413394885285760500,-0.030273132026195526,0.033162958920001984,0.07343049347400665,9.551518440246582,-0.0688508003950119,-2.760355234146118
1413394885290760500,-0.01582411304116249,0.04281298816204071,0.08465006202459335,9.234334945678711,-0.3472539782524109,-2.5062062740325928
1413394885295760500,-0.003277815878391266,0.02826484479010105,0.0762859582901001,9.152718544006348,-0.4767566919326782,-2.5228500366210938
1413394885300760500,0.017655648291110992,0.01457253284752369,0.08399267494678497,9.388276100158691,-0.4536777436733246,-2.547490119934082
1413394885305760500,0.02459581196308136,0.009525081142783165,0.08449599146842957,9.462103843688965,0.020857734605669975,-2.672081470489502
1413394885310760500,0.010684825479984283,0.02107183076441288,0.08855776488780975,9.545610427856445,0.42966359853744507,-2.821207046508789
1413394885315760500,-0.017747584730386734,0.018367787823081017,0.08041083812713623,9.39004898071289,0.26662227511405945,-2.7377583980560303
1413394885320760500,-0.02757536619901657,0.027529122307896614,0.08176329731941223,9.78905200958252,-0.10236536711454391,-2.932996988296509
1413394885325760500,-0.017207767814397812,0.044326625764369965,0.0873214453458786,9.323799133300781,-0.19981108605861664,-2.555462121963501
1413394885330760500,-0.003229983150959015,0.03663480281829834,0.08406832814216614,9.226129531860352,-0.47754305601119995,-2.5387327671051025
1413394885335760500,0.00940624624490738,0.014485741034150124,0.07067956775426865,9.102474212646484,-0.5107294917106628,-2.4901890754699707
1413394885340760500,0.026633642613887787,0.0040349941700696945,0.08106502145528793,9.543325424194336,-0.2739148736000061,-2.7444698810577393
1413394885345760500,0.025963716208934784,0.010649384930729866,0.08665211498737335,9.299673080444336,0.25845620036125183,-2.779097318649292
1413394885350760500,0.00034224241971969604,0.0288460124284029,0.08512112498283386,9.545890808105469,0.315982848405838,-2.599367380142212
1413394885355760500,-0.025389015674591064,0.02342480979859829,0.08247503638267517,9.707883834838867,0.005245520267635584,-2.9332447052001953
1413394885360760500,-0.028361663222312927,0.05487678945064545,0.08527936041355133,9.511205673217773,-0.2326325625181198,-2.735203981399536
1413394885365760500,-0.012389875948429108,0.042153723537921906,0.09158924221992493,9.111875534057617,-0.24804013967514038,-2.604649543762207
1413394885370760500,-0.004556059837341309,0.029061606153845787,0.07564495503902435,9.037809371948242,-0.5349521040916443,-2.351083993911743
1413394885375760500,0.01769924908876419,0.0019521191716194153,0.08593636751174927,9.363608360290527,-0.45397454500198364,-2.628957509994507
1413394885380760500,0.032219596207141876,0.01369558461010456,0.08668602257966995,9.462204933166504,-0.2165236920118332,-2.6876392364501953
1413394885385760500,0.015587784349918365,0.018968312069773674,0.0872863382101059,9.55340576171875,0.4460069239139557,-2.870220422744751
1413394885390760500,-0.012818947434425354,0.027493158355355263,0.07819600403308868,9.49625301361084,0.3403964638710022,-2.599149465560913
1413394885395760500,-0.027572646737098694,0.03669578582048416,0.07338298112154007,9.731866836547852,-0.011853732168674469,-2.8667283058166504
1413394885400760500,-0.021427713334560394,0.04278755187988281,0.08109767735004425,9.275015830993652,-0.15858204662799835,-2.621290683746338
1413394885405760500,-0.017183221876621246,0.03304027020931244,0.0818701833486557,9.25882625579834,-0.2644428312778473,-2.66205096244812
1413394885410760500,-0.004553593695163727,0.025717442855238914,0.07835164666175842,9.053535461425781,-0.5595987439155579,-2.3761096000671387
1413394885415760500,0.01828835904598236,0.006833629682660103,0.0839768648147583,9.412870407104492,-0.49473118782043457,-2.7595901489257812
1413394885420760500,0.02592960000038147,0.010101942345499992,0.08664002269506454,9.511957168579102,0.1025882139801979,-2.7217259407043457
1413394885425760500,0.004586659371852875,0.01405688188970089,0.08505193889141083,9.504502296447754,0.46302396059036255,-2.738807201385498
1413394885430760500,-0.021914832293987274,0.028882792219519615,0.07204622030258179,9.674860000610352,0.10308150947093964,-2.843916177749634
1413394885435760500,-0.01929224282503128,0.03583467751741409,0.08041159808635712,9.503561019897461,-0.036594077944755554,-2.849853754043579
1413394885440760500,-0.013757474720478058,0.03588742017745972,0.07833221554756165,9.348631858825684,-0.1169300302863121,-2.7200355529785156
1413394885445760500,-0.01152203232049942,0.03950897604227066,0.08397868275642395,9.225715637207031,-0.30483365058898926,-2.6048500537872314
1413394885450760500,0.0010436773300170898,0.01593025214970112,0.07629357278347015,9.192166328430176,-0.5770507454872131,-2.6124045848846436
1413394885455760500,0.021696798503398895,0.006028546020388603,0.08658944815397263,9.355917930603027,-0.31496384739875793,-2.605086326599121
1413394885460760500,0.016882486641407013,0.013505877926945686,0.0823683813214302,9.45522689819336,0.27554866671562195,-2.673062324523926
1413394885465760500,-0.002396516501903534,0.016903085634112358,0.08173814415931702,9.544955253601074,0.24229294061660767,-2.7052016258239746
1413394885470760500,-0.02122875303030014,0.03310050070285797,0.07346783578395844,9.528155326843262,-0.004348741378635168,-2.662902593612671
1413394885475760500,-0.01378275454044342,0.03385206311941147,0.08183459937572479,9.422036170959473,-0.1342388391494751,-2.694944381713867
1413394885480760500,-0.008143134415149689,0.029018064960837364,0.08250768482685089,9.291111946105957,-0.206537663936615,-2.6946237087249756
1413394885485760500,-0.00176229327917099,0.03255724161863327,0.085288867354393,9.250085830688477,-0.37978318333625793,-2.4984281063079834
1413394885490760500,0.010752193629741669,0.008925458416342735,0.09088355302810669,9.168403625488281,-0.4462577998638153,-2.595942974090576
1413394885495760500,0.02103658765554428,0.008794838562607765,0.09219981729984283,9.511436462402344,-0.18290095031261444,-2.7855913639068604
1413394885500760500,0.010681085288524628,0.00786738470196724,0.08448759466409683,9.381454467773438,0.22705872356891632,-2.844179391860962
1413394885505760500,-0.0052352771162986755,0.02527850680053234,0.07690848410129547,9.54487419128418,0.20164728164672852,-2.7382209300994873
1413394885510760500,-0.015008371323347092,0.04076210409402847,0.07411555200815201,9.618117332458496,0.0853707492351532,-2.7284111976623535
1413394885515760500,-0.01375523954629898,0.03601576387882233,0.07696932554244995,9.42162799835205,-0.20723211765289307,-2.776421546936035
1413394885520760500,-0.011597178876399994,0.031125003471970558,0.07559356838464737,9.249835968017578,-0.27220162749290466,-2.7032699584960938
1413394885525760500,0.0051612406969070435,0.033883608877658844,0.08108450472354889,9.307355880737305,-0.28185203671455383,-2.6867892742156982
1413394885530760500,0.011396236717700958,0.015125392004847527,0.08665961027145386,9.103020668029785,-0.17598296701908112,-2.563793659210205
1413394885535760500,0.008567743003368378,0.006648428738117218,0.08457782119512558,9.642197608947754,-0.16642524302005768,-2.818859815597534
1413394885540760500,0.0037631094455718994,0.02258809097111225,0.0761457085609436,9.536347389221191,0.12016360461711884,-2.631218671798706
1413394885545760500,-0.006019018590450287,0.031527549028396606,0.07412180304527283,9.576949119567871,0.2499966025352478,-2.8603785037994385
1413394885550760500,-0.019203726202249527,0.030882632359862328,0.07687272131443024,9.365326881408691,0.2171817421913147,-2.5902485847473145
1413394885555760500,-0.018534068018198013,0.02765604294836521,0.07140660285949707,9.544366836547852,-0.24733678996562958,-2.801053762435913
1413394885560760500,-0.006044864654541016,0.03317701071500778,0.08255299180746078,9.184292793273926,-0.37166446447372437,-2.5966217517852783
1413394885565760500,0.005055069923400879,0.033921413123607635,0.08942422270774841,9.323834419250488,-0.2824611961841583,-2.5476903915405273
1413394885570760500,0.007959477603435516,0.018737835809588432,0.0977279469370842,9.160826683044434,-0.25725457072257996,-2.3600621223449707
1413394885575760500,0.011377587914466858,0.011680865660309792,0.07485675811767578,9.764241218566895,-0.32199540734291077,-2.7361655235290527
1413394885580760500,0.008546046912670135,0.022478939965367317,0.07545003294944763,9.487123489379883,0.16832883656024933,-2.705148458480835
1413394885585760500,-0.011544711887836456,0.02587844990193844,0.07136693596839905,9.58564281463623,0.2984620928764343,-2.860776901245117
1413394885590760500,-0.02196517586708069,0.038000836968421936,0.07555671781301498,9.454939842224121,0.10368804633617401,-2.6389715671539307
1413394885595760500,-0.017216522246599197,0.03126706928014755,0.07349726557731628,9.413508415222168,-0.36264532804489136,-2.660900354385376
1413394885600760500,-0.003290511667728424,0.031083377078175545,0.09008342027664185,9.283125877380371,-0.18419720232486725,-2.605513334274292
1413394885605760500,0.0017018690705299377,0.02481660060584545,0.08799818158149719,9.250494956970215,-0.21637043356895447,-2.6376121044158936
1413394885610760500,0.007927365601062775,0.014449195936322212,0.09437394142150879,9.307151794433594,-0.40421390533447266,-2.564532518386841
1413394885615760500,0.010620161890983582,0.007357912138104439,0.07834537327289581,9.42144775390625,-0.30572155117988586,-2.687020778656006
1413394885620760500,0.011361874639987946,0.013414157554507256,0.0803484097123146,9.528711318969727,0.11944892257452011,-2.7540974617004395
1413394885625760500,-0.004522822797298431,0.02955435775220394,0.07771167904138565,9.503835678100586,0.11134418100118637,-2.7858943939208984
1413394885630760500,-0.016415879130363464,0.026887716725468636,0.08247730135917664,9.397599220275879,-0.03575476258993149,-2.670982599258423
1413394885635760500,-0.008828975260257721,0.026294628158211708,0.0859832763671875,9.437995910644531,-0.32223576307296753,-2.7923262119293213
1413394885640760500,-0.0018979832530021667,0.03041491098701954,0.09150460362434387,9.258550643920898,-0.17480318248271942,-2.6623260974884033
1413394885645760500,-0.0018211975693702698,0.019951695576310158,0.09490732848644257,9.372966766357422,-0.2813253402709961,-2.5404326915740967
1413394885650760500,0.003788970410823822,0.012357505038380623,0.09295035898685455,9.38083267211914,-0.3150365650653839,-2.4668478965759277
1413394885655760500,0.009230665862560272,0.013665331527590752,0.07702990621328354,9.462244033813477,-0.27341097593307495,-2.670656681060791
1413394885660760500,0.00853649526834488,0.015588214620947838,0.07341450452804565,9.511825561523438,0.12011373043060303,-2.745811700820923
1413394885665760500,-0.008011184632778168,0.03231406956911087,0.07064929604530334,9.683368682861328,0.209084153175354,-2.8605258464813232
1413394885670760500,-0.017085272818803787,0.04021447151899338,0.07478876411914825,9.209848403930664,-0.004292738623917103,-2.5478925704956055
1413394885675760500,-0.015130411833524704,0.02837432362139225,0.08111429214477539,9.536296844482422,-0.20857833325862885,-2.7767703533172607
1413394885680760500,-0.010249204933643341,0.02898450754582882,0.07825036346912384,9.201189041137695,-0.1339028924703598,-2.6540184020996094
1413394885685760500,0.000975094735622406,0.024118619039654732,0.0866338461637497,9.209416389465332,-0.24892133474349976,-2.5804924964904785
1413394885690760500,0.010005801916122437,0.02630147896707058,0.0812247022986412,9.331732749938965,-0.3806966543197632,-2.515395164489746
1413394885695760500,0.006464816629886627,0.013665271922945976,0.07553059607744217,9.544209480285645,-0.10933391749858856,-2.7445640563964844
1413394885700760500,0.0022969767451286316,0.01630689762532711,0.07829615473747253,9.576708793640137,0.12040433287620544,-2.6972248554229736
1413394885705760500,-0.007404834032058716,0.02807988040149212,0.07270286977291107,9.389760971069336,0.05362878367304802,-2.6470227241516113
1413394885710760500,-0.0129656121134758,0.029610751196742058,0.07412641495466232,9.372923851013184,-0.19153913855552673,-2.784655809402466
1413394885715760500,-0.012242428958415985,0.029792314395308495,0.08464120328426361,9.454300880432129,-0.10127630829811096,-2.711045265197754
1413394885720760500,-0.0018412694334983826,0.025571299716830254,0.08940181881189346,9.25849437713623,-0.19893980026245117,-2.637812852859497
1413394885725760500,-0.00048341602087020874,0.028318094089627266,0.08801402151584625,9.291440963745117,-0.23384366929531097,-2.4586031436920166
1413394885730760500,0.00927639752626419,0.019942769780755043,0.08672336488962173,9.405364036560059,-0.15948240458965302,-2.6707353591918945
1413394885735760500,0.0023519769310951233,0.02200489304959774,0.07540208846330643,9.438111305236816,0.03818618506193161,-2.5576605796813965
1413394885740760500,-0.0018943101167678833,0.013523461297154427,0.08183564245700836,9.46300220489502,-0.0028180405497550964,-2.712728500366211
1413394885745760500,-0.009454667568206787,0.03228718787431717,0.08393454551696777,9.504158973693848,-0.020924178883433342,-2.606154441833496
1413394885750760500,-0.01577998697757721,0.029695777222514153,0.08027251064777374,9.503140449523926,-0.10145676136016846,-2.8340585231781006
1413394885755760500,-0.010894976556301117,0.030467452481389046,0.07973422110080719,9.266729354858398,-0.1175481453537941,-2.5971477031707764
1413394885760760500,0.0002498552203178406,0.024210410192608833,0.08882877230644226,9.471110343933105,-0.37131884694099426,-2.6537978649139404
1413394885765760500,0.0072261616587638855,0.02476736344397068,0.08939371258020401,9.39702033996582,-0.16788457334041595,-2.670945644378662
1413394885770760500,0.007184557616710663,0.02477293647825718,0.0797843411564827,9.617331504821777,-0.019312869757413864,-2.8268704414367676
1413394885775760500,-0.004629276692867279,0.026878131553530693,0.07823894172906876,9.438396453857422,0.038417425006628036,-2.664097547531128
1413394885780760500,-0.003954403102397919,0.014952817931771278,0.07615172117948532,9.250886917114258,-0.16621887683868408,-2.637932538986206
1413394885785760500,-0.00043129175901412964,0.02039286307990551,0.08814503252506256,9.479369163513184,0.07821601629257202,-2.7862823009490967
1413394885790760500,-0.009437315165996552,0.026078687980771065,0.07831400632858276,9.53592300415039,0.06273457407951355,-2.957366704940796
1413394885795760500,-0.011539027094841003,0.030432334169745445,0.09003449976444244,9.193458557128906,-0.19935737550258636,-2.4911446571350098
1413394885800760500,0.003674454987049103,0.018570946529507637,0.08811987191438675,9.37270736694336,-0.3714362680912018,-2.710862874984741
1413394885805760500,0.00853622704744339,0.029753735288977623,0.08105503022670746,9.241933822631836,-0.11048004031181335,-2.6537768840789795
1413394885810760500,-0.0017558187246322632,0.010716548189520836,0.08457200974225998,9.372928619384766,0.16078618168830872,-2.7700815200805664
1413394885815760500,-0.006611786782741547,0.03034847043454647,0.07139448076486588,9.593354225158691,-0.13363978266716003,-2.5987815856933594
1413394885820760500,-0.00404619425535202,0.027628296986222267,0.0719752311706543,9.323386192321777,-0.21649718284606934,-2.588066816329956
1413394885825760500,-0.008880995213985443,0.024001291021704674,0.08320958912372589,9.381040573120117,0.09487491101026535,-2.679710865020752
1413394885830760500,-0.017028100788593292,0.024032415822148323,0.08380788564682007,9.43892765045166,0.014311586506664753,-2.7694408893585205
1413394885835760500,-0.009468324482440948,0.0346674844622612,0.07902561128139496,9.511373519897461,-0.4777282476425171,-2.523833751678467
1413394885840760500,0.009189136326313019,0.017137208953499794,0.08051024377346039,9.428977966308594,-0.29854583740234375,-2.727341651916504
1413394885845760500,0.013483710587024689,0.023370029404759407,0.07258827984333038,9.405437469482422,0.07053469121456146,-2.7774760723114014
1413394885850760500,0.0003371238708496094,0.01782454364001751,0.07978042960166931,9.348822593688965,-0.0027533487882465124,-2.605760097503662
1413394885855760500,0.003714226186275482,0.028935572132468224,0.0770898312330246,9.683302879333496,-0.1586674451828003,-2.794478178024292
1413394885860760500,-0.008868612349033356,0.03381124138832092,0.08227232098579407,9.291328430175781,0.0532204806804657,-2.6300899982452393
1413394885865760500,-0.01439281553030014,0.01294262520968914,0.08873982727527618,9.210076332092285,0.005206091795116663,-2.581112861633301
1413394885870760500,-0.00941738486289978,0.023323459550738335,0.08949533104896545,9.626035690307617,-0.4283093214035034,-2.712035655975342
1413394885875760500,0.010618947446346283,0.028339339420199394,0.08449820429086685,9.519137382507324,-0.41314250230789185,-2.719165086746216
