#timestamp [ns],w_RS_S_x [rad s^-1],w_RS_S_y [rad s^-1],w_RS_S_z [rad s^-1],a_RS_S_x [m s^-2],a_RS_S_y [m s^-2],a_RS_S_z [m s^-2]
1413394881575760500,0.02024581932313422,0.016755160819145562,0.08656833089891874,10.149882749999998,-0.024516625,-3.2035056666666666
1413394881580760500,0.020943951023931952,0.03839724354387525,0.08587019919812101,8.9240515,0.14709974999999997,-2.427145875
1413394881585760500,0.009075712110370514,0.02583087292951608,0.09285151620609833,9.626861416666666,0.17161637500000002,-2.8439284999999996
1413394881590760500,-0.014660765716752367,0.02652900463031381,0.09354964790689606,9.471589458333332,0.17978858333333333,-2.7458620000000002
1413394881595760500,-0.017453292519943295,0.032114058236695664,0.06981317007977318,9.022118,-0.22882183333333334,-2.3045627499999997
1413394881600760500,0.013962634015954637,0.017453292519943295,0.0767944870877505,9.945577541666665,-0.8744262916666666,-2.8684451249999996
1413394881605760500,0.024434609527920613,-0.0020943951023931952,0.050963614158234416,8.940395916666665,-0.32688833333333334,-2.435318083333333
1413394881610760500,0.048869219055841226,0.029321531433504733,0.07120943348136866,9.9047165,0.17978858333333333,-3.015544875
1413394881615760500,-0.0020943951023931952,0.05375614096142535,0.05375614096142535,9.340834124999999,1.1849702083333333,-2.7867230416666664
1413394881620760500,-0.05515240436302082,0.0153588974175501,0.08866272600131193,8.77695175,1.2094868333333333,-2.5905900416666663
1413394881625760500,-0.09564404300928926,0.030019663134302467,0.07749261878854824,9.822994416666667,0.10623870833333333,-2.7213453750000003
1413394881630760500,-0.07051130178057091,0.016755160819145562,0.10611601852125524,9.349006333333334,-1.1195925416666666,-2.7376897916666665
1413394881635760500,-0.01884955592153876,0.027925268031909273,0.08447393579652555,8.785123958333333,-1.4791697083333333,-2.378112625
1413394881640760500,0.04817108735504349,-0.01117010721276371,0.10122909661567112,9.970094166666666,-1.1522813749999998,-2.655967708333333
1413394881645760500,0.07609635538695278,0.03490658503988659,0.08587019919812101,9.561483749999999,-0.14709974999999997,-2.852100708333333
1413394881650760500,0.06073745796940267,0.04468042885105484,0.10053096491487339,9.07115125,0.5475379583333333,-2.132946375
1413394881655760500,0.02583087292951608,-0.019547687622336492,0.0879645943005142,10.869037083333334,0.032688833333333334,-3.4977051666666665
1413394881660760500,-0.0006981317007977319,0.08726646259971647,0.046076692252650306,8.588990958333333,0.0980665,-2.1411185833333333
1413394881665760500,-0.009075712110370514,0.032812189937493394,0.05515240436302082,9.299973083333333,0.20430520833333332,-2.6396232916666666
1413394881670760500,-0.024434609527920613,0.00767944870877505,0.08028514559173915,10.084505083333333,0.5965712083333333,-3.219850083333333
1413394881675760500,-0.06841690667817772,0.060039326268604934,0.08028514559173915,8.548129916666667,0.809048625,-2.3127349583333334
1413394881680760500,-0.0879645943005142,-0.004886921905584123,0.12426744274199628,9.299973083333333,0.4004382083333333,-2.8929617499999996
1413394881685760500,-0.06911503837897544,0.029321531433504733,0.12077678423800758,9.651378041666666,-1.299381125,-2.582417833333333
1413394881690760500,0.0,0.010471975511965976,0.08028514559173915,8.736090708333332,-2.1247741666666666,-2.0103632499999997
1413394881695760500,0.09075712110370514,-0.03839724354387525,0.05235987755982988,10.100849499999999,-2.0021910416666664,-2.852100708333333
1413394881700760500,0.1626646862858715,0.039793506945470715,0.06562437987498679,10.24794925,-0.53936575,-2.8684451249999996
1413394881705760500,0.1270599695451872,0.06422811647339133,0.039095375244672985,8.77695175,2.0348798749999997,-2.4925235416666665
1413394881710760500,0.0307177948351002,0.0,0.08168140899333462,9.847511041666666,2.9338227916666666,-3.0400614999999998
1413394881715760500,-0.08447393579652555,0.08447393579652555,0.07260569688296412,10.166227166666665,1.3402421666666664,-2.9583394166666666
1413394881720760500,-0.16256839036941528,0.02589733526110649,0.11509743332862854,7.714040756225586,0.23600426316261292,-2.2759816646575928
1413394881725760500,-0.1352761834859848,0.026804745197296143,0.09797792881727219,9.897748947143555,-1.55491304397583,-2.6495044231414795
1413394881730760500,-0.04350077733397484,-0.008157193660736084,0.08645245432853699,9.2164945602417,-2.2492613792419434,-2.554762601852417
1413394881735760500,0.06137515604496002,0.022529393434524536,0.0770200788974762,9.136147499084473,-1.9368919134140015,-2.3509631156921387
1413394881740760500,0.11321762204170227,-0.03932327777147293,0.07707635313272476,9.949623107910156,-0.34681522846221924,-3.1886045932769775
1413394881745760500,0.10228821635246277,0.06699688732624054,0.04946240410208702,9.50250244140625,0.4697517454624176,-2.4871089458465576
1413394881750760500,0.05803316831588745,0.014407448470592499,0.07119978964328766,9.402486801147461,1.079925775527954,-2.917414903640747
1413394881755760500,0.008213028311729431,0.04525173455476761,0.06239514797925949,9.83085823059082,0.6220592260360718,-2.9425876140594482
1413394881760760500,-0.040416039526462555,0.0806024968624115,0.06919042766094208,9.143345832824707,0.7997114658355713,-2.376465320587158
1413394881765760500,-0.06746434420347214,0.007287364453077316,0.08911316841840744,9.138951301574707,0.22187747061252594,-2.5799560546875
1413394881770760500,-0.07576894015073776,0.02271442487835884,0.09842465072870255,9.92326831817627,-0.06185132637619972,-3.0350704193115234
1413394881775760500,-0.06538044661283493,0.04547698795795441,0.09500941634178162,8.883485794067383,-0.6280669569969177,-2.236074209213257
1413394881780760500,-0.042298831045627594,-0.031590305268764496,0.08896996080875397,9.409758567810059,-0.7181335687637329,-2.772829294204712
1413394881785760500,0.007948122918605804,0.05144055187702179,0.06496812403202057,9.841891288757324,-1.343793511390686,-2.7320950031280518
1413394881790760500,0.047465980052948,0.01170925423502922,0.08485405147075653,8.84188175201416,-0.7824814319610596,-2.397618055343628
1413394881795760500,0.08678445219993591,0.0058042630553245544,0.10011749714612961,9.996344566345215,-0.3839544653892517,-3.1373119354248047
1413394881800760500,0.07039324939250946,0.06021486222743988,0.07075773179531097,9.265687942504883,0.26876500248908997,-1.7831752300262451
1413394881805760500,0.045780301094055176,0.03379528224468231,0.1019691452383995,9.852507591247559,0.7695503234863281,-3.0808722972869873
1413394881810760500,-0.01585306227207184,-1.623108983039856e-05,0.06140618398785591,8.330240249633789,0.974022626876831,-2.555884838104248
1413394881815760500,-0.058289945125579834,0.041454821825027466,0.08445214480161667,9.89004898071289,0.5300743579864502,-3.0288233757019043
1413394881820760500,-0.08712562918663025,0.02305668219923973,0.08678072690963745,8.779492378234863,-0.029729878529906273,-2.4012298583984375
1413394881825760500,-0.07541695982217789,-0.007978077977895737,0.08660182356834412,10.061911582946777,-0.8311444520950317,-3.065795660018921
1413394881830760500,-0.021192722022533417,0.08050629496574402,0.0802256315946579,8.981810569763184,-1.1186083555221558,-1.978896975517273
1413394881835760500,0.03254985064268112,-0.030343428254127502,0.08797166496515274,9.629006385803223,-1.0669466257095337,-3.1046764850616455
1413394881840760500,0.05896979570388794,0.038157373666763306,0.055778563022613525,9.022821426391602,-0.43692588806152344,-2.178941488265991
1413394881845760500,0.07793830335140228,0.013309113681316376,0.08039883524179459,9.651314735412598,0.1056642159819603,-2.922243356704712
1413394881850760500,0.06579586863517761,0.03691534698009491,0.07020828127861023,9.2681245803833,0.5229246616363525,-2.8382391929626465
1413394881855760500,0.002984236925840378,0.036267489194869995,0.07216425240039825,9.666535377502441,0.9063712954521179,-2.706559181213379
1413394881860760500,-0.039893656969070435,0.016169141978025436,0.09104938805103302,9.698636054992676,0.8743544220924377,-3.116706609725952
1413394881865760500,-0.07025070488452911,0.08668054640293121,0.08915165066719055,8.55660343170166,0.3164891004562378,-1.9971563816070557
1413394881870760500,-0.0890541821718216,-0.029202532023191452,0.07843685150146484,9.949666976928711,-0.7900075316429138,-3.0448853969573975
1413394881875760500,-0.04521077498793602,0.01528080552816391,0.0875864252448082,9.90503215789795,-0.8818753361701965,-2.8640851974487305
1413394881880760500,0.004039492458105087,0.03844296932220459,0.07046899199485779,8.423885345458984,-0.9839637875556946,-1.7414820194244385
1413394881885760500,0.044738948345184326,0.015157800167798996,0.09374190121889114,10.334888458251953,-0.6649742722511292,-3.564934253692627
1413394881890760500,0.052349939942359924,-0.0080844946205616,0.06537287682294846,8.27734661102295,-0.053801268339157104,-1.5637311935424805
1413394881895760500,0.05135631561279297,0.0505073219537735,0.09067368507385254,10.908601760864258,0.11374366283416748,-3.8007471561431885
1413394881900760500,0.010708518326282501,0.022384509444236755,0.04990861564874649,8.720677375793457,0.253805547952652,-2.054300546646118
1413394881905760500,0.009430132806301117,0.015458401292562485,0.09923155605792999,9.20226764678955,0.5469799637794495,-2.8881633281707764
1413394881910760500,-0.01463216170668602,0.06816522777080536,0.08717721700668335,9.744975090026855,0.06526339799165726,-2.7403337955474854
1413394881915760500,-0.04923288896679878,-0.005269080400466919,0.07236655056476593,8.645343780517578,0.29825136065483093,-2.2587544918060303
1413394881920760500,-0.03489934280514717,0.02943730354309082,0.10163545608520508,9.849372863769531,-0.07812818884849548,-2.7079036235809326
1413394881925760500,-0.036180220544338226,0.019602954387664795,0.0969231054186821,9.417095184326172,-0.25801071524620056,-2.4897360801696777
1413394881930760500,-0.03306286036968231,0.021877165883779526,0.07480329275131226,8.91664981842041,-0.48754051327705383,-2.5682296752929688
1413394881935760500,0.01045949012041092,0.032810308039188385,0.08325522392988205,9.83356761932373,-0.8715248703956604,-2.516547441482544
1413394881940760500,0.05004090070724487,0.018324539065361023,0.08495630323886871,9.512245178222656,-0.779411792755127,-2.799588680267334
1413394881945760500,0.060332633554935455,0.023499183356761932,0.07421622425317764,9.160706520080566,-0.07552286982536316,-2.5391833782196045
1413394881950760500,0.054201073944568634,0.018343359231948853,0.08518341928720474,9.335232734680176,0.4511280655860901,-2.403550624847412
1413394881955760500,0.01984994113445282,0.024625197052955627,0.09106894582509995,9.64985466003418,0.8085445165634155,-2.975820779800415
1413394881960760500,-0.039848655462265015,0.01666763424873352,0.07007689774036407,9.403717994689941,0.9703239798545837,-2.7413148880004883
1413394881965760500,-0.080483078956604,0.020685911178588867,0.08735467493534088,10.042281150817871,0.5616767406463623,-3.0761640071868896
1413394881970760500,-0.08533807098865509,0.05864211916923523,0.08439666032791138,9.145812034606934,-0.45305556058883667,-2.5570261478424072
1413394881975760500,-0.03595518320798874,0.02309586852788925,0.08822248876094818,8.837972640991211,-1.7130860090255737,-2.4129998683929443
1413394881980760500,0.0414779931306839,-0.006048873066902161,0.08551397919654846,9.47503662109375,-1.290080189704895,-2.522520065307617
1413394881985760500,0.09154655039310455,0.004232820123434067,0.09006614238023758,9.985041618347168,0.09721948206424713,-2.897878646850586
1413394881990760500,0.044868871569633484,0.025526996701955795,0.06546005606651306,9.74573040008545,1.106296420097351,-3.179238796234131
1413394881995760500,-0.013185761868953705,0.040428489446640015,0.06973422318696976,8.989723205566406,1.0680246353149414,-2.449514150619507
1413394882000760500,-0.053836558014154434,0.029944710433483124,0.0724221020936966,9.55500602722168,0.1261664181947708,-2.607147693634033
1413394882005760500,-0.048800498247146606,0.026441264897584915,0.05790950357913971,9.381601333618164,-0.6805586218833923,-2.3810691833496094
1413394882010760500,-0.005758747458457947,0.01753837615251541,0.08347031474113464,9.562577247619629,-0.785166323184967,-2.819962978363037
1413394882015760500,0.020030148327350616,0.027378536760807037,0.10462573915719986,9.034080505371094,-0.24686357378959656,-2.5071065425872803
1413394882020760500,0.019207186996936798,0.017405178397893906,0.11203484237194061,9.449228286743164,0.1604747325181961,-2.7469966411590576
1413394882025760500,-0.006263386458158493,0.030866574496030807,0.08023567497730255,9.520243644714355,0.20848031342029572,-2.5476174354553223
1413394882030760500,-0.016466762870550156,0.012283112853765488,0.07470276206731796,9.374061584472656,-0.19015613198280334,-2.8302388191223145
1413394882035760500,-0.0077863894402980804,0.02885502576828003,0.06114087998867035,9.261884689331055,-0.6639836430549622,-2.475923538208008
1413394882040760500,0.00928015261888504,0.01710953190922737,0.07089027762413025,9.37630844116211,-0.37015047669410706,-2.7469470500946045
1413394882045760500,0.016052551567554474,0.00601872056722641,0.08651024103164673,9.36568546295166,0.2610490620136261,-2.734039068222046
1413394882050760500,0.008676961064338684,0.03679483383893967,0.10471069812774658,9.789530754089355,0.2935526371002197,-2.716803550720215
1413394882055760500,-0.011862058192491531,0.03619662672281265,0.09293495118618011,9.381743431091309,0.19235746562480927,-2.6932339668273926
1413394882060760500,-0.022133316844701767,0.02901267632842064,0.100290447473526,9.5208158493042,0.17595170438289642,-2.725269317626953
1413394882065760500,-0.040326058864593506,0.02553889900445938,0.06793899834156036,9.293309211730957,-0.23828637599945068,-2.4553511142730713
1413394882070760500,-0.026097971946001053,0.01082669198513031,0.07032839953899384,9.546244621276855,-0.6580603718757629,-2.667322874069214
1413394882075760500,0.019432879984378815,0.02360384538769722,0.07477519661188126,9.358213424682617,-1.0353896617889404,-2.3762803077697754
1413394882080760500,0.05599445104598999,0.023545652627944946,0.08284516632556915,9.448841094970703,-0.6404110193252563,-2.7564799785614014
1413394882085760500,0.06430813670158386,0.019381508231163025,0.08740710467100143,9.366195678710938,0.3273780345916748,-2.8419883251190186
1413394882090760500,0.03469938039779663,0.03659810125827789,0.08635464310646057,9.656883239746094,1.1529152393341064,-2.700427532196045
1413394882095760500,-0.03562550246715546,0.025937676429748535,0.083572618663311,9.133803367614746,1.3869643211364746,-2.655848979949951
1413394882100760500,-0.10376705974340439,0.017056811600923538,0.08774401992559433,9.121850967407227,0.5438043475151062,-2.550149917602539
1413394882105760500,-0.10433369874954224,0.015279281884431839,0.09924670308828354,9.434293746948242,-0.7813273072242737,-2.5601375102996826
1413394882110760500,-0.03370784968137741,-0.000939495861530304,0.1008145809173584,9.686901092529297,-1.9160782098770142,-2.727355480194092
1413394882115760500,0.04431559145450592,0.01894049346446991,0.08492736518383026,9.26819133758545,-1.6303209066390991,-2.31156325340271
1413394882120760500,0.09610655903816223,0.029138527810573578,0.08567341417074203,9.563076972961426,-0.45863011479377747,-2.7159523963928223
1413394882125760500,0.09011401236057281,0.009407587349414825,0.07389150559902191,9.242473602294922,0.4835744798183441,-2.580066442489624
1413394882130760500,0.04585186392068863,0.02179333195090294,0.06765562295913696,9.795745849609375,0.8980273604393005,-2.8715357780456543
1413394882135760500,-0.011052019894123077,0.02957765758037567,0.05819708853960037,9.33933162689209,0.9794816374778748,-2.644174098968506
1413394882140760500,-0.050898123532533646,0.025696933269500732,0.08648791909217834,9.015692710876465,0.6631531119346619,-2.9326395988464355
1413394882145760500,-0.08184725046157837,0.033471427857875824,0.09992949664592743,9.270633697509766,-0.0021085762418806553,-2.5705819129943848
1413394882150760500,-0.08057337254285812,0.004050038754940033,0.10017316043376923,9.490129470825195,-0.6840433478355408,-2.79626727104187
1413394882155760500,-0.029304563999176025,0.021464500576257706,0.094522625207901,9.545958518981934,-1.2400200366973877,-2.5089824199676514
1413394882160760500,0.032794222235679626,0.008754275739192963,0.0848490446805954,9.303153038024902,-1.5974942445755005,-2.562504768371582
1413394882165760500,0.09049755334854126,0.009570341557264328,0.05510035157203674,9.481912612915039,-1.3278073072433472,-2.5008625984191895
1413394882170760500,0.12984931468963623,0.010998602956533432,0.05653119087219238,9.609935760498047,-0.16561858355998993,-2.5542120933532715
1413394882175760500,0.1010151207447052,0.02185164764523506,0.06663109362125397,9.810775756835938,1.2203547954559326,-3.1105449199676514
1413394882180760500,0.011888779699802399,0.052644968032836914,0.08392780274152756,9.171808242797852,2.099665880203247,-2.6957831382751465
1413394882185760500,-0.09020621329545975,0.03663616627454758,0.10890446603298187,9.231120109558105,1.8113129138946533,-2.825406789779663
1413394882190760500,-0.1614014059305191,0.03264084458351135,0.11141758412122726,9.30903434753418,0.5842670798301697,-2.8861396312713623
1413394882195760500,-0.15509331226348877,0.0335572212934494,0.09409350156784058,9.279364585876465,-1.743955135345459,-2.438992500305176
1413394882200760500,-0.051124367862939835,-0.001195371150970459,0.08755425363779068,9.306257247924805,-2.6444461345672607,-2.4431207180023193
1413394882205760500,0.0707717090845108,-0.004700906574726105,0.07329913228750229,9.524808883666992,-2.14609694480896,-2.5895707607269287
1413394882210760500,0.15563762187957764,0.014534331858158112,0.06517733633518219,9.471687316894531,-0.4174283444881439,-2.662241220474243
1413394882215760500,0.1347964107990265,0.01988709717988968,0.06701691448688507,10.056319236755371,1.1790413856506348,-3.1963837146759033
1413394882220760500,0.042891740798950195,0.05615002661943436,0.06607184559106827,9.29419231414795,1.8629502058029175,-2.6163182258605957
1413394882225760500,-0.048393890261650085,0.05196976661682129,0.0773535817861557,9.305232048034668,1.4469106197357178,-2.7434065341949463
1413394882230760500,-0.11072488874197006,0.04587745666503906,0.08695607632398605,9.09778118133545,0.5715367197990417,-2.664649248123169
1413394882235760500,-0.1092623919248581,0.013663165271282196,0.1019827276468277,9.000739097595215,-0.2722780704498291,-2.5808355808258057
1413394882240760500,-0.07414428144693375,0.014975972473621368,0.1026308611035347,9.565704345703125,-0.8554335832595825,-2.7653589248657227
1413394882245760500,-0.02773989550769329,-0.0049182698130607605,0.1051754578948021,9.417061805725098,-0.9793137311935425,-2.67120623588562
1413394882250760500,0.013118155300617218,0.009704925119876862,0.07405883073806763,9.685297966003418,-1.0028129816055298,-2.7044200897216797
1413394882255760500,0.05478339642286301,0.023013021796941757,0.05926944315433502,9.454855918884277,-0.7565975189208984,-2.2804934978485107
1413394882260760500,0.0938062071800232,-0.0025619864463806152,0.072029709815979,9.700162887573242,-0.6141865253448486,-3.003408432006836
1413394882265760500,0.07737524807453156,0.05528479814529419,0.055401138961315155,9.657662391662598,0.3995159864425659,-2.468989133834839
1413394882270760500,0.04881215840578079,0.027489017695188522,0.09445822983980179,9.460625648498535,1.1072821617126465,-2.899031639099121
1413394882275760500,-0.016962647438049316,0.059832580387592316,0.08818521350622177,9.444852828979492,1.3503882884979248,-2.938908338546753
1413394882280760500,-0.08742665499448776,0.03545975685119629,0.09080314636230469,8.989195823669434,1.1010382175445557,-2.522850751876831
1413394882285760500,-0.11025674641132355,0.014346867799758911,0.08681735396385193,9.62115478515625,-0.06075957790017128,-3.0816309452056885
1413394882290760500,-0.0973505973815918,0.021660462021827698,0.085858553647995,8.576472282409668,-1.027325987815857,-2.294675588607788
1413394882295760500,-0.0398351326584816,0.010056119412183762,0.061387572437524796,9.624314308166504,-1.6734780073165894,-2.747262716293335
1413394882300760500,0.04668539762496948,-0.03378543257713318,0.08936727046966553,8.871418952941895,-1.5084508657455444,-2.666443347930908
1413394882305760500,0.10570001602172852,0.0332961231470108,0.0875072181224823,9.880184173583984,-0.6405034065246582,-2.7453505992889404
1413394882310760500,0.11945903301239014,0.029013317078351974,0.0976966843008995,9.258272171020508,0.7115725874900818,-2.5148468017578125
1413394882315760500,0.0592656135559082,0.034427493810653687,0.0861956775188446,9.835551261901855,1.3114525079727173,-3.1090919971466064
1413394882320760500,-0.0212673619389534,0.05759018659591675,0.06402446329593658,9.037214279174805,1.1931098699569702,-2.2599384784698486
1413394882325760500,-0.07373116910457611,-0.00032263249158859253,0.0757131427526474,9.406342506408691,0.6846939921379089,-2.977320432662964
1413394882330760500,-0.1030731126666069,0.05428373068571091,0.07899855077266693,9.383886337280273,-0.03513773903250694,-2.6709671020507812
1413394882335760500,-0.08754633367061615,-0.0029327869415283203,0.09726323187351227,8.870343208312988,-0.8207404017448425,-2.7288818359375
1413394882340760500,-0.03254745155572891,0.018729165196418762,0.09910733997821808,9.842936515808105,-1.354807734489441,-2.7802047729492188
1413394882345760500,0.014694690704345703,0.03095618262887001,0.08310024440288544,9.357465744018555,-1.1663624048233032,-2.4089815616607666
1413394882350760500,0.06914936006069183,0.013348311185836792,0.07495821267366409,9.797740936279297,-0.4516322910785675,-3.020501136779785
1413394882355760500,0.07374884933233261,0.018358297646045685,0.07125187665224075,9.015692710876465,-0.0968361422419548,-2.698441982269287
1413394882360760500,0.042780905961990356,0.03666988015174866,0.05614970251917839,9.112739562988281,0.7345238924026489,-2.5420944690704346
1413394882365760500,0.01866494119167328,0.009503602981567383,0.07524774968624115,9.962132453918457,0.42665064334869385,-3.142008066177368
1413394882370760500,-0.02319144830107689,0.05231781303882599,0.07531565427780151,8.956754684448242,0.3594188690185547,-2.4567131996154785
1413394882375760500,-0.03350529447197914,0.02557893842458725,0.11549782007932663,9.587224960327148,0.48805007338523865,-2.9817123413085938
1413394882380760500,-0.04433206841349602,0.02777118980884552,0.10084604471921921,9.31139850616455,-0.27872434258461,-2.671757698059082
1413394882385760500,-0.04844488576054573,0.04183182120323181,0.07412144541740417,8.948214530944824,-0.4082384705543518,-2.1090247631073
1413394882390760500,-0.004242882132530212,-0.020893089473247528,0.10084624588489532,9.654265403747559,-0.44791725277900696,-2.9764277935028076
1413394882395760500,0.0006115026772022247,0.029106970876455307,0.0688646137714386,9.529637336730957,-0.5583848357200623,-2.535581350326538
1413394882400760500,0.00433209165930748,0.004788830876350403,0.06438964605331421,9.333139419555664,-0.18418359756469727,-2.6664860248565674
1413394882405760500,0.035774849355220795,0.02216513827443123,0.07801823318004608,9.661271095275879,-0.5090800523757935,-2.6160242557525635
1413394882410760500,0.042128100991249084,0.05793027579784393,0.07368871569633484,9.275322914123535,0.006188566330820322,-2.5836055278778076
1413394882415760500,0.040570758283138275,0.011325370520353317,0.10331729799509048,9.657691955566406,0.6863853931427002,-2.821521759033203
1413394882420760500,-0.010687291622161865,0.03581129014492035,0.06353563815355301,9.569679260253906,0.3451758623123169,-2.5868239402770996
1413394882425760500,-0.030873045325279236,0.03748445212841034,0.07640812546014786,8.917662620544434,0.21665836870670319,-2.614344596862793
1413394882430760500,-0.034222714602947235,-0.002311369404196739,0.09231115877628326,9.181296348571777,-0.12702789902687073,-2.5605297088623047
1413394882435760500,-0.0439843013882637,0.022962402552366257,0.05748048424720764,9.637472152709961,-0.5327960252761841,-2.6756880283355713
1413394882440760500,-0.013347089290618896,0.011677123606204987,0.10025790333747864,9.324897766113281,-0.3230254352092743,-2.9146294593811035
1413394882445760500,0.01188589632511139,0.03042541816830635,0.09214359521865845,10.003482818603516,-0.616957426071167,-2.715141534805298
1413394882450760500,0.015294425189495087,0.038257353007793427,0.07396581768989563,8.982294082641602,-0.3060319721698761,-2.4063961505889893
1413394882455760500,0.025745198130607605,0.013519596308469772,0.08576935529708862,9.235466957092285,0.16964846849441528,-2.5509109497070312
1413394882460760500,0.009437650442123413,0.015100408345460892,0.07439888268709183,9.293839454650879,-0.023824218660593033,-2.364626407623291
1413394882465760500,-0.00844443030655384,-0.0005322732031345367,0.07157491147518158,10.009943008422852,0.3154905140399933,-3.1401095390319824
1413394882470760500,-0.010093990713357925,0.024170391261577606,0.0975995734333992,9.495763778686523,0.21857723593711853,-2.7393293380737305
1413394882475760500,-0.03975484520196915,0.040079422295093536,0.09551578015089035,9.081510543823242,0.10579198598861694,-2.689455509185791
1413394882480760500,-0.037545494735240936,0.027112726122140884,0.0994885116815567,9.677688598632812,-0.27338799834251404,-2.7760262489318848
1413394882485760500,-0.011744998395442963,0.019858311861753464,0.07818818092346191,9.528221130371094,-0.9847575426101685,-2.5625736713409424
1413394882490760500,0.020951062440872192,0.05198334902524948,0.05851893126964569,9.479950904846191,-0.609745442867279,-2.610990285873413
1413394882495760500,0.04119432717561722,-0.0045215897262096405,0.06539665907621384,8.944559097290039,-0.2541492283344269,-2.398275375366211
1413394882500760500,0.04528327286243439,0.02695276215672493,0.051306791603565216,9.751955032348633,-0.2294338047504425,-2.8056700229644775
1413394882505760500,0.04520600289106369,0.01670994609594345,0.06677566468715668,9.291399955749512,0.06891156733036041,-2.4906399250030518
1413394882510760500,0.03823848068714142,0.017903108149766922,0.07301614433526993,9.520761489868164,0.37455588579177856,-3.0009589195251465
1413394882515760500,0.007129475474357605,0.05265173316001892,0.07898426800966263,8.9750394821167,0.7195273041725159,-2.3011856079101562
1413394882520760500,-0.03694078326225281,-0.00750911608338356,0.09914316236972809,9.422300338745117,1.035675287246704,-3.215522050857544
1413394882525760500,-0.09307630360126495,0.037472330033779144,0.08564310520887375,9.503926277160645,0.5678765773773193,-2.73034405708313
1413394882530760500,-0.10842691361904144,0.04051584750413895,0.10892631858587265,9.081437110900879,-0.3162207007408142,-2.6885182857513428
1413394882535760500,-0.0696319118142128,0.010981440544128418,0.09991802275180817,9.45199966430664,-1.6392836570739746,-2.6650755405426025
1413394882540760500,0.020654108375310898,0.015468917787075043,0.0941222682595253,9.220415115356445,-2.0381641387939453,-2.211791515350342
1413394882545760500,0.11483442783355713,0.015800610184669495,0.078353650867939,9.481192588806152,-1.7426034212112427,-2.6847245693206787
1413394882550760500,0.15703177452087402,0.005233138799667358,0.05987578257918358,9.431158065795898,-0.4251731038093567,-2.362778902053833
1413394882555760500,0.1266307383775711,0.02014433592557907,0.07516644895076752,9.957988739013672,1.540339708328247,-3.0680036544799805
1413394882560760500,0.017264485359191895,0.04790050536394119,0.06972353160381317,9.5457181930542,2.3147025108337402,-3.0190978050231934
1413394882565760500,-0.10431563854217529,0.04754023998975754,0.0691102147102356,9.343697547912598,1.8037248849868774,-2.8856098651885986
1413394882570760500,-0.15725760161876678,0.039490506052970886,0.08954229950904846,9.236167907714844,0.20683903992176056,-2.6086113452911377
1413394882575760500,-0.13101889193058014,0.027020201086997986,0.0860111191868782,8.936800956726074,-1.630324125289917,-2.3617570400238037
1413394882580760500,-0.0484437495470047,-0.0028985589742660522,0.08574089407920837,9.263734817504883,-1.853275179862976,-2.3474314212799072
1413394882585760500,0.05152904987335205,-0.008784890174865723,0.09464139491319656,9.695357322692871,-1.247214436531067,-2.7260007858276367
1413394882590760500,0.09141924977302551,0.020032409578561783,0.09038673341274261,9.666743278503418,-0.33062100410461426,-2.559539556503296
1413394882595760500,0.08356565237045288,0.01948188990354538,0.08658982068300247,9.633353233337402,0.4131709039211273,-2.7024412155151367
1413394882600760500,0.04192148894071579,0.035283029079437256,0.06688907742500305,9.543683052062988,0.5474175810813904,-2.6293282508850098
1413394882605760500,0.011013045907020569,0.033665284514427185,0.06717759370803833,9.24996566772461,0.49195075035095215,-2.4276745319366455
1413394882610760500,-0.01785077154636383,0.020452067255973816,0.07651692628860474,9.562002182006836,0.409299373626709,-2.9332115650177
1413394882615760500,-0.046967219561338425,0.038808777928352356,0.08351913094520569,9.439485549926758,0.5058506727218628,-2.7738354206085205
1413394882620760500,-0.06616432964801788,0.038433738052845,0.09415648877620697,9.269149780273438,0.15312615036964417,-2.7054007053375244
1413394882625760500,-0.05552300065755844,0.023859620094299316,0.09199605882167816,9.303318977355957,-0.5935963988304138,-2.644508123397827
1413394882630760500,-0.020652340725064278,0.017304692417383194,0.07556548714637756,9.105939865112305,-0.7512388825416565,-2.3163609504699707
1413394882635760500,0.008637569844722748,-0.005497567355632782,0.0586189329624176,9.433342933654785,-0.6738864779472351,-2.724423885345459
1413394882640760500,0.045239828526973724,0.0022917166352272034,0.06664295494556427,9.668867111206055,-0.6075085997581482,-2.616785764694214
1413394882645760500,0.05912674963474274,0.01655466854572296,0.06965366750955582,9.61054801940918,-0.19171519577503204,-2.8004379272460938
1413394882650760500,0.041183605790138245,0.02512172982096672,0.07857413589954376,9.373576164245605,0.40830451250076294,-2.7192933559417725
1413394882655760500,0.009318388998508453,0.033376120030879974,0.08392119407653809,9.601390838623047,0.7380671501159668,-2.887195110321045
1413394882660760500,-0.030816946178674698,0.04714155197143555,0.07618853449821472,9.544328689575195,0.4005526602268219,-2.823590040206909
1413394882665760500,-0.04536616429686546,0.045740336179733276,0.07902694493532181,9.365761756896973,0.2411399930715561,-2.7075071334838867
1413394882670760500,-0.05036520957946777,0.029829293489456177,0.07588814198970795,9.164190292358398,-0.26444104313850403,-2.527677297592163
1413394882675760500,-0.03754854202270508,0.024984337389469147,0.07959261536598206,9.213305473327637,-0.5022879242897034,-2.5433759689331055
1413394882680760500,-0.00440572202205658,0.014470472931861877,0.09489262849092484,9.562918663024902,-0.8545006513595581,-2.6126949787139893
1413394882685760500,0.02522774040699005,0.012939244508743286,0.09381096810102463,9.594428062438965,-0.7401729226112366,-2.6630804538726807
1413394882690760500,0.04063454270362854,0.021348290145397186,0.07600735872983932,9.341800689697266,-0.36979568004608154,-2.572685718536377
1413394882695760500,0.03991381824016571,0.014361873269081116,0.07250414043664932,9.546140670776367,0.1713949739933014,-2.839695930480957
1413394882700760500,0.028587624430656433,0.034573547542095184,0.0777306780219078,9.51979923248291,0.44936004281044006,-2.7097575664520264
1413394882705760500,0.0016918778419494629,0.028265632688999176,0.08144718408584595,9.487273216247559,0.4234543442726135,-2.804922342300415
1413394882710760500,-0.024477265775203705,0.04307044297456741,0.08154208958148956,9.268662452697754,0.3002903461456299,-2.536454439163208
1413394882715760500,-0.037112340331077576,0.022226933389902115,0.09134943038225174,9.081992149353027,0.0632840245962143,-2.4916045665740967
1413394882720760500,-0.03972931206226349,0.012984097003936768,0.09606488049030304,9.2533540725708,-0.11806026101112366,-2.4862923622131348
1413394882725760500,-0.030500706285238266,0.0024523399770259857,0.09505109488964081,9.612289428710938,-0.568598747253418,-2.74165940284729
1413394882730760500,-0.012064794078469276,0.02139647677540779,0.07410717010498047,9.750480651855469,-0.7081828117370605,-2.9093239307403564
1413394882735760500,0.020361505448818207,0.023030713200569153,0.07371537387371063,9.243999481201172,-0.5591896772384644,-2.5903091430664062
1413394882740760500,0.04226139187812805,0.022812005132436752,0.07362554222345352,9.595390319824219,-0.08295705169439316,-2.8888540267944336
1413394882745760500,0.04616476595401764,0.039496660232543945,0.07351890951395035,9.259117126464844,0.12998870015144348,-2.5143210887908936
1413394882750760500,0.0235363207757473,0.02537408098578453,0.07280948758125305,9.593755722045898,0.382310152053833,-2.942716598510742
1413394882755760500,0.0016019977629184723,0.037275440990924835,0.08139386773109436,9.031668663024902,0.5871591567993164,-2.3666274547576904
1413394882760760500,-0.030756864696741104,0.012378156185150146,0.09391047060489655,9.065950393676758,0.4085511267185211,-2.742387533187866
1413394882765760500,-0.05387831851840019,0.013813704252243042,0.09740874171257019,9.376168251037598,0.045779675245285034,-2.645698070526123
1413394882770760500,-0.04806716367602348,0.0060386061668396,0.09534919261932373,9.5462646484375,-0.41359439492225647,-2.8311002254486084
1413394882775760500,-0.022561300545930862,0.03676404803991318,0.07569943368434906,9.701682090759277,-0.7560211420059204,-2.910348415374756
1413394882780760500,0.006872791796922684,0.018154561519622803,0.07003225386142731,9.138596534729004,-0.7961452603340149,-2.5076560974121094
1413394882785760500,0.03928641229867935,0.02626138925552368,0.06291953474283218,9.522505760192871,-0.4763239920139313,-2.8231170177459717
1413394882790760500,0.05045493692159653,0.0310695618391037,0.07296425849199295,9.349275588989258,-0.025695305317640305,-2.5722057819366455
1413394882795760500,0.03844083845615387,0.01980491727590561,0.07369820028543472,9.569061279296875,0.35927480459213257,-2.8541345596313477
1413394882800760500,0.004393268376588821,0.03319616615772247,0.08341110497713089,9.137673377990723,0.514335036277771,-2.391357421875
1413394882805760500,-0.030713513493537903,0.013768598437309265,0.08889025449752808,9.562668800354004,0.3178412616252899,-2.8186402320861816
1413394882810760500,-0.04812777787446976,0.03337576985359192,0.08330050855875015,9.66772174835205,0.046247996389865875,-2.817634344100952
1413394882815760500,-0.049476005136966705,0.026271596550941467,0.09118515253067017,9.455224990844727,-0.24834613502025604,-2.7987046241760254
1413394882820760500,-0.031893473118543625,0.04023691266775131,0.0787203311920166,9.43266487121582,-0.6655184626579285,-2.670821189880371
1413394882825760500,0.0046760886907577515,0.024394340813159943,0.0891440212726593,9.097726821899414,-0.8301554322242737,-2.3977935314178467
1413394882830760500,0.03715953230857849,0.023415274918079376,0.08333215862512589,9.513875961303711,-0.5677511096000671,-2.658770799636841
1413394882835760500,0.056732505559921265,0.020584270358085632,0.08883745968341827,9.194782257080078,-0.14040860533714294,-2.423783302307129
1413394882840760500,0.04327523708343506,0.013530697673559189,0.08530620485544205,9.562103271484375,0.317487508058548,-2.6579055786132812
1413394882845760500,0.013614945113658905,0.017871133983135223,0.08464501798152924,9.30072021484375,0.48900681734085083,-2.5863332748413086
1413394882850760500,-0.018690064549446106,0.013719290494918823,0.08401638269424438,9.593591690063477,0.5213170647621155,-2.8699018955230713
1413394882855760500,-0.03632160276174545,0.027752045542001724,0.08493974804878235,9.300813674926758,0.12074438482522964,-2.6609861850738525
1413394882860760500,-0.04396381601691246,0.024902239441871643,0.08422740548849106,9.522318840026855,-0.27326610684394836,-2.8708674907684326
1413394882865760500,-0.028484854847192764,0.041793085634708405,0.07440683245658875,9.367173194885254,-0.5604286789894104,-2.5477232933044434
1413394882870760500,0.0018547028303146362,0.020143922418355942,0.08412520587444305,9.212345123291016,-0.7066940665245056,-2.5924594402313232
1413394882875760500,0.025146976113319397,0.022051118314266205,0.07497145980596542,9.359591484069824,-0.4695752263069153,-2.6044704914093018
1413394882880760500,0.03714309632778168,0.007965371012687683,0.08398623019456863,9.464407920837402,-0.05959975719451904,-2.7174789905548096
1413394882885760500,0.02514541894197464,0.02480195462703705,0.07776069641113281,9.634500503540039,0.23582080006599426,-2.7440760135650635
1413394882890760500,0.009594075381755829,0.022174380719661713,0.07633671164512634,9.389973640441895,0.29278498888015747,-2.6770448684692383
1413394882895760500,-0.01082225888967514,0.029091376811265945,0.07633781433105469,9.553504943847656,0.3412732481956482,-2.822826623916626
1413394882900760500,-0.030610620975494385,0.029779933393001556,0.07855844497680664,9.406923294067383,0.08055641502141953,-2.7745699882507324
1413394882905760500,-0.0355755016207695,0.03251597285270691,0.08567468076944351,9.350385665893555,-0.30497094988822937,-2.7088704109191895
1413394882910760500,-0.02501741051673889,0.031914226710796356,0.08497295528650284,9.269874572753906,-0.5844652056694031,-2.554089069366455
1413394882915760500,0.004621446132659912,0.00892471894621849,0.08550150692462921,9.123087882995605,-0.6082637310028076,-2.470853090286255
1413394882920760500,0.020178623497486115,0.005305543541908264,0.08256401866674423,9.522661209106445,-0.3866938650608063,-2.684795379638672
1413394882925760500,0.027256973087787628,0.011568013578653336,0.08113487809896469,9.586557388305664,-0.10028862208127975,-2.784898519515991
1413394882930760500,0.014582686126232147,0.027681365609169006,0.07771394401788712,9.64262580871582,0.17781436443328857,-2.842031478881836
1413394882935760500,0.0011148825287818909,0.027065958827733994,0.07858031988143921,9.341279983520508,0.1865207552909851,-2.595747470855713
1413394882940760500,-0.012936186045408249,0.03402119129896164,0.07433868944644928,9.480714797973633,0.06381166726350784,-2.862154722213745
1413394882945760500,-0.021480092778801918,0.02555275708436966,0.08000411093235016,9.080567359924316,0.030202673748135567,-2.414705991744995
1413394882950760500,-0.01578228734433651,0.023992065340280533,0.08905249834060669,9.547173500061035,-0.2475847750902176,-2.7381021976470947
1413394882955760500,-0.008898820728063583,0.03410869091749191,0.08560075610876083,9.147003173828125,-0.4371561110019684,-2.4166181087493896
1413394882960760500,0.006030946969985962,0.014580819755792618,0.09244829416275024,9.457332611083984,-0.33110249042510986,-2.7554447650909424
1413394882965760500,0.01312321424484253,0.023515675216913223,0.08476290851831436,9.39926815032959,-0.027236776426434517,-2.573096990585327
1413394882970760500,0.010385636240243912,0.025444135069847107,0.08253779262304306,9.569684982299805,-0.04265761002898216,-2.838834285736084
1413394882975760500,0.002580806612968445,0.031743183732032776,0.07495689392089844,9.479805946350098,0.03682522475719452,-2.597776174545288
1413394882980760500,-0.0009078271687030792,0.01641923561692238,0.07924623042345047,9.39864730834961,0.15267722308635712,-2.706505298614502
1413394882985760500,-0.008690208196640015,0.030459456145763397,0.07723530381917953,9.399129867553711,0.08055344223976135,-2.635505199432373
1413394882990760500,-0.011633254587650299,0.015194397419691086,0.08626828342676163,9.26087760925293,-0.15771475434303284,-2.6335561275482178
1413394882995760500,-0.008823979645967484,0.01923445239663124,0.08689834922552109,9.538575172424316,-0.3065347373485565,-2.693436622619629
1413394883000760500,-0.00036105886101722717,0.01654955744743347,0.07916701585054398,9.28526496887207,-0.2807675898075104,-2.5458850860595703
1413394883005760500,0.003910496830940247,0.011008299887180328,0.07419804483652115,9.4568452835083,-0.2308163046836853,-2.684227466583252
1413394883010760500,0.004004526883363724,0.01717069372534752,0.07569026947021484,9.643915176391602,-0.027350744232535362,-2.792605400085449
1413394883015760500,-0.00015251338481903076,0.026216018944978714,0.0701780617237091,9.569202423095703,0.07114487141370773,-2.800142526626587
1413394883020760500,-0.007893048226833344,0.034081168472766876,0.07087817043066025,9.382307052612305,0.0880366638302803,-2.7671546936035156
1413394883025760500,-0.007958948612213135,0.03477669507265091,0.080024354159832,9.310019493103027,-0.0592089407145977,-2.6762640476226807
1413394883030760500,-0.008020665496587753,0.024832312017679214,0.08487655967473984,9.309736251831055,-0.14973342418670654,-2.59364914894104
1413394883035760500,-0.0031645335257053375,0.017838679254055023,0.0833323672413826,9.236620903015137,-0.30484896898269653,-2.520111083984375
1413394883040760500,0.00032486021518707275,0.01923445612192154,0.08753664791584015,9.490097999572754,-0.3462119996547699,-2.651737689971924
1413394883045760500,0.006652515381574631,0.020767822861671448,0.0855879932641983,9.293473243713379,-0.22347593307495117,-2.5217976570129395
1413394883050760500,0.00603058934211731,0.013078723102807999,0.07843540608882904,9.505586624145508,-0.108158178627491,-2.774012327194214
1413394883055760500,0.002536460757255554,0.03185877948999405,0.08054230362176895,9.561732292175293,0.0057353489100933075,-2.6460070610046387
1413394883060760500,-0.005120359361171722,0.021346308290958405,0.08065701276063919,9.382071495056152,0.10425187647342682,-2.936410903930664
1413394883065760500,-0.012950770556926727,0.03739340603351593,0.08208505809307098,9.35015869140625,-0.026669539511203766,-2.5320045948028564
1413394883070760500,-0.01012498140335083,0.023527037352323532,0.08547087758779526,9.310218811035156,-0.19877423346042633,-2.681135416030884
1413394883075760500,-0.005228295922279358,0.029849853366613388,0.08058828115463257,9.407601356506348,-0.2649153769016266,-2.5710394382476807
1413394883080760500,0.00041059404611587524,0.011621028184890747,0.09395159780979156,9.277146339416504,-0.19866640865802765,-2.584508180618286
1413394883085760500,0.003868691623210907,0.024070028215646744,0.08478593826293945,9.668773651123047,-0.2970845401287079,-2.629025936126709
1413394883090760500,0.012320376932621002,0.014462389051914215,0.08332481235265732,9.333488464355469,-0.23232926428318024,-2.635866403579712
1413394883095760500,0.014504246413707733,0.021342813968658447,0.07920785248279572,9.561476707458496,0.07035103440284729,-2.611567497253418
1413394883100760500,0.0018516257405281067,0.029052041471004486,0.0777653157711029,9.48829174041748,0.2031434029340744,-2.740849018096924
1413394883105760500,-0.013598993420600891,0.03675292432308197,0.07565285265445709,9.60207748413086,0.16922219097614288,-2.85669207572937
1413394883110760500,-0.017205867916345596,0.0375012531876564,0.08212780952453613,9.300823211669922,-0.09370999783277512,-2.5216293334960938
1413394883115760500,-0.010043986141681671,0.026235431432724,0.08421918004751205,9.342866897583008,-0.14222727715969086,-2.698253631591797
1413394883120760500,-0.0038133934140205383,0.021421458572149277,0.08766297996044159,9.016572952270508,-0.1982612907886505,-2.5041189193725586
1413394883125760500,0.0004151575267314911,0.008744299411773682,0.08818106353282928,9.506780624389648,-0.34577062726020813,-2.8301126956939697
1413394883130760500,0.008074920624494553,0.01786661148071289,0.08474324643611908,9.5787992477417,-0.38025397062301636,-2.591052293777466
1413394883135760500,0.020154781639575958,0.016593284904956818,0.0784345418214798,9.431437492370605,-0.10905233770608902,-2.7654032707214355
1413394883140760500,0.010956771671772003,0.02775592729449272,0.06934574991464615,9.391258239746094,0.13007940351963043,-2.6373801231384277
1413394883145760500,-0.002377942204475403,0.029689960181713104,0.07431846112012863,9.610541343688965,0.21076923608779907,-2.7242279052734375
1413394883150760500,-0.012902071699500084,0.03528720885515213,0.06599009037017822,9.454978942871094,0.12794767320156097,-2.766740322113037
1413394883155760500,-0.012919804081320763,0.02979893609881401,0.07787923514842987,9.154704093933105,-0.018811488524079323,-2.6348211765289307
1413394883160760500,-0.015090130269527435,0.03263825178146362,0.0793292447924614,9.319587707519531,-0.22282247245311737,-2.651022434234619
1413394883165760500,-0.010906778275966644,0.018698662519454956,0.09187870472669601,9.204086303710938,-0.32171860337257385,-2.5452301502227783
1413394883170760500,-0.0016742683947086334,0.01297876238822937,0.08614898473024368,9.489701271057129,-0.4688250720500946,-2.7499048709869385
1413394883175760500,0.011017493903636932,0.026270322501659393,0.07696595788002014,9.472956657409668,-0.28139549493789673,-2.6055030822753906
1413394883180760500,0.021591059863567352,0.010854296386241913,0.07981345057487488,9.594825744628906,-0.11600461602210999,-2.8727428913116455
1413394883185760500,0.012386076152324677,0.0332149863243103,0.0722227692604065,9.504060745239258,0.15350092947483063,-2.6218085289001465
1413394883190760500,0.001131441444158554,0.03118959814310074,0.07920318096876144,9.422659873962402,0.16184622049331665,-2.747591495513916
1413394883195760500,-0.014377854764461517,0.031143084168434143,0.0807318240404129,9.529361724853516,0.07925873249769211,-2.775552749633789
1413394883200760500,-0.019369186833500862,0.030466876924037933,0.08488637953996658,9.28474235534668,-0.1577693670988083,-2.5367867946624756
1413394883205760500,-0.018613498657941818,0.029803141951560974,0.09176351875066757,9.310149192810059,-0.2971135973930359,-2.601379632949829
1413394883210760500,-0.005228232592344284,0.012374814599752426,0.09668348729610443,9.277619361877441,-0.33818772435188293,-2.471987009048462
1413394883215760500,0.0011643394827842712,0.009428605437278748,0.08894659578800201,9.55490779876709,-0.395063579082489,-2.8470585346221924
1413394883220760500,0.01589001715183258,0.021418072283267975,0.0798478052020073,9.390950202941895,-0.297250360250473,-2.6883907318115234
1413394883225760500,0.0208723321557045,0.015861432999372482,0.07909881323575974,9.50536823272705,-0.02682124450802803,-2.864438056945801
1413394883230760500,0.014579541981220245,0.034616000950336456,0.072860486805439,9.488218307495117,0.29270100593566895,-2.678077220916748
1413394883235760500,-0.0009643770754337311,0.03044918179512024,0.07920734584331512,9.44704532623291,0.2681620121002197,-2.7640380859375
1413394883240760500,-0.008762508630752563,0.03884807229042053,0.08000636845827103,9.488584518432617,0.045585278421640396,-2.6772079467773438
1413394883245760500,-0.0200596172362566,0.02413240075111389,0.08488768339157104,9.252730369567871,-0.11791594326496124,-2.6257050037384033
1413394883250760500,-0.015780091285705566,0.01995125412940979,0.08686777949333191,9.253371238708496,-0.17405305802822113,-2.692049503326416
1413394883255760500,-0.010210959240794182,0.022234279662370682,0.08686306327581406,9.359436988830566,-0.40320977568626404,-2.5708816051483154
1413394883260760500,0.00331033393740654,0.010237157344818115,0.08621436357498169,9.456777572631836,-0.3393176198005676,-2.783043384552002
1413394883265760500,0.013818271458148956,0.024128086864948273,0.07781047374010086,9.586634635925293,-0.22397704422473907,-2.6143014430999756
1413394883270760500,0.017330151051282883,0.01861129328608513,0.07562277466058731,9.415410995483398,-0.107345350086689,-2.7820382118225098
1413394883275760500,0.00610559806227684,0.029731906950473785,0.06936156004667282,9.464020729064941,0.145262211561203,-2.7433102130889893
1413394883280760500,-0.0044378116726875305,0.024138815701007843,0.07288564741611481,9.333481788635254,0.26022806763648987,-2.780982255935669
1413394883285760500,-0.01366288959980011,0.040285855531692505,0.07789155095815659,9.47256851196289,-0.06696055829524994,-2.6853044033050537
1413394883290760500,-0.020065901800990105,0.02084801346063614,0.08355160057544708,9.130633354187012,-0.21592530608177185,-2.5525619983673096
1413394883295760500,-0.012947527691721916,0.026271212846040726,0.08341489732265472,9.42520523071289,-0.3049037754535675,-2.7245874404907227
1413394883300760500,0.00033738836646080017,0.019335243850946426,0.09041894972324371,9.236485481262207,-0.39436888694763184,-2.456742286682129
1413394883305760500,0.012432795017957687,0.01364058256149292,0.08609312772750854,9.636284828186035,-0.37105104327201843,-2.921128034591675
1413394883310760500,0.01582227647304535,0.021342571824789047,0.07490292936563492,9.561810493469238,-0.19153936207294464,-2.5994880199432373
1413394883315760500,0.016603726893663406,0.018608111888170242,0.07633309066295624,9.423103332519531,-0.033797793090343475,-2.887059450149536
1413394883320760500,0.008859500288963318,0.03121296316385269,0.07086823135614395,9.358148574829102,0.14519861340522766,-2.6056244373321533
1413394883325760500,-0.0030818283557891846,0.023428142070770264,0.08201269060373306,9.504919052124023,0.15326185524463654,-2.820375919342041
1413394883330760500,-0.01444932073354721,0.03529887646436691,0.08351226896047592,9.447093963623047,0.03771344572305679,-2.498231887817383
1413394883335760500,-0.015151215717196465,0.019393213093280792,0.0925789400935173,9.1224946975708,-0.22345994412899017,-2.6155617237091064
1413394883340760500,-0.012314075604081154,0.022821128368377686,0.08759446442127228,9.27060604095459,-0.3792526125907898,-2.644423007965088
1413394883345760500,-0.0010399818420410156,0.004623875021934509,0.09310056269168854,9.269464492797852,-0.3300509452819824,-2.586048126220703
1413394883350760500,0.016001150012016296,0.01925189048051834,0.09032043814659119,9.668291091918945,-0.19905805587768555,-2.824815034866333
1413394883355760500,0.014492977410554886,0.02426280826330185,0.0785084217786789,9.406776428222656,-0.08463991433382034,-2.5644137859344482
1413394883360760500,0.008167706429958344,0.028408139944076538,0.07493098080158234,9.505315780639648,-0.010746967047452927,-2.805910110473633
1413394883365760500,-0.0017249397933483124,0.025554250925779343,0.06943915039300919,9.317051887512207,0.17737220227718353,-2.5222151279449463
1413394883370760500,-0.007916633039712906,0.02826303243637085,0.08200100064277649,9.586223602294922,0.06393132358789444,-2.836652994155884
1413394883375760500,-0.016471948474645615,0.0381690189242363,0.08212824165821075,9.317249298095703,-0.08463187515735626,-2.5965611934661865
1413394883380760500,-0.010184286162257195,0.024255234748125076,0.09049439430236816,9.187787055969238,-0.20776145160198212,-2.55960750579834
1413394883385760500,-0.010167712345719337,0.024953454732894897,0.0820116400718689,9.408865928649902,-0.30508530139923096,-2.6439037322998047
1413394883390760500,0.001122165471315384,0.017917897552251816,0.08536333590745926,9.431756019592285,-0.27251940965652466,-2.635620355606079
1413394883395760500,0.009610440582036972,0.010742966085672379,0.08612276613712311,9.611101150512695,-0.22347311675548553,-2.873952865600586
1413394883400760500,0.01249048113822937,0.026183046400547028,0.06941068917512894,9.480585098266602,0.013756250031292439,-2.7445106506347656
1413394883405760500,0.0025576651096343994,0.022917717695236206,0.0736522376537323,9.252128601074219,0.055787552148103714,-2.70833683013916
1413394883410760500,0.000497087836265564,0.027752801775932312,0.07224807143211365,9.513442993164062,0.16120272874832153,-2.8071582317352295
1413394883415760500,-0.007987238466739655,0.030433710664510727,0.08477772027254105,9.423282623291016,0.02239479124546051,-2.774683713912964
1413394883420760500,-0.016499077901244164,0.026933904737234116,0.07991943508386612,9.37501335144043,-0.16603779792785645,-2.7423770427703857
1413394883425760500,-0.010231871157884598,0.028448261320590973,0.08483746647834778,9.294483184814453,-0.3626081943511963,-2.603759765625
1413394883430760500,-0.0017235949635505676,0.017938144505023956,0.08835823833942413,9.375393867492676,-0.37892696261405945,-2.6434550285339355
1413394883435760500,0.013096708804368973,0.025642763823270798,0.08681139349937439,9.341995239257812,-0.26397839188575745,-2.5952889919281006
1413394883440760500,0.013014864176511765,0.008809812366962433,0.08050008118152618,9.342483520507812,-0.1409607231616974,-2.7420384883880615
1413394883445760500,0.006015069782733917,0.024755999445915222,0.07434938848018646,9.595212936401367,-0.018821517005562782,-2.6866977214813232
1413394883450760500,0.002535305917263031,0.02144605666399002,0.07433384656906128,9.284730911254883,0.0391726978123188,-2.7491631507873535
1413394883455760500,-0.004432570189237595,0.03261315077543259,0.07423654198646545,9.472625732421875,0.11255935579538345,-2.7750096321105957
1413394883460760500,-0.01575702615082264,0.025620032101869583,0.082061767578125,9.252606391906738,0.03891388326883316,-2.634632110595703
1413394883465760500,-0.01648952253162861,0.027662646025419235,0.08776319026947021,9.39941120147705,-0.2234891802072525,-2.6756174564361572
1413394883470760500,-0.003909755498170853,0.026362672448158264,0.0918859988451004,9.252564430236816,-0.45361313223838806,-2.398831605911255
1413394883475760500,0.009595338255167007,0.021338626742362976,0.08881942182779312,9.579394340515137,-0.34667500853538513,-2.7724952697753906
1413394883480760500,0.014456961303949356,0.019983991980552673,0.08679788559675217,9.3251953125,-0.04303794354200363,-2.539625883102417
1413394883485760500,0.015182100236415863,0.014388322830200195,0.0805455818772316,9.521454811096191,-0.05078861489892006,-2.822246551513672
1413394883490760500,0.003873072564601898,0.031152382493019104,0.06728912144899368,9.545641899108887,-0.0611962154507637,-2.614346504211426
1413394883495760500,-0.003760196268558502,0.014356877654790878,0.07431154698133469,9.447154998779297,0.15257370471954346,-2.862001657485962
1413394883500760500,-0.012925578281283379,0.03323299437761307,0.07094427198171616,9.439543724060059,0.15439264476299286,-2.6044790744781494
1413394883505760500,-0.017105018720030785,0.0242595374584198,0.07994378358125687,9.399629592895508,-0.08393245190382004,-2.763744592666626
1413394883510760500,-0.016539840027689934,0.03402772545814514,0.07785245031118393,9.46474552154541,-0.45415565371513367,-2.6129791736602783
1413394883515760500,0.003205597400665283,0.00949186086654663,0.08691580593585968,9.29348087310791,-0.37971755862236023,-2.609706401824951
1413394883520760500,0.017297428101301193,0.026275061070919037,0.0826919823884964,9.301895141601562,-0.2629467844963074,-2.554271936416626
1413394883525760500,0.02010604739189148,0.01095399260520935,0.08824117481708527,9.285414695739746,-0.018333114683628082,-2.626325845718384
1413394883530760500,0.010983265936374664,0.015669357031583786,0.08478562533855438,9.7496919631958,0.11936057358980179,-2.857436180114746
1413394883535760500,-0.0024296343326568604,0.020002007484436035,0.07219182699918747,9.414485931396484,0.11200904846191406,-2.694556474685669
1413394883540760500,-0.013583824038505554,0.027777913957834244,0.06578447669744492,9.448185920715332,0.14527679979801178,-2.8145394325256348
1413394883545760500,-0.016466466709971428,0.019329704344272614,0.0778888612985611,9.310128211975098,-0.07536006718873978,-2.685169219970703
1413394883550760500,-0.01582610234618187,0.028355464339256287,0.07728933542966843,9.366549491882324,-0.36290663480758667,-2.54457688331604
1413394883555760500,-0.0010165907442569733,0.022897519171237946,0.08978793025016785,9.269368171691895,-0.4533711075782776,-2.6511807441711426
1413394883560760500,0.0145060233771801,0.021437358111143112,0.09113581478595734,9.286053657531738,-0.18225063383579254,-2.660223960876465
1413394883565760500,0.013068512082099915,0.01008196547627449,0.08113603293895721,9.505635261535645,0.055630624294281006,-2.6032650470733643
1413394883570760500,0.002495706081390381,0.02272947132587433,0.07333002984523773,9.749375343322754,-0.06803523749113083,-2.7511067390441895
1413394883575760500,-0.012368161231279373,0.03205987811088562,0.053279466927051544,9.423104286193848,-0.3712167739868164,-2.6701724529266357
1413394883580760500,-0.018455684185028076,-0.003099663183093071,0.05210820958018303,9.334558486938477,-0.04328188672661781,-2.880079746246338
1413394883585760500,-0.021483320742845535,0.002414889633655548,0.04174184799194336,9.538996696472168,-0.45718511939048767,-2.5484113693237305
1413394883590760500,-0.007359873503446579,-0.02542600780725479,0.045056529343128204,9.366889953613281,-0.47705215215682983,-2.6827268600463867
1413394883595760500,0.01594596356153488,-0.018533039838075638,0.05835772305727005,9.668927192687988,-0.16803334653377533,-2.6292836666107178
1413394883600760500,0.02248183637857437,0.013824254274368286,0.08482950925827026,9.879419326782227,0.47302237153053284,-3.018510103225708
1413394883605760500,-0.00035391002893447876,0.04213502258062363,0.06865058094263077,9.568671226501465,0.13867725431919098,-2.8108584880828857
1413394883610760500,-0.0059265755116939545,0.030058089643716812,0.08818359673023224,9.227723121643066,-0.03836675360798836,-3.0272562503814697
1413394883615760500,0.004922449588775635,0.061647430062294006,0.14035284519195557,9.276931762695312,0.1343384087085724,-2.899077892303467
1413394883620760500,-0.002244710922241211,0.05472656339406967,0.17891424894332886,8.81955337524414,0.16281144320964813,-2.6329257488250732
1413394883625760500,-0.018022039905190468,0.04648679494857788,0.176949143409729,9.295077323913574,-0.41928231716156006,-2.880991220474243
1413394883630760500,-0.014065448194742203,0.03908044099807739,0.13891345262527466,8.894954681396484,-0.9303378462791443,-2.343815565109253
1413394883635760500,-0.0012254193425178528,0.004016149789094925,0.06297173351049423,9.076292991638184,-1.0654054880142212,-2.6335840225219727
1413394883640760500,0.034076474606990814,-0.014462722465395927,0.027287274599075317,9.483904838562012,-0.588486909866333,-2.6561717987060547
1413394883645760500,0.05107901990413666,-0.008384082466363907,0.024077963083982468,9.561624526977539,0.26191091537475586,-2.6927404403686523
1413394883650760500,0.02998404949903488,0.03476589918136597,0.024141352623701096,9.274984359741211,0.8900848031044006,-2.5533998012542725
1413394883655760500,-0.02243513986468315,-0.004786789417266846,0.024638835340738297,8.861201286315918,0.7180603742599487,-2.3278024196624756
1413394883660760500,-0.05881980061531067,0.005976561456918716,0.02023676410317421,9.719305038452148,0.0866103544831276,-2.9748432636260986
1413394883665760500,-0.05281252786517143,0.018630187958478928,0.06010960787534714,9.210372924804688,0.03626667708158493,-2.4162094593048096
1413394883670760500,-0.02081894688308239,0.019264206290245056,0.12143932282924652,10.215353965759277,-0.44433721899986267,-3.131652355194092
1413394883675760500,-0.00016901642084121704,0.06246151030063629,0.12553364038467407,8.784266471862793,-0.448452889919281,-1.9860299825668335
1413394883680760500,0.015834324061870575,0.007023900747299194,0.12635938823223114,9.423489570617676,-0.5697959661483765,-2.6682586669921875
1413394883685760500,0.02642907202243805,0.04925171285867691,0.10529125481843948,10.108710289001465,-0.3796711564064026,-2.9925966262817383
1413394883690760500,0.04406201094388962,0.03560737520456314,0.1294594705104828,9.450979232788086,0.01468170527368784,-2.6204476356506348
1413394883695760500,0.034922972321510315,0.05238988995552063,0.12003027647733688,9.82259464263916,0.05630827322602272,-2.8580093383789062
1413394883700760500,0.00709914043545723,0.03490084409713745,0.08277829736471176,8.884998321533203,-0.009930665604770184,-2.1530773639678955
1413394883705760500,-0.013177851215004921,-0.003808051347732544,0.0546562597155571,9.350090980529785,0.16997331380844116,-2.95418643951416
1413394883710760500,-0.029991643503308296,0.005710512399673462,0.04950311779975891,9.68567943572998,0.13944408297538757,-2.975325107574463
1413394883715760500,-0.03701283037662506,0.005147770047187805,0.06293331831693649,9.545662879943848,-0.1079259142279625,-2.7347002029418945
1413394883720760500,-0.028581054881215096,0.014063391834497452,0.054578281939029694,9.1638765335083,-0.47118836641311646,-2.220244884490967
1413394883725760500,-0.012723727151751518,0.010676112025976181,0.049113623797893524,9.393401145935059,-0.3969769775867462,-2.5410261154174805
1413394883730760500,-0.0005495250225067139,-0.0015681777149438858,0.047208551317453384,9.195136070251465,0.07999394088983536,-2.8554160594940186
1413394883735760500,0.0028268098831176758,0.0162862129509449,0.06066540256142616,9.604090690612793,-0.1398126780986786,-3.031038999557495
1413394883740760500,0.022360432893037796,0.0641404241323471,0.09322567284107208,9.51361083984375,-0.397256076335907,-2.6168572902679443
1413394883745760500,0.0335216224193573,0.022482067346572876,0.11207431554794312,8.673091888427734,-0.020648812875151634,-2.2959659099578857
1413394883750760500,0.022149134427309036,0.04315965622663498,0.10452251136302948,9.27076244354248,0.17293699085712433,-2.6717143058776855
1413394883755760500,-0.011777956038713455,0.026072397828102112,0.10242228955030441,9.300911903381348,0.40788912773132324,-2.7899646759033203
1413394883760760500,-0.026321545243263245,0.028707917779684067,0.10934742540121078,9.87144660949707,0.1349291205406189,-3.405327081680298
1413394883765760500,-0.030002828687429428,0.06969034671783447,0.09941743314266205,9.480440139770508,-0.4617694914340973,-2.5460121631622314
1413394883770760500,-0.006662037223577499,0.030140813440084457,0.10746008157730103,8.991039276123047,-0.5429860949516296,-2.451530694961548
1413394883775760500,0.012382380664348602,0.023492202162742615,0.08915021270513535,9.358915328979492,-0.42682403326034546,-2.529287576675415
1413394883780760500,0.013222306966781616,0.009683571755886078,0.06551013886928558,9.528757095336914,0.01467737928032875,-2.8382201194763184
1413394883785760500,0.003386884927749634,0.02311774715781212,0.06538919359445572,9.797740936279297,0.18530862033367157,-3.130356550216675
1413394883790760500,-0.0032994933426380157,0.03363762050867081,0.05829726532101631,9.464999198913574,-0.38654443621635437,-2.5105323791503906
1413394883795760500,0.0038942955434322357,0.007786639034748077,0.058656901121139526,9.162758827209473,-0.28180447220802307,-2.3463258743286133
1413394883800760500,0.007559582591056824,-0.00028547830879688263,0.06067138910293579,9.301337242126465,0.0645056962966919,-2.5256123542785645
1413394883805760500,-0.006453715264797211,0.025309022516012192,0.0645354837179184,9.952835083007812,0.28584328293800354,-3.018465995788574
1413394883810760500,-0.027638040482997894,0.02195468172430992,0.09039882570505142,9.469983100891113,0.5110195279121399,-2.9571731090545654
1413394883815760500,-0.03125452995300293,0.04473024606704712,0.10023649036884308,9.750666618347168,-0.23272743821144104,-2.8341915607452393
1413394883820760500,-0.01731294021010399,0.05773897469043732,0.0729437917470932,9.113219261169434,-0.8218275308609009,-2.2432003021240234
1413394883825760500,0.015363015234470367,0.010222427546977997,0.09256736934185028,8.688995361328125,-0.2822437882423401,-2.276275873184204
1413394883830760500,0.03455124795436859,0.012283019721508026,0.109259232878685,9.930974006652832,0.12248688191175461,-2.97753643989563
1413394883835760500,0.017379030585289,0.03727814555168152,0.09926781058311462,9.413983345031738,0.2922682464122772,-2.932831287384033
1413394883840760500,0.005903474986553192,0.037105023860931396,0.10771752893924713,9.602500915527344,0.14166301488876343,-2.8756279945373535
1413394883845760500,-0.005568463355302811,0.03917752951383591,0.0876607894897461,9.18836498260498,-0.2965697646141052,-2.351052761077881
1413394883850760500,-0.009722905233502388,0.00813155248761177,0.05235319584608078,8.762575149536133,-0.4344926178455353,-2.1465957164764404
1413394883855760500,0.007527731359004974,-0.024505391716957092,0.07610505819320679,9.392261505126953,0.06314260512590408,-2.7377724647521973
1413394883860760500,-0.010035445913672447,0.019618049263954163,0.07259860634803772,9.91344928741455,0.1866297721862793,-2.948593854904175
1413394883865760500,-0.031237870454788208,0.035071589052677155,0.06846557557582855,9.414716720581055,0.11964838206768036,-2.8421897888183594
1413394883870760500,-0.02285437285900116,0.03748743236064911,0.07014011591672897,9.61275577545166,-0.34703996777534485,-2.712222099304199
1413394883875760500,-0.005921371281147003,0.03843367099761963,0.06010302156209946,9.471803665161133,-0.8280633091926575,-2.406986713409424
1413394883880760500,0.010506264865398407,0.012654010206460953,0.04828000068664551,8.84302043914795,-0.25591734051704407,-2.418534278869629
1413394883885760500,0.03732163459062576,0.005355909466743469,0.08766868710517883,9.86487102508545,0.244394913315773,-2.88857364654541
1413394883890760500,0.01891862228512764,0.03322447091341019,0.10276857018470764,9.740242004394531,0.5218116044998169,-3.111595630645752
1413394883895760500,-0.013670749962329865,0.04853571951389313,0.1066427081823349,9.592353820800781,0.4781084656715393,-2.94915509223938
1413394883900760500,-0.014543537050485611,0.049723006784915924,0.12017060816287994,9.333719253540039,0.029830889776349068,-2.5633018016815186
1413394883905760500,-0.025086700916290283,0.040016815066337585,0.07734577357769012,9.252185821533203,-0.6643778085708618,-2.4533283710479736
1413394883910760500,0.00036475807428359985,-0.0021556727588176727,0.07399646937847137,9.00750732421875,-0.6587156653404236,-2.355485677719116
1413394883915760500,0.025745727121829987,-0.00346481055021286,0.09338418394327164,9.449594497680664,-0.1171507015824318,-2.7316794395446777
1413394883920760500,0.010323446244001389,0.014508787542581558,0.10062167048454285,9.734285354614258,0.21188735961914062,-3.0383660793304443
1413394883925760500,-0.015141718089580536,0.030324667692184448,0.091190405189991,9.740945816040039,0.09557261317968369,-2.9914371967315674
1413394883930760500,-0.013011077418923378,0.04975828528404236,0.0788169801235199,9.389745712280273,-0.06114973872900009,-2.507751941680908
1413394883935760500,-0.008784186094999313,0.027710668742656708,0.050133638083934784,9.056877136230469,-0.8180963397026062,-2.289644718170166
1413394883940760500,0.006144024431705475,-0.004260597750544548,0.046171024441719055,9.25354290008545,-0.3872936964035034,-2.4927475452423096
1413394883945760500,0.01814136654138565,-0.003472931683063507,0.07189931720495224,9.391119956970215,0.31840112805366516,-2.804516077041626
1413394883950760500,-0.0021748729050159454,0.02786479890346527,0.10026973485946655,9.765286445617676,0.7357198596000671,-3.0863595008850098
1413394883955760500,-0.02978856861591339,0.05143137276172638,0.10395325720310211,9.741028785705566,0.29059523344039917,-2.9910051822662354
1413394883960760500,-0.02650536596775055,0.055415622889995575,0.09268853813409805,9.201624870300293,-0.3740544319152832,-2.310689926147461
1413394883965760500,-0.011472593992948532,0.036608658730983734,0.06949959695339203,9.23632526397705,-0.8122737407684326,-2.4352915287017822
1413394883970760500,0.013124749064445496,0.012493390589952469,0.0671909749507904,9.122047424316406,-0.7381909489631653,-2.3150906562805176
1413394883975760500,0.028497450053691864,-0.004276281222701073,0.07535955309867859,9.399890899658203,-0.19871340692043304,-2.6160848140716553
1413394883980760500,0.025857701897621155,0.025020696222782135,0.10422368347644806,9.798754692077637,0.5287600159645081,-3.0869293212890625
1413394883985760500,-0.007374737411737442,0.04300878942012787,0.10389842838048935,9.609387397766113,0.49778327345848083,-2.859746217727661
1413394883990760500,-0.018827857449650764,0.0545487254858017,0.08769097924232483,9.634665489196777,-0.31322482228279114,-2.637540817260742
1413394883995760500,-0.017224671319127083,0.040044426918029785,0.062440767884254456,9.104805946350098,-0.4052674472332001,-2.4054665565490723
1413394884000760500,-0.0045210495591163635,-0.0007641799747943878,0.05532670393586159,8.967577934265137,-0.5075543522834778,-2.3526077270507812
1413394884005760500,0.006686054170131683,-0.025203101336956024,0.06289427727460861,9.540212631225586,-0.27116143703460693,-2.6823909282684326
1413394884010760500,0.011821314692497253,0.010320402681827545,0.09173770993947983,9.912420272827148,0.3388424813747406,-3.0950443744659424
1413394884015760500,-0.0009071752429008484,0.031852781772613525,0.1054701879620552,9.576606750488281,0.3822360932826996,-2.794856071472168
1413394884020760500,-0.018566546961665154,0.04350971430540085,0.09844296425580978,9.618819236755371,0.046258337795734406,-2.6859400272369385
1413394884025760500,-0.019962824881076813,0.03662022948265076,0.08199883997440338,9.512068748474121,-0.39734163880348206,-2.5628042221069336
1413394884030760500,-0.0016146190464496613,0.03220570832490921,0.06490097939968109,9.063313484191895,-0.5672547221183777,-2.3790841102600098
1413394884035760500,0.015182886272668839,-0.003439713269472122,0.06832896918058395,9.025711059570312,-0.3537551462650299,-2.3791232109069824
1413394884040760500,0.015178725123405457,0.0031331703066825867,0.08325104415416718,9.744239807128906,0.030558008700609207,-2.9447011947631836
1413394884045760500,0.006747797131538391,0.0401616245508194,0.09844455868005753,9.585417747497559,0.3822211027145386,-2.8998546600341797
1413394884050760500,-0.002392292022705078,0.050536319613456726,0.104236900806427,9.455000877380371,0.25943058729171753,-2.735213279724121
1413394884055760500,-0.026344910264015198,0.048468053340911865,0.08073699474334717,9.383220672607422,-0.01960141770541668,-2.570722818374634
1413394884060760500,-0.01926571875810623,0.025849364697933197,0.06685224175453186,9.12162971496582,-0.32162439823150635,-2.5342166423797607
1413394884065760500,-0.0010252594947814941,0.009954188019037247,0.0646957978606224,9.057228088378906,-0.5748663544654846,-2.3394908905029297
1413394884070760500,0.01175173744559288,-0.010934604331851006,0.06707180291414261,9.38569164276123,-0.31354793906211853,-2.7886486053466797
1413394884075760500,0.016556892544031143,0.005502771586179733,0.08524677157402039,9.538591384887695,0.07983797043561935,-2.777217149734497
1413394884080760500,0.010269485414028168,0.021894801408052444,0.09961135685443878,9.699736595153809,0.3335253894329071,-2.816525459289551
1413394884085760500,-0.005831081420183182,0.03626859933137894,0.09001804888248444,9.60980224609375,0.1770680844783783,-2.8098952770233154
1413394884090760500,-0.017822742462158203,0.04067976027727127,0.07444490492343903,9.520134925842285,-0.011847881600260735,-2.701307535171509
1413394884095760500,-0.018588228151202202,0.026001423597335815,0.0678611770272255,9.390737533569336,-0.4107476472854614,-2.6840412616729736
1413394884100760500,-0.0009720362722873688,0.027655497193336487,0.062047649174928665,9.293495178222656,-0.4769814610481262,-2.520993709564209
1413394884105760500,0.01101144403219223,0.01586407795548439,0.07960204780101776,9.506247520446777,-0.21509486436843872,-2.7565219402313232
1413394884110760500,0.012349821627140045,0.02012614905834198,0.09347710013389587,9.602727890014648,0.09626652300357819,-2.743565082550049
1413394884115760500,0.0018645785748958588,0.03831539303064346,0.09234915673732758,9.716071128845215,0.21042566001415253,-2.9063565731048584
1413394884120760500,-0.01359551027417183,0.040257662534713745,0.08858046680688858,9.34907054901123,0.14425645768642426,-2.694932699203491
1413394884125760500,-0.019903497770428658,0.02954062446951866,0.07676912099123001,9.407323837280273,-0.12506598234176636,-2.650818347930908
1413394884130760500,-0.007971856743097305,0.0253777913749218,0.07577250897884369,9.269003868103027,-0.40320053696632385,-2.536953926086426
1413394884135760500,0.007461715489625931,0.01722095161676407,0.0725647434592247,9.049546241760254,-0.4602646231651306,-2.567756175994873
1413394884140760500,0.013031106442213058,-0.0037531573325395584,0.08441215753555298,9.262655258178711,-0.06771094352006912,-2.6185693740844727
1413394884145760500,0.0052337646484375,0.0032404139637947083,0.09542060643434525,9.579577445983887,0.08060133457183838,-2.782729387283325
1413394884150760500,-0.0031166374683380127,0.024361882358789444,0.09293406456708908,9.724371910095215,0.11973036080598831,-2.817619800567627
1413394884155760500,-0.014247942715883255,0.03274645656347275,0.08513706922531128,9.39818000793457,0.13574032485485077,-2.7507498264312744
1413394884160760500,-0.018488265573978424,0.026192735880613327,0.08052800595760345,9.423730850219727,-0.1490715593099594,-2.6358890533447266
1413394884165760500,-0.005176067352294922,0.0290180966258049,0.07018996775150299,9.407663345336914,-0.5256189107894897,-2.683856248855591
1413394884170760500,0.010957151651382446,0.020050842314958572,0.06746873259544373,9.154616355895996,-0.4124278128147125,-2.5943210124969482
1413394884175760500,0.01656758040189743,0.003807816654443741,0.08504009246826172,9.27816390991211,0.03940241038799286,-2.675114154815674
1413394884180760500,0.007359795272350311,0.01579611375927925,0.08981271088123322,9.69369888305664,0.07287408411502838,-2.8328990936279297
1413394884185760500,-0.006563950330018997,0.03845180571079254,0.08312563598155975,9.732243537902832,0.1107412576675415,-2.9810051918029785
1413394884190760500,-0.009295834228396416,0.040357671678066254,0.09086252748966217,9.381206512451172,0.15992164611816406,-2.654303550720215
1413394884195760500,-0.01565745659172535,0.03583863377571106,0.08199246227741241,9.391121864318848,-0.05029155686497688,-2.650409698486328
1413394884200760500,-0.012289611622691154,0.03663386404514313,0.06799819320440292,9.38296890258789,-0.46866872906684875,-2.5944621562957764
1413394884205760500,0.003917582333087921,0.02416739985346794,0.068106509745121,9.195658683776855,-0.42113202810287476,-2.6994194984436035
1413394884210760500,0.014486309140920639,0.01217643916606903,0.08862464874982834,9.302576065063477,-0.06744994223117828,-2.562880277633667
1413394884215760500,0.006727159023284912,0.006708502769470215,0.08768363296985626,9.612223625183105,0.08102526515722275,-2.7982513904571533
1413394884220760500,-0.0023882463574409485,0.02507433295249939,0.08379452675580978,9.642796516418457,0.10312101244926453,-2.8258514404296875
1413394884225760500,-0.00436050072312355,0.027002539485692978,0.09164440631866455,9.536615371704102,0.08629164099693298,-2.808197021484375
1413394884230760500,-0.008627746254205704,0.03874053806066513,0.07778523117303848,9.439547538757324,-0.0592213049530983,-2.611896514892578
1413394884235760500,-0.008778482675552368,0.02697712928056717,0.07629338651895523,9.31742000579834,-0.2310362309217453,-2.584433078765869
1413394884240760500,0.004531826823949814,0.019278518855571747,0.07730131596326828,9.228349685668945,-0.36271631717681885,-2.544367790222168
1413394884245760500,0.009477339684963226,0.011484108865261078,0.08654095977544785,9.432809829711914,-0.25667282938957214,-2.5530362129211426
1413394884250760500,0.005895707756280899,-0.001687418669462204,0.08553469181060791,9.432244300842285,-0.09203572571277618,-2.5618302822113037
1413394884255760500,-0.004559982568025589,0.027160443365573883,0.078167624771595,9.774335861206055,-0.01843920722603798,-2.815688133239746
1413394884260760500,-0.007266884669661522,0.03495305776596069,0.07632333040237427,9.18625545501709,0.021998833864927292,-2.5548293590545654
1413394884265760500,-0.005070909857749939,0.02967793494462967,0.07713150978088379,9.717277526855469,-0.0928380936384201,-2.724428415298462
1413394884270760500,-0.010873507708311081,0.028937306255102158,0.06597461551427841,9.284587860107422,-0.20661069452762604,-2.537569522857666
1413394884275760500,-0.0031386762857437134,0.01992660015821457,0.07239227741956711,8.991785049438477,-0.24713121354579926,-2.6320431232452393
1413394884280760500,0.01162673532962799,0.01015353575348854,0.08297616243362427,9.344539642333984,-0.23964062333106995,-2.505300998687744
1413394884285760500,0.004580356180667877,-0.004475843161344528,0.08690500259399414,9.497563362121582,-0.08453316241502762,-2.650139331817627
1413394884290760500,-0.004512384533882141,0.024375595152378082,0.0803740918636322,9.643097877502441,0.06280039250850677,-2.8083455562591553
1413394884295760500,0.0004155971109867096,0.025842495262622833,0.08895638585090637,9.276871681213379,-0.05942241847515106,-2.628790855407715
1413394884300760500,0.0026860684156417847,0.017004135996103287,0.08692407608032227,9.643996238708496,-0.06902392953634262,-2.848403215408325
1413394884305760500,-0.005218874663114548,0.022576920688152313,0.07283374667167664,9.446769714355469,0.013201184570789337,-2.5879862308502197
1413394884310760500,-0.010933056473731995,0.01654091104865074,0.0700986236333847,9.260139465332031,-0.11583251506090164,-2.739413022994995
1413394884315760500,-0.006632555276155472,0.00880090519785881,0.07876107096672058,9.36785888671875,-0.13450415432453156,-2.522996425628662
1413394884320760500,-0.015645354986190796,-0.007293272763490677,0.0842033252120018,9.554638862609863,0.02929745800793171,-2.8132283687591553
1413394884325760500,-0.026185525581240654,0.025833208113908768,0.08471699804067612,9.569716453552246,0.006662346888333559,-2.858773708343506
1413394884330760500,-0.019119564443826675,0.025832399725914,0.09040653705596924,9.546161651611328,-0.3211934566497803,-2.8175671100616455
1413394884335760500,0.0006738714873790741,0.029681123793125153,0.09602521359920502,9.439858436584473,-0.40456920862197876,-2.744279623031616
1413394884340760500,0.00615011528134346,0.04089415818452835,0.0790010318160057,9.423089027404785,-0.21475565433502197,-2.5866599082946777
1413394884345760500,0.015795934945344925,0.022825680673122406,0.06080403923988342,9.26094913482666,-0.26978600025177,-2.6669349670410156
1413394884350760500,0.027665473520755768,0.01008673757314682,0.05625252425670624,9.180362701416016,-0.34575989842414856,-2.5543770790100098
1413394884355760500,0.03135260194540024,0.008660051971673965,0.06113214045763016,9.367749214172363,0.2582295536994934,-2.7480831146240234
1413394884360760500,0.015049882233142853,0.02022058516740799,0.06167205050587654,9.415782928466797,0.36865338683128357,-2.9464144706726074
1413394884365760500,-0.0011841356754302979,0.022251080721616745,0.07859016954898834,9.480480194091797,0.2595460116863251,-2.792677879333496
1413394884370760500,-0.016500983387231827,0.033842846751213074,0.07863213866949081,9.480098724365234,0.3047468066215515,-2.619001865386963
1413394884375760500,-0.028445806354284286,0.034656018018722534,0.08471177518367767,9.162262916564941,0.09532884508371353,-2.583751916885376
1413394884380760500,-0.03829776868224144,0.008740000426769257,0.09387549757957458,9.171926498413086,-0.23136462271213531,-2.7237801551818848
1413394884385760500,-0.03325364366173744,0.019815176725387573,0.08843979239463806,9.694337844848633,-0.6016680002212524,-2.752054452896118
1413394884390760500,-0.002125043421983719,0.04050644487142563,0.10244162380695343,9.512627601623535,-0.6332603693008423,-2.662280321121216
1413394884395760500,0.029339179396629333,0.03299723565578461,0.10231463611125946,9.309043884277344,-0.8106138706207275,-2.490157127380371
1413394884400760500,0.05179761350154877,0.029696017503738403,0.09213758260011673,9.60328483581543,-0.29657885432243347,-2.6029932498931885
1413394884405760500,0.04610127955675125,0.03856769949197769,0.076693594455719,9.494588851928711,0.36777427792549133,-2.6674273014068604
1413394884410760500,0.013677578419446945,0.02527172863483429,0.08383964002132416,9.420613288879395,0.7694645524024963,-2.797198534011841
1413394884415760500,-0.03695722296833992,0.0351606085896492,0.05113551765680313,9.790485382080078,0.5464674830436707,-3.0773520469665527
1413394884420760500,-0.06027699261903763,0.04194436967372894,0.06333061307668686,9.088837623596191,-0.10143021494150162,-2.473104953765869
1413394884425760500,-0.0439363569021225,0.022479139268398285,0.07481279224157333,9.25346851348877,-0.7148998379707336,-2.4195332527160645
1413394884430760500,-0.010678989812731743,0.012887179851531982,0.08018577843904495,9.400491714477539,-0.5848837494850159,-2.429888963699341
1413394884435760500,0.0174858495593071,-0.009728875011205673,0.09244778752326965,9.259923934936523,-0.07618284225463867,-2.5754830837249756
1413394884440760500,0.013929300010204315,0.0024078600108623505,0.08531458675861359,9.831806182861328,0.193084716796875,-2.923619031906128
1413394884445760500,-0.00017652660608291626,0.02651122212409973,0.09661777317523956,9.642918586730957,0.07749120891094208,-2.8274877071380615
1413394884450760500,-0.000310506671667099,0.04129929095506668,0.08895879238843918,9.568991661071777,-0.46940991282463074,-2.580400228500366
1413394884455760500,0.016577325761318207,0.02441098541021347,0.09390344470739365,9.235053062438965,-0.5257925391197205,-2.283264636993408
1413394884460760500,0.03137698769569397,0.009945999830961227,0.09479405730962753,9.015690803527832,-0.09050639718770981,-2.466337203979492
1413394884465760500,0.017158862203359604,0.004170432686805725,0.09728926420211792,9.627861976623535,0.39203163981437683,-2.8295884132385254
1413394884470760500,-0.02654247358441353,0.016509324312210083,0.07034489512443542,9.683335304260254,0.6845578551292419,-3.0942089557647705
1413394884475760500,-0.051103394478559494,0.033718936145305634,0.06852450221776962,9.455672264099121,0.2505253553390503,-2.8022396564483643
1413394884480760500,-0.0517636314034462,0.045095399022102356,0.05918283760547638,9.16418743133545,-0.8124168515205383,-2.4071900844573975
1413394884485760500,-0.007052004337310791,0.008913997560739517,0.06202927231788635,8.894487380981445,-0.9371089339256287,-2.379444122314453
1413394884490760500,0.03254358470439911,-0.002280203625559807,0.08436354249715805,9.187943458557129,-0.16556769609451294,-2.6084132194519043
1413394884495760500,0.03028266876935959,3.088265657424927e-05,0.09259218722581863,9.57049560546875,0.4993842542171478,-3.0609514713287354
1413394884500760500,-0.0003813914954662323,0.0202602781355381,0.09371042251586914,9.512928009033203,0.40605559945106506,-2.959404706954956
1413394884505760500,-0.0067322738468647,0.04427645355463028,0.09917318820953369,9.660306930541992,-0.03790689632296562,-2.8104419708251953
1413394884510760500,0.005266960710287094,0.043396979570388794,0.0902136042714119,9.496417045593262,-0.7454551458358765,-2.662047863006592
1413394884515760500,0.012318972498178482,0.042283445596694946,0.07362227886915207,9.03899097442627,-0.49215883016586304,-2.437821865081787
1413394884520760500,0.021478727459907532,0.012391045689582825,0.08768720924854279,9.203676223754883,0.26871031522750854,-2.648059606552124
1413394884525760500,-0.008769355714321136,0.02380695939064026,0.09541087597608566,9.57783317565918,0.7346548438072205,-3.0190486907958984
1413394884530760500,-0.049720194190740585,0.03925549238920212,0.07704215496778488,9.472088813781738,0.19332128763198853,-2.875713586807251
1413394884535760500,-0.040590763092041016,0.023978739976882935,0.08388549089431763,9.383942604064941,-0.7730143666267395,-2.6391043663024902
1413394884540760500,-0.0027801543474197388,0.029794134199619293,0.06718768924474716,9.644652366638184,-0.8293641209602356,-2.604408025741577
1413394884545760500,0.0296354740858078,0.012844040989875793,0.05748062580823898,8.851171493530273,-0.32732701301574707,-2.2567481994628906
1413394884550760500,0.03147666156291962,-0.0035244524478912354,0.08206475526094437,9.587175369262695,0.16290771961212158,-2.9181740283966064
1413394884555760500,0.005309630185365677,0.03030521422624588,0.08935168385505676,9.593461990356445,0.7149141430854797,-2.7448670864105225
1413394884560760500,-0.018657516688108444,0.0357653945684433,0.10108598321676254,9.283164978027344,0.38259103894233704,-2.6820755004882812
1413394884565760500,-0.01584150642156601,0.02376079186797142,0.09428706765174866,9.882163047790527,-0.5167275071144104,-2.8674156665802
1413394884570760500,-0.0038199275732040405,0.04375243932008743,0.07321858406066895,9.41395092010498,-0.5776305198669434,-2.3994548320770264
1413394884575760500,0.00820574164390564,0.014943189918994904,0.0686028003692627,8.933455467224121,-0.23859670758247375,-2.532127618789673
1413394884580760500,0.003927595913410187,0.020378615707159042,0.08988078683614731,9.701952934265137,0.3007088899612427,-2.6763112545013428
1413394884585760500,-0.01587163656949997,0.027711398899555206,0.09640011936426163,9.283411979675293,0.3974246382713318,-2.7557075023651123
1413394884590760500,-0.018150992691516876,0.022460006177425385,0.10464359819889069,9.236082077026367,-0.5505762696266174,-2.482769012451172
1413394884595760500,-0.000896751880645752,0.017935864627361298,0.07736708968877792,9.866958618164062,-0.7240239381790161,-2.8244218826293945
1413394884600760500,0.021072369068861008,0.02332649752497673,0.05551682785153389,9.13696002960205,-0.2382631003856659,-2.5137219429016113
1413394884605760500,0.019461508840322495,-0.0018512159585952759,0.060838732868433,9.260505676269531,0.15698014199733734,-2.615898370742798
1413394884610760500,0.003868464380502701,0.0346326008439064,0.0697614848613739,9.775248527526855,0.24988438189029694,-2.8982956409454346
1413394884615760500,-0.01172613725066185,0.038395121693611145,0.09882256388664246,8.915921211242676,0.28987812995910645,-2.503486156463623
1413394884620760500,-0.021454287692904472,0.0019442960619926453,0.11176031082868576,9.286584854125977,-0.04926300421357155,-2.7153096199035645
1413394884625760500,-0.017109155654907227,0.02476702630519867,0.07935036718845367,9.760415077209473,-0.45983871817588806,-2.8015828132629395
1413394884630760500,-0.00788983516395092,0.0178564190864563,0.0672723576426506,9.300060272216797,-0.3478720188140869,-2.7175681591033936
1413394884635760500,-0.0030227340757846832,0.006008025258779526,0.06160245090723038,9.481551170349121,-0.21548312902450562,-2.6702804565429688
1413394884640760500,-0.002303391695022583,0.04660673439502716,0.07475548982620239,9.684720993041992,0.07898379117250443,-2.6933414936065674
1413394884645760500,0.008128263056278229,0.03570514917373657,0.10936248302459717,8.834470748901367,-0.05083238705992699,-2.5276238918304443
1413394884650760500,0.010297153145074844,0.010756436735391617,0.09611429274082184,9.832858085632324,-0.32978522777557373,-2.82468843460083
1413394884655760500,0.011111222207546234,0.026521723717451096,0.0750020444393158,9.627506256103516,-0.06857960671186447,-2.9321632385253906
1413394884660760500,0.0038984566926956177,0.02695590630173683,0.06307040899991989,9.373489379882812,0.007733341306447983,-2.7591745853424072
1413394884665760500,-0.011556394398212433,0.02584172412753105,0.05802337825298309,9.563602447509766,0.12905879318714142,-2.8567562103271484
1413394884670760500,-0.005923762917518616,0.048018209636211395,0.08332614600658417,9.479814529418945,0.00420440174639225,-2.6771140098571777
1413394884675760500,0.010192584246397018,0.03407175838947296,0.11858268827199936,9.038634300231934,-0.16640181839466095,-2.4699559211730957
1413394884680760500,-0.0017838850617408752,0.007929541170597076,0.09472683072090149,9.237595558166504,-0.14141757786273956,-2.535987377166748
1413394884685760500,-0.009394537657499313,0.006909847259521484,0.0720556378364563,9.661580085754395,0.054597798734903336,-2.920720338821411
1413394884690760500,-0.015805713832378387,0.023590199649333954,0.05821800231933594,9.497026443481445,-0.23920142650604248,-2.7531802654266357
1413394884695760500,-0.01647285744547844,0.018406406044960022,0.05482620745897293,9.334528923034668,-0.4459429383277893,-2.4983606338500977
1413394884700760500,0.01184530183672905,0.03198375552892685,0.08901356905698776,9.465045928955078,-0.23230396211147308,-2.601994276046753
1413394884705760500,0.03221983462572098,0.027632728219032288,0.1100681722164154,9.104101181030273,0.07371451705694199,-2.5185606479644775
1413394884710760500,0.0067294687032699585,0.012065481394529343,0.08892594277858734,9.27653980255127,0.2932676374912262,-2.608423948287964
1413394884715760500,-0.018695354461669922,0.0209893099963665,0.06918955594301224,9.897327423095703,0.3390841484069824,-2.7992031574249268
1413394884720760500,-0.04117488116025925,0.04050082713365555,0.05686771869659424,9.5293607711792,-0.18198691308498383,-2.8810713291168213
1413394884725760500,-0.029833320528268814,0.02969326451420784,0.05998029559850693,9.130151748657227,-0.7143592238426208,-2.3597657680511475
1413394884730760500,0.01762637123465538,0.031116120517253876,0.09114185720682144,9.759766578674316,-0.5757355093955994,-2.894887685775757
1413394884735760500,0.03433964401483536,0.04357042908668518,0.09874895960092545,8.915328979492188,0.07234515994787216,-2.3909685611724854
1413394884740760500,0.012939199805259705,0.0008734054863452911,0.09507082402706146,9.187241554260254,0.26952090859413147,-2.7121787071228027
1413394884745760500,-0.018092067912220955,0.009191006422042847,0.06711412966251373,9.882674217224121,0.20845240354537964,-2.9989941120147705
1413394884750760500,-0.031337641179561615,0.0320623517036438,0.055530838668346405,9.6101655960083,-0.2568269670009613,-2.711303234100342
1413394884755760500,-0.010066963732242584,0.012116633355617523,0.071277916431427,9.048340797424316,-0.7046929001808167,-2.3993732929229736
1413394884760760500,0.026746831834316254,0.00932500883936882,0.09740282595157623,9.923194885253906,-0.44428032636642456,-2.9132871627807617
1413394884765760500,0.03441411256790161,0.04704540967941284,0.10755226016044617,9.28933048248291,0.5374881029129028,-2.7009847164154053
1413394884770760500,-0.006233423948287964,0.014433585107326508,0.09710193425416946,8.948497772216797,0.6541569828987122,-2.525627374649048
1413394884775760500,-0.03927324712276459,0.018380485475063324,0.08616045862436295,9.801974296569824,0.0609394796192646,-2.971447467803955
1413394884780760500,-0.04194357246160507,0.03627309203147888,0.06762705743312836,9.227801322937012,-0.6677218079566956,-2.498734712600708
1413394884785760500,0.0006765127182006836,-0.006879042834043503,0.07105261832475662,9.171292304992676,-0.9178036451339722,-2.437953233718872
1413394884790760500,0.04092053323984146,0.005096741020679474,0.07834712415933609,9.760823249816895,-0.4345174729824066,-2.9476096630096436
1413394884795760500,0.04067103564739227,0.048480577766895294,0.0857943519949913,9.583867073059082,0.4963046610355377,-2.824694871902466
1413394884800760500,0.0015168897807598114,0.03494581580162048,0.09501510858535767,9.045485496520996,0.8243411779403687,-2.650026559829712
1413394884805760500,-0.03793195262551308,0.028292156755924225,0.06749197840690613,9.702779769897461,0.0625283494591713,-2.7427778244018555
1413394884810760500,-0.034867215901613235,0.03526000678539276,0.06918147206306458,9.081230163574219,-0.6500018835067749,-2.4955193996429443
1413394884815760500,-0.0035120099782943726,0.0025689564645290375,0.07111576199531555,9.139410018920898,-0.7051679491996765,-2.6337363719940186
1413394884820760500,0.03470941632986069,0.014816705137491226,0.09066770225763321,10.102765083312988,-0.034087810665369034,-3.095590591430664
1413394884825760500,0.020903415977954865,0.06690949201583862,0.0933978483080864,9.297611236572266,0.6764757037162781,-2.702195405960083
1413394884830760500,-0.011231251060962677,0.03727882355451584,0.09945075213909149,9.096362113952637,0.34070858359336853,-2.6092991828918457
1413394884835760500,-0.03431439399719238,0.023302357643842697,0.0746711790561676,9.433900833129883,-0.10312772542238235,-2.6361145973205566
1413394884840760500,-0.022039080038666725,0.023701854050159454,0.06903044134378433,9.276349067687988,-0.7053661346435547,-2.519665479660034
1413394884845760500,0.006343189626932144,-0.005297556519508362,0.06455118954181671,9.319023132324219,-0.793877899646759,-2.7258822917938232
1413394884850760500,0.028167523443698883,0.022092655301094055,0.061987437307834625,9.988489151000977,-0.10969211161136627,-2.932877540588379
1413394884855760500,0.023002952337265015,0.058057308197021484,0.08504815399646759,9.257377624511719,0.7586640119552612,-2.6675620079040527
1413394884860760500,-0.009789049625396729,0.032273560762405396,0.08978581428527832,9.357089042663574,0.3272313177585602,-2.618227005004883
1413394884865760500,-0.03224867954850197,0.03574530780315399,0.08389867097139359,9.341782569885254,0.0024476416874676943,-2.300196886062622
1413394884870760500,-0.02416165918111801,0.0005828626453876495,0.0783119946718216,8.99968147277832,-0.4601882994174957,-2.52392840385437
1413394884875760500,0.0013151206076145172,-0.008845962584018707,0.07356224954128265,9.679343223571777,-0.8915717005729675,-2.735459804534912
1413394884880760500,0.02027173340320587,0.023762241005897522,0.07439926266670227,9.816245079040527,-0.47014299035072327,-2.9399662017822266
1413394884885760500,0.027138516306877136,0.04769803583621979,0.10255990922451019,9.160028457641602,0.4551317095756531,-2.587388038635254
1413394884890760500,0.002865113317966461,0.023784752935171127,0.10324959456920624,9.122088432312012,0.1567520797252655,-2.387993574142456
1413394884895760500,-0.016782503575086594,0.023137323558330536,0.09304206073284149,9.187348365783691,-0.16826657950878143,-2.4041295051574707
1413394884900760500,-0.012982456013560295,0.0013188272714614868,0.08370831608772278,9.187253952026367,-0.3062164783477783,-2.5593371391296387
1413394884905760500,0.002658456563949585,-0.00747588649392128,0.07890647649765015,9.810022354125977,-0.7756883502006531,-2.99687123298645
1413394884910760500,0.004091322422027588,0.032238684594631195,0.06523510068655014,9.595666885375977,-0.18330122530460358,-2.9258766174316406
1413394884915760500,0.013682957738637924,0.044406794011592865,0.08440869301557541,9.275677680969238,0.10403606295585632,-2.5873372554779053
1413394884920760500,0.008764103055000305,0.029216904193162918,0.0970780998468399,9.349320411682129,0.2847806215286255,-2.64200758934021
1413394884925760500,-0.007389422506093979,0.03344632685184479,0.08894061297178268,9.18593978881836,0.15171125531196594,-2.560690402984619
1413394884930760500,-0.021441180258989334,0.00978153944015503,0.07314105331897736,9.294137954711914,-0.20714987814426422,-2.773202657699585
1413394884935760500,-0.00994056649506092,0.01712946966290474,0.0726432204246521,9.809410095214844,-0.44457459449768066,-2.9739632606506348
1413394884940760500,-0.001402486115694046,0.04480677843093872,0.06463707983493805,9.546093940734863,-0.24938952922821045,-2.891616106033325
1413394884945760500,0.010981574654579163,0.04565276950597763,0.07453680783510208,9.202736854553223,-0.11648086458444595,-2.5634796619415283
1413394884950760500,0.014444448053836823,0.022701740264892578,0.0984252467751503,9.480500221252441,0.11143875867128372,-2.73281192779541
1413394884955760500,0.003851111978292465,0.03832189738750458,0.0912722796201706,9.242522239685059,0.10310009121894836,-2.455843925476074
1413394884960760500,-0.012271057814359665,0.009908687323331833,0.0850454643368721,9.285355567932129,0.03887801617383957,-2.877671003341675
1413394884965760500,-0.013514017686247826,0.008052758872509003,0.08507238328456879,9.735452651977539,-0.01896919123828411,-3.0236623287200928
1413394884970760500,-0.014965532347559929,0.035704515874385834,0.06731205433607101,9.448458671569824,-0.4111265540122986,-2.792846918106079
1413394884975760500,-0.00024572014808654785,0.03863813728094101,0.0745212733745575,9.284482955932617,-0.3389890789985657,-2.489851951599121
1413394884980760500,0.01799163594841957,0.024114005267620087,0.09351187944412231,9.513700485229492,-0.22303113341331482,-2.6668004989624023
1413394884985760500,0.022829372435808182,0.032130464911460876,0.09268077462911606,9.267005920410156,0.04739906266331673,-2.397773265838623
1413394884990760500,0.0044766999781131744,0.017037518322467804,0.08588720858097076,9.456323623657227,0.006249735131859779,-2.7391839027404785
1413394884995760500,-0.007362226024270058,0.023495551198720932,0.07670655101537704,9.473063468933105,0.20892316102981567,-2.694300889968872
1413394885000760500,-0.021361513063311577,0.025683820247650146,0.07707362622022629,9.505324363708496,-0.10785070806741714,-2.7078559398651123
1413394885005760500,-0.01847696304321289,0.03286551684141159,0.07026471197605133,9.521808624267578,-0.36241579055786133,-2.7433457374572754
1413394885010760500,0.0003952048718929291,0.03764154016971588,0.07737475633621216,9.235302925109863,-0.35535234212875366,-2.374091386795044
1413394885015760500,0.018042482435703278,0.025967180728912354,0.08649787306785583,9.36694622039795,-0.18180425465106964,-2.607120990753174
1413394885020760500,0.01930832862854004,0.016270138323307037,0.08545468002557755,9.26884937286377,-0.042502883821725845,-2.5453555583953857
1413394885025760500,0.005202814936637878,0.014352649450302124,0.08372123539447784,9.382710456848145,0.24172930419445038,-2.624695062637329
1413394885030760500,-0.00873861089348793,0.005301680415868759,0.08536508679389954,9.67713451385498,0.055169373750686646,-2.873372793197632
1413394885035760500,-0.016397584229707718,0.027123253792524338,0.08915668725967407,9.5698823928833,-0.2155926674604416,-2.744425058364868
1413394885040760500,-0.008006440475583076,0.031417638063430786,0.08350373804569244,9.439456939697266,-0.4529935121536255,-2.6119441986083984
1413394885045760500,0.009531963616609573,0.015799712389707565,0.0806053951382637,9.358550071716309,-0.3785156011581421,-2.561800718307495
1413394885050760500,0.022147729992866516,0.02118135243654251,0.08268856257200241,9.456040382385254,-0.21434623003005981,-2.6507675647735596
1413394885055760500,0.020645182579755783,0.005843318998813629,0.0875198021531105,9.3825101852417,0.054701097309589386,-2.700669527053833
1413394885060760500,-0.0017904676496982574,0.014417316764593124,0.08254663646221161,9.399094581604004,0.39015471935272217,-2.8071136474609375
1413394885065760500,-0.021300189197063446,0.02297009900212288,0.0819709450006485,9.627881050109863,0.2027006298303604,-2.9473984241485596
1413394885070760500,-0.026868188753724098,0.03419509530067444,0.08139285445213318,9.63520336151123,-0.19956542551517487,-2.7937214374542236
1413394885075760500,-0.012801822274923325,0.03549562394618988,0.07147004455327988,9.398716926574707,-0.4782455861568451,-2.653038501739502
1413394885080760500,0.004693325608968735,0.03173564374446869,0.07641121745109558,9.138636589050293,-0.35418254137039185,-2.4711225032806396
1413394885085760500,0.022925499826669693,0.01910330355167389,0.08216103911399841,9.196354866027832,-0.12410040199756622,-2.6245687007904053
1413394885090760500,0.021472442895174026,0.011470690369606018,0.0876631885766983,9.5380220413208,0.14423073828220367,-2.734110116958618
1413394885095760500,-0.003861367702484131,0.02142123505473137,0.08259496092796326,9.308815956115723,0.4057917892932892,-2.668020248413086
1413394885100760500,-0.022014392539858818,0.022929400205612183,0.08674725145101547,9.677268981933594,0.1045704260468483,-2.9877448081970215
1413394885105760500,-0.027578948065638542,0.04251204431056976,0.08412560820579529,9.48060417175293,-0.2075204700231552,-2.696115016937256
1413394885110760500,-0.017069878056645393,0.034035734832286835,0.07500727474689484,9.243546485900879,-0.5262267589569092,-2.5690128803253174
1413394885115760500,0.004592958837747574,0.018462248146533966,0.07858916372060776,9.195817947387695,-0.4440213441848755,-2.3896055221557617
1413394885120760500,0.0228140726685524,0.014194305986166,0.07792875170707703,9.473615646362305,-0.39396968483924866,-2.63283634185791
1413394885125760500,0.025009073317050934,0.01993197202682495,0.08404891937971115,9.553606033325195,0.1443876028060913,-2.7507238388061523
1413394885130760500,0.00032789260149002075,0.021580945700407028,0.07977424561977386,9.374204635620117,0.3424742519855499,-2.742058038711548
1413394885135760500,-0.017143886536359787,0.03480817377567291,0.08611319959163666,9.807352066040039,-0.018027883023023605,-2.9478137493133545
1413394885140760500,-0.026251167058944702,0.04036322236061096,0.07858399301767349,9.389564514160156,-0.23296388983726501,-2.58052659034729
1413394885145760500,-0.013517344370484352,0.03669838607311249,0.07426176965236664,9.27643871307373,-0.4027584195137024,-2.6496047973632812
1413394885150760500,0.0038055479526519775,0.024053316563367844,0.08427294343709946,9.0572509765625,-0.45122024416923523,-2.242849826812744
1413394885155760500,0.020662035793066025,0.0009683854877948761,0.08495597541332245,9.465709686279297,-0.4037238359451294,-2.6068265438079834
1413394885160760500,0.02074676752090454,0.012292865663766861,0.0833238735795021,9.69239330291748,0.11063186079263687,-2.7109804153442383
1413394885165760500,0.0052633509039878845,0.021524518728256226,0.08328590542078018,9.291948318481445,0.39125409722328186,-2.593634843826294
1413394885170760500,-0.01499531976878643,0.02006026729941368,0.08681454509496689,9.725807189941406,0.14507722854614258,-2.9385828971862793
1413394885175760500,-0.024778688326478004,0.03471168130636215,0.0784926563501358,9.528480529785156,-0.05406274273991585,-2.654306650161743
1413394885180760500,-0.012808803468942642,0.030442502349615097,0.08411000669002533,9.373433113098145,-0.3627561926841736,-2.699009895324707
1413394885185760500,0.0010481439530849457,0.030471093952655792,0.07381132245063782,8.984308242797852,-0.4437583386898041,-2.365596055984497
1413394885190760500,0.019318122416734695,0.0009471848607063293,0.08620253205299377,9.613455772399902,-0.4117588698863983,-2.787808418273926
1413394885195760500,0.023589055985212326,0.013705514371395111,0.08332069963216782,9.528833389282227,0.15996301174163818,-2.727565288543701
1413394885200760500,0.006677098572254181,0.02093549817800522,0.08258553594350815,9.210826873779297,0.3097135126590729,-2.71632719039917
1413394885205760500,-0.02064557746052742,0.013718076050281525,0.08690828830003738,9.547012329101562,0.2591317892074585,-2.931427001953125
1413394885210760500,-0.02549138106405735,0.021302882581949234,0.07712164521217346,9.610480308532715,-0.028376147150993347,-2.686849594116211
1413394885215760500,-0.0232546329498291,0.03542076051235199,0.07912114262580872,9.536697387695312,-0.3213330805301666,-2.8968732357025146
1413394885220760500,-0.009483207017183304,0.03767268359661102,0.07449959218502045,8.9183931350708,-0.5663168430328369,-2.2943148612976074
1413394885225760500,0.01935550943017006,0.007255960255861282,0.08767695724964142,9.434255599975586,-0.5096904039382935,-2.6887736320495605
1413394885230760500,0.024934984743595123,0.012918055057525635,0.07360470294952393,9.603066444396973,-0.2150682955980301,-2.6302075386047363
1413394885235760500,0.02364172786474228,0.020105689764022827,0.08458872139453888,9.495388984680176,0.2600579261779785,-2.8876357078552246
1413394885240760500,0.0017771050333976746,0.024896785616874695,0.08546581119298935,9.366628646850586,0.3995567560195923,-2.8101682662963867
1413394885245760500,-0.023424889892339706,0.03183722496032715,0.08407004177570343,9.676451683044434,0.14449286460876465,-2.807391405105591
1413394885250760500,-0.026875725015997887,0.04532237350940704,0.07985039800405502,9.503902435302734,-0.21570801734924316,-2.905874013900757
1413394885255760500,-0.013727031648159027,0.037598855793476105,0.07655596733093262,8.91788387298584,-0.5583611130714417,-2.447871685028076
1413394885260760500,0.010241929441690445,0.008484765887260437,0.08630628883838654,9.189942359924316,-0.45199963450431824,-2.5672900676727295
1413394885265760500,0.018559273332357407,0.010029420256614685,0.07353857904672623,9.563813209533691,-0.3620753884315491,-2.6688125133514404
1413394885270760500,0.025684677064418793,0.013865932822227478,0.08747441321611404,9.569121360778809,0.07861011475324631,-2.7585718631744385
1413394885275760500,0.0059947669506073,0.020790178328752518,0.08700434863567352,9.504595756530762,0.3000606894493103,-2.6294195652008057
1413394885280760500,-0.018488522619009018,0.029774215072393417,0.07978976517915726,9.586271286010742,0.29224416613578796,-2.7574334144592285
1413394885285760500,-0.029718833044171333,0.03191167861223221,0.07347285002470016,9.560853958129883,-0.06816411018371582,-2.758819818496704
1413394885290760500,-0.014931362122297287,0.04164738953113556,0.0849565640091896,9.243106842041016,-0.34705281257629395,-2.5042507648468018
1413394885295760500,-0.002393782138824463,0.026877090334892273,0.07660271972417831,9.16409969329834,-0.47665005922317505,-2.5189123153686523
1413394885300760500,0.01853533834218979,0.012971945106983185,0.08408572524785995,9.400774002075195,-0.4521578550338745,-2.544476270675659
1413394885305760500,0.025652796030044556,0.008178215473890305,0.08479291200637817,9.472368240356445,0.021443825215101242,-2.667046308517456
1413394885310760500,0.011733420193195343,0.019983023405075073,0.08891560137271881,9.553130149841309,0.4311581254005432,-2.8156986236572266
1413394885315760500,-0.017198223620653152,0.01720578968524933,0.08045633137226105,9.398736000061035,0.2683194577693939,-2.7344799041748047
1413394885320760500,-0.026895657181739807,0.026260755956172943,0.08188067376613617,9.798535346984863,-0.1021641194820404,-2.9307291507720947
1413394885325760500,-0.016256598755717278,0.04315023869276047,0.08782490342855453,9.332340240478516,-0.20001153647899628,-2.555518865585327
1413394885330760500,-0.0023773834109306335,0.035408951342105865,0.08422406762838364,9.236271858215332,-0.4751565456390381,-2.5348398685455322
1413394885335760500,0.010043267160654068,0.012918144464492798,0.07071173936128616,9.11577320098877,-0.5095445513725281,-2.4877426624298096
1413394885340760500,0.027714833617210388,0.0023798085749149323,0.08123034238815308,9.555177688598633,-0.27339568734169006,-2.740971088409424
1413394885345760500,0.027138717472553253,0.009590264409780502,0.08692970871925354,9.308886528015137,0.2601745128631592,-2.7756969928741455
1413394885350760500,0.0010285377502441406,0.027748189866542816,0.08542287349700928,9.553879737854004,0.31788885593414307,-2.5960729122161865
1413394885355760500,-0.02492949739098549,0.022168532013893127,0.08266313374042511,9.717301368713379,0.005265848711133003,-2.92977237701416
1413394885360760500,-0.02759358659386635,0.0536818653345108,0.08559978008270264,9.519908905029297,-0.23286136984825134,-2.736287832260132
1413394885365760500,-0.01137402281165123,0.04096914827823639,0.09182710945606232,9.12146282196045,-0.24711458384990692,-2.6012122631073
1413394885370760500,-0.00397881492972374,0.027493566274642944,0.07564755529165268,9.049973487854004,-0.5323042273521423,-2.3485162258148193
1413394885375760500,0.01857452094554901,0.00022583827376365662,0.08621519058942795,9.376266479492188,-0.45354294776916504,-2.6244871616363525
1413394885380760500,0.033423371613025665,0.012399569153785706,0.08706516772508621,9.472854614257812,-0.21580496430397034,-2.6861417293548584
1413394885385760500,0.016666680574417114,0.018056809902191162,0.08738768100738525,9.561715126037598,0.44820237159729004,-2.8648221492767334
1413394885390760500,-0.012339938431978226,0.026289869099855423,0.07831238210201263,9.504478454589844,0.34259071946144104,-2.5970466136932373
1413394885395760500,-0.026926003396511078,0.035379454493522644,0.07358845323324203,9.740680694580078,-0.012387538328766823,-2.8630001544952393
1413394885400760500,-0.02047274261713028,0.04166339337825775,0.08145533502101898,9.283364295959473,-0.15995684266090393,-2.6206412315368652
1413394885405760500,-0.016397736966609955,0.03168482333421707,0.08208513259887695,9.269248008728027,-0.2630213797092438,-2.6573922634124756
1413394885410760500,-0.004026111215353012,0.024186305701732635,0.07861769199371338,9.066255569458008,-0.5574589371681213,-2.374044418334961
1413394885415760500,0.01936560869216919,0.005443554371595383,0.08417947590351105,9.425309181213379,-0.4954128563404083,-2.7557756900787354
1413394885420760500,0.027243487536907196,0.008867684751749039,0.0868140310049057,9.521530151367188,0.10285460203886032,-2.719892978668213
1413394885425760500,0.005365639925003052,0.012928113341331482,0.08525595813989639,9.51207160949707,0.4660031497478485,-2.7333967685699463
1413394885430760500,-0.021385187283158302,0.02767946943640709,0.07212118804454803,9.684234619140625,0.1047062873840332,-2.842013120651245
1413394885435760500,-0.018345428630709648,0.03476070612668991,0.08071313053369522,9.512187004089355,-0.037965983152389526,-2.848982810974121
1413394885440760500,-0.012753516435623169,0.03465079516172409,0.07865073531866074,9.357662200927734,-0.11666417866945267,-2.7174577713012695
1413394885445760500,-0.010894795879721642,0.03812628984451294,0.08408859372138977,9.236855506896973,-0.3028128445148468,-2.602092981338501
1413394885450760500,0.0016156882047653198,0.014402702450752258,0.07643949240446091,9.205021858215332,-0.5753239393234253,-2.610275983810425
1413394885455760500,0.02288297563791275,0.0045766085386276245,0.08692750334739685,9.36767578125,-0.3155599534511566,-2.603250026702881
1413394885460760500,0.018055446445941925,0.01231829822063446,0.08260701596736908,9.464334487915039,0.27641525864601135,-2.6679134368896484
1413394885465760500,-0.0017577596008777618,0.015863288193941116,0.08183552324771881,9.553446769714355,0.24526561796665192,-2.701824426651001
1413394885470760500,-0.020683005452156067,0.03193574398756027,0.07366468012332916,9.537210464477539,-0.0038362324703484774,-2.661029815673828
1413394885475760500,-0.012765942141413689,0.03258468210697174,0.08215698599815369,9.431109428405762,-0.13525846600532532,-2.692643642425537
1413394885480760500,-0.007255777716636658,0.027624160051345825,0.08276863396167755,9.30140495300293,-0.205169677734375,-2.6920166015625
1413394885485760500,-0.0011534914374351501,0.031100645661354065,0.08549177646636963,9.261066436767578,-0.3773339092731476,-2.496058702468872
1413394885490760500,0.011513818055391312,0.007390335202217102,0.09115923941135406,9.180156707763672,-0.4450938403606415,-2.5928845405578613
1413394885495760500,0.022201787680387497,0.007454290986061096,0.09245458245277405,9.522687911987305,-0.18328188359737396,-2.783123731613159
1413394885500760500,0.011660069227218628,0.006826143711805344,0.08457484841346741,9.39070987701416,0.2279786318540573,-2.840423107147217
1413394885505760500,-0.004540778696537018,0.024213649332523346,0.07693850994110107,9.553552627563477,0.2033875584602356,-2.7355785369873047
1413394885510760500,-0.014237822964787483,0.03959626704454422,0.07435453683137894,9.626872062683105,0.08592480421066284,-2.725980281829834
1413394885515760500,-0.012836890295147896,0.03467912971973419,0.07724305987358093,9.430927276611328,-0.20768679678440094,-2.7745327949523926
1413394885520760500,-0.010857891291379929,0.029735036194324493,0.07578067481517792,9.260857582092285,-0.27178919315338135,-2.7013933658599854
1413394885525760500,0.006020694971084595,0.03247903287410736,0.08132901787757874,9.318765640258789,-0.27988579869270325,-2.684607982635498
1413394885530760500,0.012332834303379059,0.0136796273291111,0.08696670830249786,9.114264488220215,-0.17457549273967743,-2.56160306930542
1413394885535760500,0.00952262431383133,0.005300574004650116,0.08465208113193512,9.653194427490234,-0.16659823060035706,-2.815678596496582
1413394885540760500,0.00460616871714592,0.021470315754413605,0.07624970376491547,9.545340538024902,0.11926893889904022,-2.6298766136169434
1413394885545760500,-0.005047965794801712,0.030543945729732513,0.07427702844142914,9.585555076599121,0.2520712912082672,-2.855276346206665
1413394885550760500,-0.01842588186264038,0.02968525141477585,0.07727629691362381,9.373915672302246,0.21849632263183594,-2.588087320327759
1413394885555760500,-0.017828859388828278,0.02614939957857132,0.07155922055244446,9.55410099029541,-0.24832546710968018,-2.7969937324523926
1413394885560760500,-0.005211085081100464,0.031943634152412415,0.08277437090873718,9.195052146911621,-0.3717614412307739,-2.596008062362671
1413394885565760500,0.006049029529094696,0.032603248953819275,0.08982285857200623,9.334702491760254,-0.2800503969192505,-2.543753147125244
1413394885570760500,0.00868326798081398,0.01720789074897766,0.09810798615217209,9.171619415283203,-0.2549803853034973,-2.3568410873413086
1413394885575760500,0.012249965220689774,0.010206133127212524,0.07471536099910736,9.775260925292969,-0.3221755921840668,-2.7323408126831055
1413394885580760500,0.009646352380514145,0.02141130343079567,0.07551341503858566,9.495738983154297,0.1677955836057663,-2.7025628089904785
1413394885585760500,-0.01072382926940918,0.0247749462723732,0.07159198820590973,9.59381103515625,0.3026907742023468,-2.8557138442993164
1413394885590760500,-0.02135184407234192,0.03672961890697479,0.0758390724658966,9.463974952697754,0.1049104854464531,-2.63716983795166
1413394885595760500,-0.016462290659546852,0.029918357729911804,0.07375935465097427,9.423200607299805,-0.3637371361255646,-2.6582508087158203
1413394885600760500,-0.0022740140557289124,0.029778901487588882,0.09058751165866852,9.293115615844727,-0.1838274747133255,-2.602121591567993
1413394885605760500,0.0024981237947940826,0.0233493372797966,0.08829060941934586,9.261693954467773,-0.21269063651561737,-2.6338350772857666
1413394885610760500,0.00868656113743782,0.012937448918819427,0.09433788061141968,9.318746566772461,-0.40287891030311584,-2.5625860691070557
1413394885615760500,0.01159140095114708,0.00612056627869606,0.07836764305830002,9.432716369628906,-0.307345449924469,-2.684828996658325
1413394885620760500,0.01244828850030899,0.012361280620098114,0.08064115792512894,9.537469863891602,0.12006471306085587,-2.7510526180267334
1413394885625760500,-0.0037960857152938843,0.02841535210609436,0.07790081202983856,9.512838363647461,0.11504945904016495,-2.7836368083953857
1413394885630760500,-0.015788964927196503,0.02560342848300934,0.08275170624256134,9.406886100769043,-0.03566529229283333,-2.669674873352051
1413394885635760500,-0.00801209919154644,0.02486371621489525,0.08627404272556305,9.448484420776367,-0.3224906921386719,-2.7907450199127197
1413394885640760500,-0.0009735003113746643,0.029079951345920563,0.0918402150273323,9.26878547668457,-0.1740276962518692,-2.660402297973633
1413394885645760500,-0.0011302940547466278,0.01856088638305664,0.09519997239112854,9.383280754089355,-0.2788013219833374,-2.5370569229125977
1413394885650760500,0.004463173449039459,0.010874241590499878,0.09308070689439774,9.391373634338379,-0.3141392767429352,-2.4637773036956787
1413394885655760500,0.01023542508482933,0.012389950454235077,0.07699809968471527,9.472919464111328,-0.27382758259773254,-2.6674954891204834
1413394885660760500,0.009654488414525986,0.014479555189609528,0.07358873635530472,9.521188735961914,0.11999998986721039,-2.7427310943603516
1413394885665760500,-0.007247116416692734,0.031131677329540253,0.07086457312107086,9.691940307617188,0.2117961347103119,-2.857123613357544
1413394885670760500,-0.016464954242110252,0.03890661895275116,0.0751415342092514,9.218711853027344,-0.002904043300077319,-2.546550989151001
1413394885675760500,-0.0142584927380085,0.026976805180311203,0.08140794932842255,9.54663372039795,-0.2088557928800583,-2.7725744247436523
1413394885680760500,-0.009356807917356491,0.027636203914880753,0.0785675048828125,9.211969375610352,-0.13361990451812744,-2.6519789695739746
1413394885685760500,0.0018006786704063416,0.022715546190738678,0.08684025704860687,9.220221519470215,-0.24630381166934967,-2.576674461364746
1413394885690760500,0.01087893545627594,0.024963364005088806,0.08121491968631744,9.343679428100586,-0.37977269291877747,-2.513169527053833
1413394885695760500,0.007454730570316315,0.012362789362668991,0.0756218284368515,9.554619789123535,-0.11082771420478821,-2.7409157752990723
1413394885700760500,0.0032271668314933777,0.015050731599330902,0.07862017303705215,9.585844993591309,0.12088508903980255,-2.6943907737731934
1413394885705760500,-0.006627894937992096,0.02696802467107773,0.07303174585103989,9.398634910583496,0.05616261437535286,-2.644026279449463
1413394885710760500,-0.012193247675895691,0.028351210057735443,0.07428224384784698,9.383301734924316,-0.19134560227394104,-2.783024311065674
1413394885715760500,-0.011463239789009094,0.02835966646671295,0.08483429253101349,9.464339256286621,-0.10170634090900421,-2.709601402282715
1413394885720760500,-0.0009833574295043945,0.024280797690153122,0.08976797014474869,9.268475532531738,-0.1969897300004959,-2.6348042488098145
1413394885725760500,0.0003190338611602783,0.027015581727027893,0.088290736079216,9.301965713500977,-0.23144438862800598,-2.4556665420532227
1413394885730760500,0.010225288569927216,0.01850670576095581,0.08677781373262405,9.416513442993164,-0.15908226370811462,-2.6661269664764404
1413394885735760500,0.003191038966178894,0.02064894512295723,0.0756521224975586,9.447568893432617,0.03792718052864075,-2.5545523166656494
1413394885740760500,-0.0009614340960979462,0.012368831783533096,0.08200570940971375,9.472267150878906,-0.0015566278016194701,-2.708245038986206
1413394885745760500,-0.008715253323316574,0.031176909804344177,0.08422883599996567,9.512887954711914,-0.01985766924917698,-2.604478359222412
1413394885750760500,-0.014966266229748726,0.028352539986371994,0.0806865394115448,9.513154983520508,-0.100950226187706,-2.8304696083068848
1413394885755760500,-0.010072067379951477,0.029087752103805542,0.07994094491004944,9.276500701904297,-0.1169046014547348,-2.5961952209472656
1413394885760760500,0.0010902732610702515,0.022785581648349762,0.08891424536705017,9.4813814163208,-0.37007397413253784,-2.6507251262664795
1413394885765760500,0.00817197933793068,0.023425444960594177,0.08962863683700562,9.407424926757812,-0.16708803176879883,-2.668496608734131
1413394885770760500,0.008180975914001465,0.023411646485328674,0.07980787754058838,9.627381324768066,-0.01836363598704338,-2.823180913925171
1413394885775760500,-0.0038375966250896454,0.025610648095607758,0.07854297757148743,9.447726249694824,0.039073433727025986,-2.6617190837860107
1413394885780760500,-0.003146503120660782,0.01381257176399231,0.07652005553245544,9.260586738586426,-0.16616955399513245,-2.6350855827331543
1413394885785760500,0.0005649663507938385,0.01922161504626274,0.08827263116836548,9.489067077636719,0.07802489399909973,-2.7825560569763184
1413394885790760500,-0.008575474843382835,0.024800948798656464,0.07846726477146149,9.545767784118652,0.06466317176818848,-2.9548816680908203
1413394885795760500,-0.01094387099146843,0.029150091111660004,0.09052903950214386,9.202970504760742,-0.1983613818883896,-2.491001844406128
1413394885800760500,0.0045827291905879974,0.017281819134950638,0.08832831680774689,9.384608268737793,-0.37215283513069153,-2.707581043243408
1413394885805760500,0.009592197835445404,0.02842925861477852,0.0810750275850296,9.253052711486816,-0.10937227308750153,-2.652341604232788
1413394885810760500,-0.0009731724858283997,0.009439293295145035,0.08469800651073456,9.382579803466797,0.1631385087966919,-2.7648074626922607
1413394885815760500,-0.005998499691486359,0.028980791568756104,0.07163926213979721,9.603534698486328,-0.1331208348274231,-2.597611665725708
1413394885820760500,-0.0030779391527175903,0.026425492018461227,0.07226436585187912,9.333779335021973,-0.21741721034049988,-2.5856854915618896
1413394885825760500,-0.007892228662967682,0.02287653088569641,0.08347369730472565,9.390979766845703,0.09523209184408188,-2.6754517555236816
1413394885830760500,-0.01642540656030178,0.02273639291524887,0.08417622745037079,9.44831657409668,0.01718059927225113,-2.7659003734588623
1413394885835760500,-0.008817024528980255,0.03320010006427765,0.07919920235872269,9.520888328552246,-0.47713929414749146,-2.523109197616577
1413394885840760500,0.010378807783126831,0.015780195593833923,0.08048819750547409,9.440083503723145,-0.3000622093677521,-2.7242071628570557
1413394885845760500,0.014573328197002411,0.022058021277189255,0.07279343158006668,9.415777206420898,0.07281029969453812,-2.774780035018921
1413394885850760500,0.0009766817092895508,0.016531672328710556,0.07993728667497635,9.358338356018066,0.0006529274396598339,-2.602573871612549
1413394885855760500,0.0046166181564331055,0.027688026428222656,0.07717329263687134,9.692707061767578,-0.15983949601650238,-2.7912423610687256
1413394885860760500,-0.007982442155480385,0.0325823649764061,0.08286648243665695,9.300281524658203,0.05270751938223839,-2.6278371810913086
1413394885865760500,-0.01368052139878273,0.011571183800697327,0.08910317718982697,9.220057487487793,0.008211078122258186,-2.576205253601074
1413394885870760500,-0.00883234292268753,0.02206530049443245,0.08953329920768738,9.637075424194336,-0.4268660247325897,-2.710115909576416
1413394885875760500,0.011727724224328995,0.026961609721183777,0.08462808281183243,9.528936386108398,-0.41410863399505615,-2.718409299850464
