#timestamp [ns],w_RS_S_x [rad s^-1],w_RS_S_y [rad s^-1],w_RS_S_z [rad s^-1],a_RS_S_x [m s^-2],a_RS_S_y [m s^-2],a_RS_S_z [m s^-2]
1413394881575760500,0.02024581932313422,0.016755160819145562,0.08656833089891874,10.149882749999998,-0.024516625,-3.2035056666666666
1413394881580760500,0.020943951023931952,0.03839724354387525,0.08587019919812101,8.9240515,0.14709974999999997,-2.427145875
1413394881585760500,0.009075712110370514,0.02583087292951608,0.09285151620609833,9.626861416666666,0.17161637500000002,-2.8439284999999996
1413394881590760500,-0.014660765716752367,0.02652900463031381,0.09354964790689606,9.471589458333332,0.17978858333333333,-2.7458620000000002
1413394881595760500,-0.017453292519943295,0.032114058236695664,0.06981317007977318,9.022118,-0.22882183333333334,-2.3045627499999997
1413394881600760500,0.013962634015954637,0.017453292519943295,0.0767944870877505,9.945577541666665,-0.8744262916666666,-2.8684451249999996
1413394881605760500,0.024434609527920613,-0.0020943951023931952,0.050963614158234416,8.940395916666665,-0.32688833333333334,-2.435318083333333
1413394881610760500,0.048869219055841226,0.029321531433504733,0.07120943348136866,9.9047165,0.17978858333333333,-3.015544875
1413394881615760500,-0.0020943951023931952,0.05375614096142535,0.05375614096142535,9.340834124999999,1.1849702083333333,-2.7867230416666664
1413394881620760500,-0.05515240436302082,0.0153588974175501,0.08866272600131193,8.77695175,1.2094868333333333,-2.5905900416666663
1413394881625760500,-0.09564404300928926,0.030019663134302467,0.07749261878854824,9.822994416666667,0.10623870833333333,-2.7213453750000003
1413394881630760500,-0.07051130178057091,0.016755160819145562,0.10611601852125524,9.349006333333334,-1.1195925416666666,-2.7376897916666665
1413394881635760500,-0.01884955592153876,0.027925268031909273,0.08447393579652555,8.785123958333333,-1.4791697083333333,-2.378112625
1413394881640760500,0.04817108735504349,-0.01117010721276371,0.10122909661567112,9.970094166666666,-1.1522813749999998,-2.655967708333333
1413394881645760500,0.07609635538695278,0.03490658503988659,0.08587019919812101,9.561483749999999,-0.14709974999999997,-2.852100708333333
1413394881650760500,0.06073745796940267,0.04468042885105484,0.10053096491487339,9.07115125,0.5475379583333333,-2.132946375
1413394881655760500,0.02583087292951608,-0.019547687622336492,0.0879645943005142,10.869037083333334,0.032688833333333334,-3.4977051666666665
1413394881660760500,-0.0006981317007977319,0.08726646259971647,0.046076692252650306,8.588990958333333,0.0980665,-2.1411185833333333
1413394881665760500,-0.009075712110370514,0.032812189937493394,0.05515240436302082,9.299973083333333,0.20430520833333332,-2.6396232916666666
1413394881670760500,-0.024434609527920613,0.00767944870877505,0.08028514559173915,10.084505083333333,0.5965712083333333,-3.219850083333333
1413394881675760500,-0.06841690667817772,0.060039326268604934,0.08028514559173915,8.548129916666667,0.809048625,-2.3127349583333334
1413394881680760500,-0.0879645943005142,-0.004886921905584123,0.12426744274199628,9.299973083333333,0.4004382083333333,-2.8929617499999996
1413394881685760500,-0.06911503837897544,0.029321531433504733,0.12077678423800758,9.651378041666666,-1.299381125,-2.582417833333333
1413394881690760500,0.0,0.010471975511965976,0.08028514559173915,8.736090708333332,-2.1247741666666666,-2.0103632499999997
1413394881695760500,0.09075712110370514,-0.03839724354387525,0.05235987755982988,10.100849499999999,-2.0021910416666664,-2.852100708333333
1413394881700760500,0.1626646862858715,0.039793506945470715,0.06562437987498679,10.24794925,-0.53936575,-2.8684451249999996
1413394881705760500,0.1270599695451872,0.06422811647339133,0.039095375244672985,8.77695175,2.0348798749999997,-2.4925235416666665
1413394881710760500,0.0307177948351002,0.0,0.08168140899333462,9.847511041666666,2.9338227916666666,-3.0400614999999998
1413394881715760500,-0.08447393579652555,0.08447393579652555,0.07260569688296412,10.166227166666665,1.3402421666666664,-2.9583394166666666
1413394881720760500,-0.162314772605896,0.026899302378296852,0.11492475867271423,7.7092413902282715,0.25592365860939026,-2.2928805351257324
1413394881725760500,-0.1355297565460205,0.027697863057255745,0.09810518473386765,9.881897926330566,-1.5489529371261597,-2.6533610820770264
1413394881730760500,-0.04497264325618744,-0.006012333557009697,0.08621042221784592,9.201753616333008,-2.2449874877929688,-2.55414080619812
1413394881735760500,0.05940629541873932,0.023444456979632378,0.07661375403404236,9.129129409790039,-1.9253172874450684,-2.3546595573425293
1413394881740760500,0.11138172447681427,-0.03897519409656525,0.07769577205181122,9.940031051635742,-0.3417619466781616,-3.1831564903259277
1413394881745760500,0.10093648731708527,0.06868312507867813,0.050218090415000916,9.505290031433105,0.4665176272392273,-2.481529474258423
1413394881750760500,0.05705469846725464,0.015858182683587074,0.07175315171480179,9.40423583984375,1.0805847644805908,-2.9239001274108887
1413394881755760500,0.0075179338455200195,0.045696064829826355,0.062641441822052,9.83183765411377,0.6228051781654358,-2.938035488128662
1413394881760760500,-0.04068206995725632,0.08200708776712418,0.06941729784011841,9.145611763000488,0.8002089262008667,-2.3864142894744873
1413394881765760500,-0.06755448877811432,0.00828869454562664,0.08957743644714355,9.1322603225708,0.21990054845809937,-2.592294692993164
1413394881770760500,-0.07608106732368469,0.023629693314433098,0.09844149649143219,9.916141510009766,-0.05557165667414665,-3.038645029067993
1413394881775760500,-0.06580827385187149,0.04626654088497162,0.09491170942783356,8.880647659301758,-0.6138310432434082,-2.2408366203308105
1413394881780760500,-0.043369218707084656,-0.031091658398509026,0.08932547271251678,9.400073051452637,-0.7017096281051636,-2.7773916721343994
1413394881785760500,0.00631868839263916,0.05249224603176117,0.06498681008815765,9.831875801086426,-1.3321387767791748,-2.724961042404175
1413394881790760500,0.04566287249326706,0.012832969427108765,0.08497054874897003,8.838703155517578,-0.7759851217269897,-2.401793956756592
1413394881795760500,0.0850180834531784,0.006727969273924828,0.10056856274604797,9.990283966064453,-0.38468992710113525,-3.1344563961029053
1413394881800760500,0.06974788010120392,0.061365894973278046,0.07100588083267212,9.268523216247559,0.2647581696510315,-1.7818115949630737
1413394881805760500,0.045215487480163574,0.03537987917661667,0.1028234139084816,9.854903221130371,0.7666682600975037,-3.095548391342163
1413394881810760500,-0.015765555202960968,0.0005103815346956253,0.062195029109716415,8.32398796081543,0.9729624390602112,-2.559631824493408
1413394881815760500,-0.05856340378522873,0.0426841601729393,0.0847993791103363,9.8865327835083,0.5387058854103088,-3.0381875038146973
1413394881820760500,-0.08730518072843552,0.02385159768164158,0.08667997270822525,8.773390769958496,-0.01723126508295536,-2.4047648906707764
1413394881825760500,-0.07620261609554291,-0.007355577312409878,0.08606940507888794,10.05436897277832,-0.8226997256278992,-3.068976640701294
1413394881830760500,-0.022168152034282684,0.08138229697942734,0.0801701620221138,8.976117134094238,-1.1109626293182373,-1.978403925895691
1413394881835760500,0.03084336221218109,-0.029264170676469803,0.08877380937337875,9.622438430786133,-1.0555849075317383,-3.1102263927459717
1413394881840760500,0.057538360357284546,0.03856948763132095,0.0564032718539238,9.017139434814453,-0.43050745129585266,-2.173140525817871
1413394881845760500,0.07646119594573975,0.015198826789855957,0.08087164908647537,9.649725914001465,0.106406569480896,-2.931844711303711
1413394881850760500,0.06477315723896027,0.03756336122751236,0.07063114643096924,9.265466690063477,0.5206919312477112,-2.8337247371673584
1413394881855760500,0.0027127712965011597,0.037197135388851166,0.07230302691459656,9.66564655303955,0.9071611166000366,-2.7117879390716553
1413394881860760500,-0.040021806955337524,0.017577195540070534,0.09170509874820709,9.69985580444336,0.872428834438324,-3.1200711727142334
1413394881865760500,-0.0704231858253479,0.08711212128400803,0.08942708373069763,8.551529884338379,0.3220463693141937,-2.004755973815918
1413394881870760500,-0.08962491899728775,-0.028177505359053612,0.07819594442844391,9.940744400024414,-0.7794749140739441,-3.0531086921691895
1413394881875760500,-0.0460883304476738,0.016890106722712517,0.08777785301208496,9.899274826049805,-0.8658222556114197,-2.8577005863189697
1413394881880760500,0.003003627061843872,0.038229502737522125,0.07063063979148865,8.41960334777832,-0.975033700466156,-1.750962734222412
1413394881885760500,0.04277832806110382,0.016009708866477013,0.09391804039478302,10.32425594329834,-0.658179521560669,-3.5672388076782227
1413394881890760500,0.05134323239326477,-0.006635820493102074,0.06601676344871521,8.27628231048584,-0.050216980278491974,-1.5612276792526245
1413394881895760500,0.050072818994522095,0.051600903272628784,0.09114901721477509,10.904071807861328,0.11400604248046875,-3.812554121017456
1413394881900760500,0.010065816342830658,0.02304483763873577,0.050064507871866226,8.718725204467773,0.2526472210884094,-2.0431525707244873
1413394881905760500,0.008884191513061523,0.016399702057242393,0.09979093074798584,9.200406074523926,0.549771785736084,-2.9074599742889404
1413394881910760500,-0.014935381710529327,0.06966070830821991,0.08711953461170197,9.735877990722656,0.06764056533575058,-2.7373318672180176
1413394881915760500,-0.04969996213912964,-0.004845945164561272,0.07255453616380692,8.643492698669434,0.3059978187084198,-2.2728428840637207
1413394881920760500,-0.0354812815785408,0.030241409316658974,0.10208292305469513,9.844398498535156,-0.06921409070491791,-2.7128303050994873
1413394881925760500,-0.036997757852077484,0.02127266861498356,0.0967414528131485,9.408321380615234,-0.24840810894966125,-2.4916841983795166
1413394881930760500,-0.03423253446817398,0.02219761721789837,0.07517315447330475,8.912571907043457,-0.4762498140335083,-2.5734922885894775
1413394881935760500,0.009474553167819977,0.033541008830070496,0.083753801882267,9.825095176696777,-0.8627493381500244,-2.515507459640503
1413394881940760500,0.04843427240848541,0.019663630053400993,0.08483801782131195,9.508159637451172,-0.7740335464477539,-2.7983317375183105
1413394881945760500,0.058938294649124146,0.024287255480885506,0.0745190680027008,9.157892227172852,-0.07444705069065094,-2.54256010055542
1413394881950760500,0.053744539618492126,0.019544875249266624,0.08622691035270691,9.330642700195312,0.44913169741630554,-2.409489154815674
1413394881955760500,0.01932121068239212,0.025995129719376564,0.09132501482963562,9.649608612060547,0.809421718120575,-2.980283260345459
1413394881960760500,-0.04042953997850418,0.01731252111494541,0.07015463709831238,9.404749870300293,0.9733470678329468,-2.746242046356201
1413394881965760500,-0.08073489367961884,0.021787473931908607,0.0881759524345398,10.040826797485352,0.5658888220787048,-3.079040050506592
1413394881970760500,-0.08583565056324005,0.05945010483264923,0.08432059735059738,9.140223503112793,-0.4425419270992279,-2.5572445392608643
1413394881975760500,-0.03717292100191116,0.023723749443888664,0.08767193555831909,8.828598976135254,-1.700927495956421,-2.419015884399414
1413394881980760500,0.04011143743991852,-0.004731118679046631,0.08601942658424377,9.46538257598877,-1.278838038444519,-2.522390127182007
1413394881985760500,0.08976444602012634,0.00546644814312458,0.09056150168180466,9.982706069946289,0.09830891340970993,-2.8982632160186768
1413394881990760500,0.043699294328689575,0.026341894641518593,0.06619038432836533,9.74830436706543,1.1011621952056885,-3.176825761795044
1413394881995760500,-0.013592712581157684,0.041380688548088074,0.0706041231751442,8.986062049865723,1.0695858001708984,-2.4524481296539307
1413394882000760500,-0.05413990467786789,0.031035741791129112,0.07240249216556549,9.55172061920166,0.1332031786441803,-2.612851619720459
1413394882005760500,-0.04923277348279953,0.02720710076391697,0.05761009827256203,9.37734317779541,-0.6749393939971924,-2.3845622539520264
1413394882010760500,-0.006467066705226898,0.018443746492266655,0.08384430408477783,9.556628227233887,-0.7800556421279907,-2.8260936737060547
1413394882015760500,0.019032225012779236,0.02858995459973812,0.10472393780946732,9.026896476745605,-0.24293974041938782,-2.508965492248535
1413394882020760500,0.01799289882183075,0.018360411748290062,0.11210494488477707,9.442304611206055,0.16676849126815796,-2.752117156982422
1413394882025760500,-0.006954096257686615,0.03140484541654587,0.08105730265378952,9.517744064331055,0.2167530655860901,-2.5495126247406006
1413394882030760500,-0.017195232212543488,0.013244247063994408,0.07531282305717468,9.371243476867676,-0.18175342679023743,-2.833902597427368
1413394882035760500,-0.008775800466537476,0.029919909313321114,0.0611572340130806,9.253889083862305,-0.6567831635475159,-2.4753079414367676
1413394882040760500,0.008062213659286499,0.018253887072205544,0.07119568437337875,9.36934757232666,-0.3654765486717224,-2.751222848892212
1413394882045760500,0.014998838305473328,0.006932968273758888,0.08665435016155243,9.363489151000977,0.258639395236969,-2.736788272857666
1413394882050760500,0.00791928917169571,0.037670671939849854,0.10453325510025024,9.787513732910156,0.29050102829933167,-2.7199339866638184
1413394882055760500,-0.012289941310882568,0.03710383176803589,0.09346091747283936,9.37850570678711,0.20078833401203156,-2.6967198848724365
1413394882060760500,-0.0227312371134758,0.030150530859827995,0.10122538357973099,9.516754150390625,0.18826168775558472,-2.7295174598693848
1413394882065760500,-0.04100792855024338,0.026491953060030937,0.06823493540287018,9.287753105163574,-0.23258104920387268,-2.4590723514556885
1413394882070760500,-0.02718140184879303,0.01165791042149067,0.07029689103364944,9.541398048400879,-0.6531164050102234,-2.6697540283203125
1413394882075760500,0.01832820475101471,0.02431735210120678,0.07474923133850098,9.351747512817383,-1.0271000862121582,-2.376481771469116
1413394882080760500,0.054774343967437744,0.024526750668883324,0.08290078490972519,9.442093849182129,-0.6318631768226624,-2.760706901550293
1413394882085760500,0.06330189108848572,0.02041313610970974,0.08794932067394257,9.363143920898438,0.3292776942253113,-2.842496871948242
1413394882090760500,0.03398221731185913,0.03765639662742615,0.08729435503482819,9.65833854675293,1.149687647819519,-2.7034425735473633
1413394882095760500,-0.0361735001206398,0.027197184041142464,0.08414815366268158,9.134910583496094,1.3888161182403564,-2.6644015312194824
1413394882100760500,-0.10401904582977295,0.018133753910660744,0.08787043392658234,9.11771011352539,0.5506538152694702,-2.5587732791900635
1413394882105760500,-0.10447718948125839,0.016098881140351295,0.09910383075475693,9.4263916015625,-0.7724123597145081,-2.565307855606079
1413394882110760500,-0.0348280668258667,0.00030688196420669556,0.10021092742681503,9.677213668823242,-1.9101303815841675,-2.7264654636383057
1413394882115760500,0.04289545118808746,0.019620420411229134,0.08500256389379501,9.260659217834473,-1.6227402687072754,-2.3114609718322754
1413394882120760500,0.09454947710037231,0.030169812962412834,0.08638729155063629,9.556689262390137,-0.45315101742744446,-2.7191672325134277
1413394882125760500,0.08883769810199738,0.01063850149512291,0.07445038110017776,9.240091323852539,0.48351332545280457,-2.581021785736084
1413394882130760500,0.044986508786678314,0.022882578894495964,0.06835264712572098,9.79678726196289,0.899758517742157,-2.8744258880615234
1413394882135760500,-0.011318765580654144,0.030655479058623314,0.058714136481285095,9.340561866760254,0.9826206564903259,-2.646792411804199
1413394882140760500,-0.05124162137508392,0.026522262021899223,0.08661115169525146,9.012742042541504,0.6632946729660034,-2.9408669471740723
1413394882145760500,-0.08230040967464447,0.034388504922389984,0.09977449476718903,9.263927459716797,-0.0003631800354924053,-2.574481964111328
1413394882150760500,-0.0811098963022232,0.005077166482806206,0.10026483237743378,9.483797073364258,-0.6774992942810059,-2.801931381225586
1413394882155760500,-0.02997542917728424,0.022214079275727272,0.09458185732364655,9.5398530960083,-1.2286350727081299,-2.5076022148132324
1413394882160760500,0.03155677020549774,0.009842541068792343,0.08483754843473434,9.29277229309082,-1.5848363637924194,-2.564436197280884
1413394882165760500,0.08909331262111664,0.010534090921282768,0.05570460110902786,9.47309684753418,-1.3189735412597656,-2.4978139400482178
1413394882170760500,0.12820419669151306,0.011830102652311325,0.05738341808319092,9.606884002685547,-0.1626923531293869,-2.5551111698150635
1413394882175760500,0.0996616929769516,0.023015031591057777,0.06710492819547653,9.815347671508789,1.215663194656372,-3.1105380058288574
1413394882180760500,0.011740878224372864,0.053557656705379486,0.08431380987167358,9.176653861999512,2.101820707321167,-2.6958839893341064
1413394882185760500,-0.08969122171401978,0.03760014474391937,0.10963300615549088,9.233530044555664,1.8134857416152954,-2.835475206375122
1413394882190760500,-0.16136518120765686,0.033653706312179565,0.11149363964796066,9.306276321411133,0.5912317037582397,-2.8933258056640625
1413394882195760500,-0.1553058922290802,0.03447325527667999,0.09377885609865189,9.270744323730469,-1.735846996307373,-2.442345142364502
1413394882200760500,-0.05276177451014519,0.0008063241839408875,0.08732330799102783,9.290155410766602,-2.6299123764038086,-2.4416778087615967
1413394882205760500,0.06843115389347076,-0.0030196290463209152,0.07315406948328018,9.511392593383789,-2.13472056388855,-2.587506055831909
1413394882210760500,0.15322327613830566,0.015298990532755852,0.06547842174768448,9.466691017150879,-0.41424426436424255,-2.6618895530700684
1413394882215760500,0.13348345458507538,0.020956238731741905,0.06793298572301865,10.059422492980957,1.1750993728637695,-3.191366672515869
1413394882220760500,0.042474374175071716,0.05717527121305466,0.06675822287797928,9.300503730773926,1.8625444173812866,-2.612180709838867
1413394882225760500,-0.048549361526966095,0.0531911626458168,0.0779251977801323,9.309242248535156,1.4467384815216064,-2.753059148788452
1413394882230760500,-0.11073720455169678,0.046771854162216187,0.0872742235660553,9.094503402709961,0.5763581395149231,-2.6731014251708984
1413394882235760500,-0.1094018742442131,0.01453680731356144,0.1018218994140625,8.994948387145996,-0.26643434166908264,-2.591383218765259
1413394882240760500,-0.07459951937198639,0.016064515337347984,0.10241033881902695,9.556527137756348,-0.849963366985321,-2.7700321674346924
1413394882245760500,-0.02869008481502533,-0.004196964204311371,0.10534752905368805,9.408628463745117,-0.9691298007965088,-2.671034574508667
1413394882250760500,0.011818408966064453,0.010419517755508423,0.07441377639770508,9.678505897521973,-0.9896695613861084,-2.7029378414154053
1413394882255760500,0.05331870913505554,0.023781104013323784,0.059776823967695236,9.449949264526367,-0.7441716194152832,-2.2779741287231445
1413394882260760500,0.09189490973949432,-0.0015988610684871674,0.07239630818367004,9.696694374084473,-0.6078300476074219,-3.002800703048706
1413394882265760500,0.07601267099380493,0.05660109221935272,0.05569453909993172,9.65859603881836,0.3996657729148865,-2.4664719104766846
1413394882270760500,0.048110365867614746,0.028727753087878227,0.09508232772350311,9.463836669921875,1.0981497764587402,-2.9074554443359375
1413394882275760500,-0.01697956770658493,0.060642458498477936,0.08891741931438446,9.446767807006836,1.3453110456466675,-2.9411232471466064
1413394882280760500,-0.0871083065867424,0.0365285724401474,0.09121125936508179,8.98680591583252,1.105143427848816,-2.5359175205230713
1413394882285760500,-0.11024657636880875,0.015293164178729057,0.08719831705093384,9.615257263183594,-0.05095545947551727,-3.088728189468384
1413394882290760500,-0.09785976260900497,0.022276392206549644,0.08577165007591248,8.567099571228027,-1.0137794017791748,-2.2971677780151367
1413394882295760500,-0.041432999074459076,0.011247409507632256,0.06090977042913437,9.6124267578125,-1.6612697839736938,-2.7510414123535156
1413394882300760500,0.044756077229976654,-0.032705310732126236,0.08958908170461655,8.860895156860352,-1.4988468885421753,-2.661944627761841
1413394882305760500,0.10372468829154968,0.034035876393318176,0.08785809576511383,9.876049995422363,-0.6349343061447144,-2.7425971031188965
1413394882310760500,0.11783348023891449,0.03031838871538639,0.09821072220802307,9.258055686950684,0.70880126953125,-2.5161571502685547
1413394882315760500,0.05877164006233215,0.03569474071264267,0.08748187869787216,9.840267181396484,1.3049899339675903,-3.1105425357818604
1413394882320760500,-0.021236620843410492,0.05887777358293533,0.06454025208950043,9.036499977111816,1.1940168142318726,-2.2646687030792236
1413394882325760500,-0.07382523268461227,0.0006861146539449692,0.07589919120073318,9.404905319213867,0.6880521178245544,-2.9905691146850586
1413394882330760500,-0.10305531322956085,0.05476333945989609,0.07905746251344681,9.378100395202637,-0.029927818104624748,-2.67231822013855
1413394882335760500,-0.08793926984071732,-0.0018911510705947876,0.09689431637525558,8.863224029541016,-0.8141311407089233,-2.738100051879883
1413394882340760500,-0.0336233526468277,0.01965455897152424,0.09876947104930878,9.833250045776367,-1.3428168296813965,-2.77616024017334
1413394882345760500,0.01316380500793457,0.03144378960132599,0.08357992768287659,9.350677490234375,-1.152642846107483,-2.408163547515869
1413394882350760500,0.06718169152736664,0.014588769525289536,0.07582111656665802,9.794264793395996,-0.44367530941963196,-3.0210492610931396
1413394882355760500,0.07239861786365509,0.01959032006561756,0.07194157689809799,9.010510444641113,-0.09626311808824539,-2.694838047027588
1413394882360760500,0.04174928367137909,0.03769630193710327,0.05647685378789902,9.111017227172852,0.7336831092834473,-2.548600435256958
1413394882365760500,0.01800672709941864,0.010665906593203545,0.07541707158088684,9.959675788879395,0.4218931198120117,-3.1435189247131348
1413394882370760500,-0.02334234118461609,0.052912406623363495,0.07547537237405777,8.955334663391113,0.3593958616256714,-2.4601118564605713
1413394882375760500,-0.03395784646272659,0.026829851791262627,0.1157156303524971,9.58304214477539,0.4933314621448517,-2.990675210952759
1413394882380760500,-0.04455634951591492,0.028631022199988365,0.10106074810028076,9.303790092468262,-0.27338746190071106,-2.6712212562561035
1413394882385760500,-0.04891885071992874,0.042274944484233856,0.07454116642475128,8.943446159362793,-0.39264431595802307,-2.1181013584136963
1413394882390760500,-0.005676284432411194,-0.019561603665351868,0.10108175128698349,9.647086143493652,-0.4352238178253174,-2.9812560081481934
1413394882395760500,-0.0005276650190353394,0.02980152703821659,0.0690874233841896,9.523797035217285,-0.5528994798660278,-2.5307135581970215
1413394882400760500,0.003031589090824127,0.0056825969368219376,0.06493132561445236,9.329034805297852,-0.1773492395877838,-2.671717405319214
1413394882405760500,0.03461557626724243,0.02311570756137371,0.07823874056339264,9.65588665008545,-0.5061185359954834,-2.6125574111938477
1413394882410760500,0.040961213409900665,0.0588080957531929,0.07360958307981491,9.27264404296875,0.00868580024689436,-2.5880260467529297
1413394882415760500,0.039638057351112366,0.012761862948536873,0.10383608937263489,9.657668113708496,0.6851548552513123,-2.8270859718322754
1413394882420760500,-0.010672330856323242,0.03686419874429703,0.06445913761854172,9.566567420959473,0.3431767523288727,-2.589512348175049
1413394882425760500,-0.0313686728477478,0.03813634067773819,0.07665418833494186,8.912375450134277,0.22576816380023956,-2.6238317489624023
1413394882430760500,-0.034908853471279144,-0.0012821238487958908,0.09223394095897675,9.174189567565918,-0.11824044585227966,-2.566145896911621
1413394882435760500,-0.04447190463542938,0.02362910844385624,0.05784472078084946,9.630706787109375,-0.5265483260154724,-2.6781604290008545
1413394882440760500,-0.014603771269321442,0.01269434578716755,0.10033728927373886,9.32055377960205,-0.3126552402973175,-2.9164011478424072
1413394882445760500,0.010504871606826782,0.0314408540725708,0.09195978939533234,9.997753143310547,-0.6094381809234619,-2.710317850112915
1413394882450760500,0.014169827103614807,0.03904081881046295,0.07436545193195343,8.97693157196045,-0.29978910088539124,-2.409665822982788
1413394882455760500,0.024877868592739105,0.014866752550005913,0.08669620752334595,9.232491493225098,0.17166222631931305,-2.5574803352355957
1413394882460760500,0.008823461830615997,0.015805764123797417,0.07474258542060852,9.288857460021973,-0.026120340451598167,-2.3690857887268066
1413394882465760500,-0.00949433445930481,0.0006040949374437332,0.07160698622465134,10.007369041442871,0.3203698396682739,-3.144228219985962
1413394882470760500,-0.010798625648021698,0.02534632943570614,0.09800804406404495,9.493505477905273,0.22279219329357147,-2.7365407943725586
1413394882475760500,-0.040225446224212646,0.040517061948776245,0.0954953283071518,9.075424194335938,0.10918189585208893,-2.695888042449951
1413394882480760500,-0.03838064521551132,0.028119077906012535,0.09935199469327927,9.671947479248047,-0.2655647099018097,-2.7764666080474854
1413394882485760500,-0.01240653544664383,0.020898515358567238,0.07896561920642853,9.523321151733398,-0.9750158190727234,-2.563589572906494
1413394882490760500,0.01973913609981537,0.05278000980615616,0.05902411416172981,9.474305152893066,-0.5966373682022095,-2.614264965057373
1413394882495760500,0.040019720792770386,-0.0034455303102731705,0.06551936268806458,8.937458992004395,-0.25166115164756775,-2.401859998703003
1413394882500760500,0.044360384345054626,0.02783953584730625,0.05193900316953659,9.745072364807129,-0.22968603670597076,-2.808150291442871
1413394882505760500,0.04415567219257355,0.01766001619398594,0.0668853223323822,9.288585662841797,0.07572946697473526,-2.4919869899749756
1413394882510760500,0.03737005591392517,0.01885931007564068,0.07327305525541306,9.51924991607666,0.3782143294811249,-3.005194664001465
1413394882515760500,0.006863519549369812,0.053797557950019836,0.07950040698051453,8.969389915466309,0.7198269367218018,-2.305488348007202
1413394882520760500,-0.037502579391002655,-0.006213878281414509,0.09965069591999054,9.420372009277344,1.0367594957351685,-3.226074695587158
1413394882525760500,-0.0936640053987503,0.03815220296382904,0.08581726253032684,9.502250671386719,0.5732431411743164,-2.729069471359253
1413394882530760500,-0.10898741334676743,0.041143998503685,0.10882128775119781,9.076102256774902,-0.3034933805465698,-2.697406768798828
1413394882535760500,-0.07043969631195068,0.01221342571079731,0.09965777397155762,9.441569328308105,-1.630462884902954,-2.6625654697418213
1413394882540760500,0.01909920573234558,0.01657300628721714,0.0940789058804512,9.208349227905273,-2.030287265777588,-2.212858200073242
1413394882545760500,0.11268490552902222,0.016910353675484657,0.07861627638339996,9.472745895385742,-1.7348124980926514,-2.6855640411376953
1413394882550760500,0.1554102599620819,0.006092740222811699,0.060566868633031845,9.427589416503906,-0.42345765233039856,-2.3593297004699707
1413394882555760500,0.12571915984153748,0.02149493806064129,0.07606368511915207,9.962027549743652,1.5339921712875366,-3.0694363117218018
1413394882560760500,0.017360299825668335,0.04879055172204971,0.07065272331237793,9.554680824279785,2.311992883682251,-3.0135140419006348
1413394882565760500,-0.10374703258275986,0.047704748809337616,0.06989210098981857,9.349298477172852,1.8076599836349487,-2.8919246196746826
1413394882570760500,-0.1571018248796463,0.0404767245054245,0.08932821452617645,9.233209609985352,0.2181800901889801,-2.6159331798553467
1413394882575760500,-0.1314070224761963,0.02850707434117794,0.0855729952454567,8.927165031433105,-1.6239248514175415,-2.369035482406616
1413394882580760500,-0.04960443079471588,-0.0020072925835847855,0.08555463701486588,9.251509666442871,-1.8443145751953125,-2.352652072906494
1413394882585760500,0.049713730812072754,-0.007758567109704018,0.0947808027267456,9.686101913452148,-1.2376270294189453,-2.7271037101745605
1413394882590760500,0.08961774408817291,0.020905332639813423,0.09059139341115952,9.663104057312012,-0.32477670907974243,-2.555969476699829
1413394882595760500,0.08209802210330963,0.02033098228275776,0.08725311607122421,9.631952285766602,0.4175906777381897,-2.7031795978546143
1413394882600760500,0.041064515709877014,0.03645876795053482,0.06782704591751099,9.54430103302002,0.5478456616401672,-2.6287074089050293
1413394882605760500,0.010234415531158447,0.03489600121974945,0.06746882945299149,9.250702857971191,0.4925345778465271,-2.434242010116577
1413394882610760500,-0.01840190589427948,0.021570397540926933,0.07659710943698883,9.559805870056152,0.40978050231933594,-2.9402594566345215
1413394882615760500,-0.04714024066925049,0.03987140953540802,0.08377299457788467,9.436958312988281,0.5064972043037415,-2.778059244155884
1413394882620760500,-0.0663517564535141,0.03924299776554108,0.09419780224561691,9.264151573181152,0.15733611583709717,-2.7139992713928223
1413394882625760500,-0.05605630576610565,0.024491028860211372,0.09211269021034241,9.29545783996582,-0.5812532901763916,-2.647601842880249
1413394882630760500,-0.02159997820854187,0.018096400424838066,0.07605518400669098,9.098621368408203,-0.7341741919517517,-2.320690393447876
1413394882635760500,0.007154002785682678,-0.004372440278530121,0.05915367230772972,9.425198554992676,-0.663848340511322,-2.727614402770996
1413394882640760500,0.04359567165374756,0.0032097715884447098,0.06687024980783463,9.662511825561523,-0.6048154830932617,-2.6120827198028564
1413394882645760500,0.05762191116809845,0.01746811531484127,0.06969591975212097,9.606965065002441,-0.1896914839744568,-2.8001303672790527
1413394882650760500,0.040287792682647705,0.02608824335038662,0.07889479398727417,9.372132301330566,0.4062025845050812,-2.7202529907226562
1413394882655760500,0.008985117077827454,0.03435439616441727,0.08457764238119125,9.601115226745605,0.7357833385467529,-2.891193389892578
1413394882660760500,-0.031053923070430756,0.04829242080450058,0.07668308168649673,9.54262924194336,0.40315067768096924,-2.82700777053833
1413394882665760500,-0.0459427535533905,0.04679516702890396,0.0794883593916893,9.361686706542969,0.2486993968486786,-2.7125513553619385
1413394882670760500,-0.050893619656562805,0.03059346042573452,0.0760224461555481,9.157195091247559,-0.25658780336380005,-2.532945394515991
1413394882675760500,-0.03835051506757736,0.02578027732670307,0.07941155135631561,9.20567512512207,-0.4923212230205536,-2.549323797225952
1413394882680760500,-0.005568467080593109,0.015216993167996407,0.09488148987293243,9.555944442749023,-0.8447861671447754,-2.6135573387145996
1413394882685760500,0.023858055472373962,0.013872992247343063,0.09412255883216858,9.589254379272461,-0.731968343257904,-2.662491798400879
1413394882690760500,0.039346449077129364,0.02243615873157978,0.07657832652330399,9.337272644042969,-0.3643895983695984,-2.572389841079712
1413394882695760500,0.038790419697761536,0.015447912737727165,0.07321586459875107,9.541960716247559,0.17349638044834137,-2.84161376953125
1413394882700760500,0.02771332859992981,0.03566925227642059,0.0780608132481575,9.518730163574219,0.44827502965927124,-2.711374282836914
1413394882705760500,0.0011785030364990234,0.02935289777815342,0.08160656690597534,9.485827445983887,0.42395442724227905,-2.810131549835205
1413394882710760500,-0.024703457951545715,0.04397708177566528,0.08185506612062454,9.264418601989746,0.3037102222442627,-2.541679620742798
1413394882715760500,-0.03753583878278732,0.023043839260935783,0.09144721925258636,9.075876235961914,0.06790868192911148,-2.5010693073272705
1413394882720760500,-0.04057671129703522,0.013871124014258385,0.09608667343854904,9.247251510620117,-0.1101018562912941,-2.4925684928894043
1413394882725760500,-0.0314544141292572,0.003408847376704216,0.09537456184625626,9.605652809143066,-0.5565577149391174,-2.7441797256469727
1413394882730760500,-0.013158023357391357,0.02229234017431736,0.07444506138563156,9.744283676147461,-0.6958261728286743,-2.907012939453125
1413394882735760500,0.019098669290542603,0.02380247600376606,0.07391969859600067,9.238037109375,-0.5531495213508606,-2.589364767074585
1413394882740760500,0.0409158319234848,0.023776626214385033,0.07404957711696625,9.590471267700195,-0.08127628266811371,-2.890087604522705
1413394882745760500,0.04512160271406174,0.04055000841617584,0.07401462644338608,9.256858825683594,0.13117378950119019,-2.515658140182495
1413394882750760500,0.022764109075069427,0.0265169870108366,0.07328005880117416,9.591704368591309,0.38563331961631775,-2.9484004974365234
1413394882755760500,0.0009659379720687866,0.03839266300201416,0.08150598406791687,9.028107643127441,0.5883785486221313,-2.3707714080810547
1413394882760760500,-0.031201757490634918,0.013360334560275078,0.09404437243938446,9.06011962890625,0.4110275208950043,-2.753803253173828
1413394882765760500,-0.05433466285467148,0.014551842585206032,0.09768889844417572,9.369677543640137,0.05349458009004593,-2.6476891040802
1413394882770760500,-0.048784010112285614,0.0069357529282569885,0.09559661149978638,9.540733337402344,-0.40303874015808105,-2.8341288566589355
1413394882775760500,-0.02366657555103302,0.03765380382537842,0.07589621841907501,9.695120811462402,-0.7478165030479431,-2.9071836471557617
1413394882780760500,0.005769163370132446,0.01895388402044773,0.07039500027894974,9.131226539611816,-0.7884629964828491,-2.507253646850586
1413394882785760500,0.038036949932575226,0.02716665156185627,0.06337133795022964,9.516514778137207,-0.4699552655220032,-2.8247745037078857
1413394882790760500,0.049224019050598145,0.03213866055011749,0.07317313551902771,9.346266746520996,-0.02296905778348446,-2.5725743770599365
1413394882795760500,0.03736545890569687,0.020884180441498756,0.07398921251296997,9.567509651184082,0.3597055971622467,-2.8585703372955322
1413394882800760500,0.003885895013809204,0.03431102633476257,0.08372689038515091,9.134428977966309,0.5144149661064148,-2.3952672481536865
1413394882805760500,-0.031153760850429535,0.014764059334993362,0.08932094275951385,9.558449745178223,0.3208595812320709,-2.825880527496338
1413394882810760500,-0.04872477799654007,0.03413374722003937,0.0836917906999588,9.663765907287598,0.05299624800682068,-2.8179657459259033
1413394882815760500,-0.05011367052793503,0.027214953675866127,0.09130184352397919,9.45160961151123,-0.2402181625366211,-2.802194118499756
1413394882820760500,-0.03266414999961853,0.041170671582221985,0.07867047190666199,9.426018714904785,-0.6585732102394104,-2.6712236404418945
1413394882825760500,0.003609403967857361,0.025147883221507072,0.08923899382352829,9.090478897094727,-0.8209481239318848,-2.401581048965454
1413394882830760500,0.03580363094806671,0.024290656670928,0.0837298035621643,9.508377075195312,-0.5587075352668762,-2.6620354652404785
1413394882835760500,0.05542553961277008,0.021667437627911568,0.08926769345998764,9.191296577453613,-0.13650298118591309,-2.4263038635253906
1413394882840760500,0.04232035577297211,0.014650873839855194,0.08578483015298843,9.558855056762695,0.3179541230201721,-2.662637233734131
1413394882845760500,0.012907996773719788,0.018984226509928703,0.08508298546075821,9.297256469726562,0.4896267354488373,-2.590134859085083
1413394882850760500,-0.01925906538963318,0.014643479138612747,0.08439072966575623,9.591429710388184,0.524472177028656,-2.8750107288360596
1413394882855760500,-0.03677314519882202,0.028565948829054832,0.08514443039894104,9.297002792358398,0.1257949322462082,-2.6635820865631104
1413394882860760500,-0.044467076659202576,0.025886578485369682,0.08437472581863403,9.516803741455078,-0.2658635973930359,-2.8752081394195557
1413394882865760500,-0.029183462262153625,0.042614832520484924,0.07455328106880188,9.360658645629883,-0.5515910983085632,-2.548985004425049
1413394882870760500,0.0007988288998603821,0.02097935415804386,0.08434653282165527,9.205852508544922,-0.6980217099189758,-2.5975887775421143
1413394882875760500,0.02387729287147522,0.02290741540491581,0.07528078556060791,9.353017807006836,-0.46141695976257324,-2.6052308082580566
1413394882880760500,0.035885706543922424,0.009093854576349258,0.08439693599939346,9.45993709564209,-0.05465151369571686,-2.719864845275879
1413394882885760500,0.024077117443084717,0.02580316551029682,0.07824476808309555,9.631614685058594,0.23784926533699036,-2.7441868782043457
1413394882890760500,0.008680149912834167,0.023112798109650612,0.07671420276165009,9.386913299560547,0.2954047620296478,-2.679168939590454
1413394882895760500,-0.011501491069793701,0.030064469203352928,0.07673189043998718,9.550580024719238,0.34437522292137146,-2.825697422027588
1413394882900760500,-0.031112268567085266,0.030745884403586388,0.07880710810422897,9.402995109558105,0.083598293364048,-2.7776265144348145
1413394882905760500,-0.036115095019340515,0.03344430774450302,0.08569104969501495,9.345406532287598,-0.298638254404068,-2.712268590927124
1413394882910760500,-0.02570519596338272,0.03281331807374954,0.08508098125457764,9.263087272644043,-0.5754642486572266,-2.557096004486084
1413394882915760500,0.0036279037594795227,0.009772861376404762,0.08582194149494171,9.116019248962402,-0.6006144285202026,-2.4751524925231934
1413394882920760500,0.01903402805328369,0.0062012504786252975,0.08295485377311707,9.51607608795166,-0.38029250502586365,-2.686697006225586
1413394882925760500,0.02604447305202484,0.012527510523796082,0.08160907030105591,9.582201957702637,-0.09425770491361618,-2.7846078872680664
1413394882930760500,0.013527020812034607,0.028630411252379417,0.0781034529209137,9.639692306518555,0.1818806231021881,-2.8419108390808105
1413394882935760500,0.0002962052822113037,0.028068022802472115,0.0787772461771965,9.33794116973877,0.1888388693332672,-2.5978379249572754
1413394882940760500,-0.01358446478843689,0.03492708504199982,0.07461274415254593,9.476583480834961,0.06712668389081955,-2.8664441108703613
1413394882945760500,-0.02206839621067047,0.026490358635783195,0.08024637401103973,9.076696395874023,0.034903619438409805,-2.419450283050537
1413394882950760500,-0.01652563363313675,0.025036657229065895,0.08925695717334747,9.54142951965332,-0.24222123622894287,-2.7447688579559326
1413394882955760500,-0.009627111256122589,0.034990184009075165,0.08577170222997665,9.140461921691895,-0.42910170555114746,-2.4186651706695557
1413394882960760500,0.0050537437200546265,0.015386909246444702,0.09273067116737366,9.450867652893066,-0.3222048878669739,-2.7606327533721924
1413394882965760500,0.01205088198184967,0.02439970336854458,0.08511769026517868,9.394253730773926,-0.021198352798819542,-2.5731964111328125
1413394882970760500,0.009279400110244751,0.026484733447432518,0.08294607698917389,9.565816879272461,-0.037197042256593704,-2.841930866241455
1413394882975760500,0.0016511976718902588,0.032761119306087494,0.07537050545215607,9.476086616516113,0.04339417442679405,-2.5976152420043945
1413394882980760500,-0.0018106848001480103,0.017458869144320488,0.07948657870292664,9.395299911499023,0.1568886637687683,-2.7118868827819824
1413394882985760500,-0.009470164775848389,0.03141016513109207,0.07734648138284683,9.39542007446289,0.0827113687992096,-2.638495922088623
1413394882990760500,-0.012299470603466034,0.01605401746928692,0.08653190732002258,9.255804061889648,-0.1525595337152481,-2.6390738487243652
1413394882995760500,-0.009499497711658478,0.02023482508957386,0.0871891975402832,9.53310775756836,-0.29914796352386475,-2.6955759525299072
1413394883000760500,-0.001225888729095459,0.017557719722390175,0.0794776976108551,9.279478073120117,-0.2744811773300171,-2.5489587783813477
1413394883005760500,0.0029944181442260742,0.01176394708454609,0.0746520459651947,9.451153755187988,-0.22522661089897156,-2.686910629272461
1413394883010760500,0.003019481897354126,0.01805948279798031,0.07598920166492462,9.638956069946289,-0.02072068490087986,-2.792788028717041
1413394883015760500,-0.0011902153491973877,0.02726750262081623,0.07038632035255432,9.566509246826172,0.07652847468852997,-2.801194429397583
1413394883020760500,-0.008828163146972656,0.03493862599134445,0.07121396064758301,9.37831974029541,0.09269969910383224,-2.7692573070526123
1413394883025760500,-0.008794933557510376,0.03566298633813858,0.08024262636899948,9.305107116699219,-0.05461559072136879,-2.679229497909546
1413394883030760500,-0.008831635117530823,0.025850242003798485,0.08501521497964859,9.304801940917969,-0.1450650542974472,-2.5978589057922363
1413394883035760500,-0.003958940505981445,0.018808571621775627,0.08372898399829865,9.231002807617188,-0.29978281259536743,-2.524465560913086
1413394883040760500,-0.0004437863826751709,0.020168019458651543,0.08788387477397919,9.483654022216797,-0.3395511507987976,-2.654521942138672
1413394883045760500,0.005798213183879852,0.02166285552084446,0.08573261648416519,9.287726402282715,-0.21788959205150604,-2.52441668510437
1413394883050760500,0.00510561466217041,0.013910697773098946,0.07880383729934692,9.499991416931152,-0.10344837605953217,-2.7768352031707764
1413394883055760500,0.0016301125288009644,0.03284461051225662,0.08095483481884003,9.558075904846191,0.011949382722377777,-2.646103858947754
1413394883060760500,-0.006058335304260254,0.022337602451443672,0.08084190636873245,9.378596305847168,0.11039906740188599,-2.9404165744781494
1413394883065760500,-0.013755716383457184,0.03837239742279053,0.08223927021026611,9.345986366271973,-0.022869829088449478,-2.532661199569702
1413394883070760500,-0.010938987135887146,0.02451680786907673,0.08582796156406403,9.304715156555176,-0.19371409714221954,-2.68717885017395
1413394883075760500,-0.0060285478830337524,0.030697369948029518,0.08086889982223511,9.402776718139648,-0.25800156593322754,-2.5732340812683105
1413394883080760500,-0.0004749596118927002,0.01253422163426876,0.09417160600423813,9.271632194519043,-0.19287051260471344,-2.59013032913208
1413394883085760500,0.0030503422021865845,0.02508276142179966,0.08510987460613251,9.663416862487793,-0.29214614629745483,-2.6300172805786133
1413394883090760500,0.011385694146156311,0.015352914109826088,0.08362998068332672,9.328166007995605,-0.22555050253868103,-2.638333559036255
1413394883095760500,0.013530120253562927,0.022284602746367455,0.07951238751411438,9.55815315246582,0.07687654346227646,-2.6137759685516357
1413394883100760500,0.000975094735622406,0.030069706961512566,0.0780860036611557,9.48486042022705,0.20683468878269196,-2.7443556785583496
1413394883105760500,-0.014404810965061188,0.03772463649511337,0.07600045204162598,9.599297523498535,0.17380231618881226,-2.8582990169525146
1413394883110760500,-0.017985396087169647,0.03843895345926285,0.08236676454544067,9.296574592590332,-0.08744512498378754,-2.5249223709106445
1413394883115760500,-0.010950639843940735,0.027257340028882027,0.08438439667224884,9.337806701660156,-0.13552325963974,-2.7037103176116943
1413394883120760500,-0.0046415776014328,0.02225205861032009,0.0879184901714325,9.010310173034668,-0.19268439710140228,-2.508477210998535
1413394883125760500,-0.00047197937965393066,0.009725268930196762,0.08859353512525558,9.49983024597168,-0.34017595648765564,-2.8341081142425537
1413394883130760500,0.007150113582611084,0.018779205158352852,0.08499307185411453,9.573342323303223,-0.37306880950927734,-2.589003801345825
1413394883135760500,0.01908862590789795,0.01751229725778103,0.07878045737743378,9.426928520202637,-0.10268006473779678,-2.7685306072235107
1413394883140760500,0.010122537612915039,0.028593609109520912,0.06976131349802017,9.386473655700684,0.13321873545646667,-2.638472557067871
1413394883145760500,-0.0031917691230773926,0.030800579115748405,0.07458655536174774,9.607328414916992,0.21447716653347015,-2.727782964706421
1413394883150760500,-0.013757765293121338,0.03628496080636978,0.06629110872745514,9.452032089233398,0.13327904045581818,-2.7691361904144287
1413394883155760500,-0.013786867260932922,0.03075149469077587,0.0781865194439888,9.149660110473633,-0.013026583008468151,-2.6390881538391113
1413394883160760500,-0.01580096036195755,0.03349367529153824,0.07950101792812347,9.312788963317871,-0.21746446192264557,-2.6548657417297363
1413394883165760500,-0.011652469635009766,0.019560886546969414,0.09202890843153,9.197751998901367,-0.31575310230255127,-2.5488171577453613
1413394883170760500,-0.0026467442512512207,0.013890180736780167,0.08648084104061127,9.483665466308594,-0.46215522289276123,-2.7522835731506348
1413394883175760500,0.009960755705833435,0.027197303250432014,0.07738617807626724,9.467305183410645,-0.2740810215473175,-2.605775833129883
1413394883180760500,0.020577430725097656,0.011826591566205025,0.08016746491193771,9.589964866638184,-0.11166132986545563,-2.8743696212768555
1413394883185760500,0.011490270495414734,0.03420047461986542,0.0725211501121521,9.500732421875,0.15681061148643494,-2.621718406677246
1413394883190760500,0.0002450123429298401,0.03219611197710037,0.07949845492839813,9.420125961303711,0.16665276885032654,-2.7526392936706543
1413394883195760500,-0.015114367008209229,0.03211117535829544,0.08092886209487915,9.525848388671875,0.08469221740961075,-2.7772839069366455
1413394883200760500,-0.02003762125968933,0.03143993765115738,0.08505336195230484,9.280254364013672,-0.1529730260372162,-2.5410611629486084
1413394883205760500,-0.019327320158481598,0.03071649931371212,0.09207949042320251,9.304534912109375,-0.2915215492248535,-2.606174945831299
1413394883210760500,-0.006095908582210541,0.013203496113419533,0.09697003662586212,9.271605491638184,-0.33076751232147217,-2.4754414558410645
1413394883215760500,0.0001713782548904419,0.010368520393967628,0.08915996551513672,9.548845291137695,-0.3880654275417328,-2.8501853942871094
1413394883220760500,0.01486864686012268,0.02233310602605343,0.08020957559347153,9.385539054870605,-0.2912215292453766,-2.6874263286590576
1413394883225760500,0.019850969314575195,0.016710346564650536,0.07952480763196945,9.500526428222656,-0.021903101354837418,-2.8663370609283447
1413394883230760500,0.013546973466873169,0.03568984568119049,0.07317399978637695,9.485150337219238,0.29673248529434204,-2.6789028644561768
1413394883235760500,-0.001778438687324524,0.03155095875263214,0.07954099029302597,9.444465637207031,0.27188584208488464,-2.7688257694244385
1413394883240760500,-0.009504884481430054,0.03972974419593811,0.08023632317781448,9.48466682434082,0.05082155019044876,-2.679471492767334
1413394883245760500,-0.02075578272342682,0.025158150121569633,0.08502423763275146,9.247480392456055,-0.1118054986000061,-2.6309728622436523
1413394883250760500,-0.016575001180171967,0.02089027874171734,0.08726784586906433,9.247264862060547,-0.16759371757507324,-2.6961891651153564
1413394883255760500,-0.010930433869361877,0.02298559807240963,0.08720958232879639,9.352670669555664,-0.39669567346572876,-2.5733766555786133
1413394883260760500,0.002252534031867981,0.011108798906207085,0.08640266954898834,9.450862884521484,-0.3315521776676178,-2.784818172454834
1413394883265760500,0.012817643582820892,0.025135373696684837,0.07807939499616623,9.581961631774902,-0.2181168496608734,-2.6136205196380615
1413394883270760500,0.016303405165672302,0.01954481191933155,0.07599721848964691,9.410468101501465,-0.10281854122877121,-2.7846872806549072
1413394883275760500,0.005175784230232239,0.030703170225024223,0.06973570585250854,9.460338592529297,0.14987245202064514,-2.7442615032196045
1413394883280760500,-0.005312740802764893,0.025174016132950783,0.0732579231262207,9.32998275756836,0.2635118067264557,-2.785238265991211
1413394883285760500,-0.014374859631061554,0.04122195392847061,0.07812651246786118,9.468416213989258,-0.06349174678325653,-2.6876308917999268
1413394883290760500,-0.02077023684978485,0.021714674308896065,0.08370838314294815,9.124783515930176,-0.2090895175933838,-2.5575075149536133
1413394883295760500,-0.013746775686740875,0.02715187333524227,0.0836859866976738,9.418717384338379,-0.29864418506622314,-2.7282257080078125
1413394883300760500,-0.000502467155456543,0.020239634439349174,0.09069611132144928,9.230311393737793,-0.38880401849746704,-2.459197998046875
1413394883305760500,0.011370331048965454,0.014525437727570534,0.08640753477811813,9.630476951599121,-0.36355727910995483,-2.923346996307373
1413394883310760500,0.014920927584171295,0.022326501086354256,0.07525242120027542,9.557327270507812,-0.18552327156066895,-2.597276449203491
1413394883315760500,0.015604473650455475,0.019567763432860374,0.07673110067844391,9.419182777404785,-0.030070198699831963,-2.8910000324249268
1413394883320760500,0.007943451404571533,0.032101526856422424,0.07111942768096924,9.35431957244873,0.14983513951301575,-2.606022596359253
1413394883325760500,-0.003910228610038757,0.024534737691283226,0.08228859305381775,9.501463890075684,0.15808846056461334,-2.825576066970825
1413394883330760500,-0.015072241425514221,0.03632938116788864,0.08378898352384567,9.444311141967773,0.041658006608486176,-2.500281572341919
1413394883335760500,-0.015894271433353424,0.020232046023011208,0.09274619072675705,9.116477966308594,-0.21767817437648773,-2.6227450370788574
1413394883340760500,-0.013084523379802704,0.02364385314285755,0.08784142881631851,9.26318073272705,-0.3714841902256012,-2.646969795227051
1413394883345760500,-0.0019047781825065613,0.005582334473729134,0.09347040951251984,9.262998580932617,-0.32262611389160156,-2.589829683303833
1413394883350760500,0.014905378222465515,0.020134782418608665,0.09061308205127716,9.663454055786133,-0.1931576430797577,-2.825523853302002
1413394883355760500,0.013492338359355927,0.0251892302185297,0.07878507673740387,9.402385711669922,-0.07913856953382492,-2.56479549407959
1413394883360760500,0.007232949137687683,0.029349317774176598,0.07535211741924286,9.500871658325195,-0.0053643169812858105,-2.809152841567993
1413394883365760500,-0.0025219768285751343,0.02660304866731167,0.0697145089507103,9.313334465026855,0.18230076134204865,-2.5246126651763916
1413394883370760500,-0.008834943175315857,0.029315615072846413,0.08226261287927628,9.583236694335938,0.06791327893733978,-2.842047691345215
1413394883375760500,-0.01718803495168686,0.03904566168785095,0.08236533403396606,9.312891960144043,-0.07939543575048447,-2.5983998775482178
1413394883380760500,-0.01093415915966034,0.02516036294400692,0.09067565202713013,9.181894302368164,-0.20174366235733032,-2.565577268600464
1413394883385760500,-0.011004529893398285,0.025860486552119255,0.08227488398551941,9.402007102966309,-0.2989897131919861,-2.6465811729431152
1413394883390760500,0.00016166269779205322,0.01880773715674877,0.0857960432767868,9.426728248596191,-0.26556941866874695,-2.6382174491882324
1413394883395760500,0.008661344647407532,0.011707348749041557,0.08646385371685028,9.606375694274902,-0.21709170937538147,-2.8747353553771973
1413394883400760500,0.01141851395368576,0.02724074386060238,0.06967897713184357,9.476030349731445,0.018718156963586807,-2.744133472442627
1413394883405760500,0.0016493946313858032,0.02379125915467739,0.07394035905599594,9.247674942016602,0.05979400873184204,-2.7116754055023193
1413394883410760500,-0.00041115283966064453,0.02867603860795498,0.07255985587835312,9.509337425231934,0.1660803258419037,-2.809736728668213
1413394883415760500,-0.008846789598464966,0.03143300861120224,0.08505585789680481,9.419836044311523,0.027227258309721947,-2.777028799057007
1413394883420760500,-0.017224237322807312,0.0279486533254385,0.08028896898031235,9.369942665100098,-0.16065949201583862,-2.7448325157165527
1413394883425760500,-0.010880962014198303,0.02927493117749691,0.08507499098777771,9.287459373474121,-0.35596805810928345,-2.605912208557129
1413394883430760500,-0.002627447247505188,0.018814777955412865,0.0884772464632988,9.36931324005127,-0.37237346172332764,-2.6463301181793213
1413394883435760500,0.01205473393201828,0.026493484154343605,0.08720095455646515,9.336711883544922,-0.25806924700737,-2.5978405475616455
1413394883440760500,0.012139149010181427,0.009702663868665695,0.080942302942276,9.336907386779785,-0.1351471096277237,-2.7444095611572266
1413394883445760500,0.005111239850521088,0.02582511492073536,0.07457858324050903,9.590487480163574,-0.013712785206735134,-2.687058925628662
1413394883450760500,0.0015851706266403198,0.02237348072230816,0.07458481937646866,9.280261993408203,0.04335657134652138,-2.752338409423828
1413394883455760500,-0.005276285111904144,0.03350619226694107,0.07462981343269348,9.468820571899414,0.11698281764984131,-2.7769789695739746
1413394883460760500,-0.016505509614944458,0.026660775765776634,0.0823376402258873,9.247901916503906,0.0437932051718235,-2.638817548751831
1413394883465760500,-0.017258651554584503,0.028582299128174782,0.08788681030273438,9.39423656463623,-0.21799904108047485,-2.6796302795410156
1413394883470760500,-0.004678867757320404,0.02718335948884487,0.09205138683319092,9.24643611907959,-0.446739137172699,-2.4021308422088623
1413394883475760500,0.008600421249866486,0.02226865105330944,0.08923373371362686,9.573734283447266,-0.33909371495246887,-2.776695728302002
1413394883480760500,0.013551555573940277,0.02093827910721302,0.08718422055244446,9.320886611938477,-0.03776722028851509,-2.540980815887451
1413394883485760500,0.01419965922832489,0.015331605449318886,0.08086599409580231,9.516775131225586,-0.04636693373322487,-2.8259472846984863
1413394883490760500,0.002976521849632263,0.032071247696876526,0.06761322915554047,9.541547775268555,-0.05495547875761986,-2.613746404647827
1413394883495760500,-0.004640519618988037,0.0154131930321455,0.07463593780994415,9.444221496582031,0.15836498141288757,-2.86653995513916
1413394883500760500,-0.013640619814395905,0.03421745449304581,0.07116331160068512,9.436297416687012,0.15702857077121735,-2.6061770915985107
1413394883505760500,-0.017928726971149445,0.025206321850419044,0.0802067294716835,9.394643783569336,-0.078976109623909,-2.768813133239746
1413394883510760500,-0.01725412905216217,0.03484411537647247,0.07812157273292542,9.45930004119873,-0.4464862644672394,-2.6140177249908447
1413394883515760500,0.002292744815349579,0.010505927726626396,0.08713661134243011,9.287714958190918,-0.372100293636322,-2.6141176223754883
1413394883520760500,0.016302578151226044,0.02713548205792904,0.08300060033798218,9.296380996704102,-0.25796180963516235,-2.556947946548462
1413394883525760500,0.01909920573234558,0.011833379045128822,0.08863058686256409,9.279476165771484,-0.013380125164985657,-2.6303558349609375
1413394883530760500,0.010051175951957703,0.01669210009276867,0.08507376909255981,9.745823860168457,0.1249115914106369,-2.858048915863037
1413394883535760500,-0.0033072680234909058,0.021055584773421288,0.07249318808317184,9.4112548828125,0.1166907548904419,-2.695526599884033
1413394883540760500,-0.014393232762813568,0.028620170429348946,0.06628523766994476,9.444130897521973,0.14975495636463165,-2.8177177906036377
1413394883545760500,-0.017168201506137848,0.02024506963789463,0.07809378951787949,9.30453109741211,-0.07107164710760117,-2.687497854232788
1413394883550760500,-0.016521431505680084,0.029360445216298103,0.07734429091215134,9.361712455749512,-0.3566751778125763,-2.5487136840820312
1413394883555760500,-0.0019250661134719849,0.023732652887701988,0.09003724902868271,9.26296615600586,-0.44544732570648193,-2.6549017429351807
1413394883560760500,0.013496056199073792,0.022299358621239662,0.09143758565187454,9.279994010925293,-0.1768975555896759,-2.6629605293273926
1413394883565760500,0.012105017900466919,0.01113971509039402,0.0815078392624855,9.500458717346191,0.058983974158763885,-2.605937957763672
1413394883570760500,0.0016346871852874756,0.02373729832470417,0.07393821328878403,9.745216369628906,-0.06179872900247574,-2.7518746852874756
1413394883575760500,-0.013045653700828552,0.03275148570537567,0.05366310849785805,9.418623924255371,-0.3633594512939453,-2.6705563068389893
1413394883580760500,-0.019342005252838135,-0.0020544398576021194,0.05218132585287094,9.329824447631836,-0.0384257473051548,-2.8833580017089844
1413394883585760500,-0.022083431482315063,0.0034284833818674088,0.04185805469751358,9.53345775604248,-0.45731595158576965,-2.5478646755218506
1413394883590760500,-0.008109256625175476,-0.024528825655579567,0.045375775545835495,9.361769676208496,-0.47084277868270874,-2.686448812484741
1413394883595760500,0.014943242073059082,-0.017610646784305573,0.05859677493572235,9.664993286132812,-0.16031292080879211,-2.629940986633301
1413394883600760500,0.021279171109199524,0.014901328831911087,0.0851624384522438,9.87671184539795,0.47520312666893005,-3.0211994647979736
1413394883605760500,-0.001098141074180603,0.04279308021068573,0.06903200596570969,9.565693855285645,0.14077600836753845,-2.8098092079162598
1413394883610760500,-0.006802193820476532,0.03081882931292057,0.08863570541143417,9.222294807434082,-0.027108024805784225,-3.0300192832946777
1413394883615760500,0.0036843866109848022,0.06275463849306107,0.14031082391738892,9.27246379852295,0.14457310736179352,-2.8999428749084473
1413394883620760500,-0.0032934844493865967,0.05588904768228531,0.1785038411617279,8.814574241638184,0.16627535223960876,-2.639723539352417
1413394883625760500,-0.018621914088726044,0.0473184809088707,0.17713794112205505,9.28801155090332,-0.4144352078437805,-2.8838984966278076
1413394883630760500,-0.01465897262096405,0.03996427357196808,0.13946779072284698,8.886425018310547,-0.9197715520858765,-2.3451406955718994
1413394883635760500,-0.0020763278007507324,0.004922160878777504,0.0637960433959961,9.066452026367188,-1.05669105052948,-2.638336658477783
1413394883640760500,0.03319200873374939,-0.013524707406759262,0.028483375906944275,9.474359512329102,-0.5848323106765747,-2.653550863265991
1413394883645760500,0.050093457102775574,-0.007005879655480385,0.024491678923368454,9.55819320678711,0.26138201355934143,-2.694831609725952
1413394883650760500,0.028908126056194305,0.03563552349805832,0.023507267236709595,9.272927284240723,0.8890624046325684,-2.5574419498443604
1413394883655760500,-0.022924169898033142,-0.0040854159742593765,0.024454444646835327,8.856395721435547,0.7215558290481567,-2.3373863697052
1413394883660760500,-0.0592423751950264,0.007048647850751877,0.02105751633644104,9.714015007019043,0.09342562407255173,-2.9803028106689453
1413394883665760500,-0.0535651296377182,0.01953546144068241,0.06058390811085701,9.2072114944458,0.043551962822675705,-2.419576406478882
1413394883670760500,-0.021956562995910645,0.02013193629682064,0.12129941582679749,10.210285186767578,-0.4389469623565674,-3.135301351547241
1413394883675760500,-0.0010871291160583496,0.06307101994752884,0.1249513104557991,8.780058860778809,-0.43734630942344666,-1.9870545864105225
1413394883680760500,0.014719739556312561,0.0077816154807806015,0.12624503672122955,9.417896270751953,-0.5621469020843506,-2.6791913509368896
1413394883685760500,0.025266006588935852,0.05008591711521149,0.10616137087345123,10.103072166442871,-0.37374147772789,-2.987783670425415
1413394883690760500,0.0429229736328125,0.036817170679569244,0.13034677505493164,9.453316688537598,0.02123851142823696,-2.621961832046509
1413394883695760500,0.03406333923339844,0.05372541397809982,0.12038268893957138,9.819833755493164,0.06164349615573883,-2.858471155166626
1413394883700760500,0.006540223956108093,0.0357922688126564,0.0826534554362297,8.880847930908203,-0.008602854795753956,-2.1573104858398438
1413394883705760500,-0.013943672180175781,-0.002840842120349407,0.05497446656227112,9.347492218017578,0.17235033214092255,-2.965089797973633
1413394883710760500,-0.03068261593580246,0.006888732314109802,0.05047018826007843,9.68107795715332,0.1433952897787094,-2.973487615585327
1413394883715760500,-0.03743477165699005,0.006151877343654633,0.06371603161096573,9.542041778564453,-0.1009325459599495,-2.7357025146484375
1413394883720760500,-0.028900235891342163,0.014820223674178123,0.05443156883120537,9.1565580368042,-0.4635028839111328,-2.2230112552642822
1413394883725760500,-0.01379898190498352,0.011179337278008461,0.04851221665740013,9.385078430175781,-0.3893175423145294,-2.547203302383423
1413394883730760500,-0.0020889267325401306,-0.0008100969716906548,0.04724612832069397,9.190909385681152,0.08574429899454117,-2.8593742847442627
1413394883735760500,0.0016569867730140686,0.017433593049645424,0.06159641221165657,9.598193168640137,-0.13633935153484344,-3.030310869216919
1413394883740760500,0.021366484463214874,0.06492695957422256,0.09382941573858261,9.506973266601562,-0.3896750211715698,-2.612539291381836
1413394883745760500,0.032501354813575745,0.0233947541564703,0.11168496310710907,8.667834281921387,-0.01547238975763321,-2.303889274597168
1413394883750760500,0.021297603845596313,0.04400164633989334,0.10441584140062332,9.264616012573242,0.17293964326381683,-2.679152250289917
1413394883755760500,-0.01241709291934967,0.027285588905215263,0.10321802645921707,9.296648979187012,0.41064023971557617,-2.7947776317596436
1413394883760760500,-0.027208387851715088,0.029850376769900322,0.1102379560470581,9.867801666259766,0.14354614913463593,-3.406510829925537
1413394883765760500,-0.030533745884895325,0.07053877413272858,0.09959344565868378,9.474711418151855,-0.45289677381515503,-2.5401530265808105
1413394883770760500,-0.007340967655181885,0.03086545132100582,0.10732660442590714,8.985289573669434,-0.5344904661178589,-2.458193778991699
1413394883775760500,0.011483654379844666,0.024264248088002205,0.08910879492759705,9.353815078735352,-0.42179304361343384,-2.532270669937134
1413394883780760500,0.011877894401550293,0.010980354622006416,0.06618394702672958,9.52465534210205,0.020313477143645287,-2.842984914779663
1413394883785760500,0.002220720052719116,0.024395635351538658,0.06653844565153122,9.794805526733398,0.1910189837217331,-3.128647565841675
1413394883790760500,-0.0038384348154067993,0.03417735546827316,0.05853894725441933,9.459859848022461,-0.3829388916492462,-2.50649094581604
1413394883795760500,0.0032792314887046814,0.00850570760667324,0.05836609750986099,9.157601356506348,-0.27629536390304565,-2.3521108627319336
1413394883800760500,0.0066840872168540955,0.0007488913834095001,0.06080290302634239,9.297893524169922,0.06776900589466095,-2.533374071121216
1413394883805760500,-0.007435038685798645,0.026302741840481758,0.064947709441185,9.949368476867676,0.2882192134857178,-3.0216457843780518
1413394883810760500,-0.02855558693408966,0.023135563358664513,0.09081486612558365,9.467813491821289,0.5151253342628479,-2.957601547241211
1413394883815760500,-0.03195858746767044,0.04545082151889801,0.10051890462636948,9.746156692504883,-0.2270507663488388,-2.832505941390991
1413394883820760500,-0.01784801483154297,0.05814263969659805,0.07297329604625702,9.1076021194458,-0.8101968765258789,-2.2462685108184814
1413394883825760500,0.014219075441360474,0.01119445264339447,0.09275726228952408,8.683958053588867,-0.2707624137401581,-2.289454698562622
1413394883830760500,0.03310079872608185,0.013738760724663734,0.10961812734603882,9.924949645996094,0.122557133436203,-2.981292963027954
1413394883835760500,0.01619001477956772,0.038414113223552704,0.0997558981180191,9.410011291503906,0.29298532009124756,-2.9324522018432617
1413394883840760500,0.00514095276594162,0.03764767944812775,0.10832740366458893,9.598954200744629,0.15014910697937012,-2.8741586208343506
1413394883845760500,-0.005914263427257538,0.03991078585386276,0.08772534132003784,9.182604789733887,-0.28901371359825134,-2.352078676223755
1413394883850760500,-0.010092943906784058,0.009247282519936562,0.052691712975502014,8.756864547729492,-0.42975568771362305,-2.158480405807495
1413394883855760500,0.006580576300621033,-0.02339472807943821,0.07699580490589142,9.38586139678955,0.06649838387966156,-2.746056079864502
1413394883860760500,-0.011065095663070679,0.020681580528616905,0.07259943336248398,9.90861988067627,0.18870723247528076,-2.9473841190338135
1413394883865760500,-0.03209494799375534,0.03586146980524063,0.06819826364517212,9.41110610961914,0.12535881996154785,-2.841991901397705
1413394883870760500,-0.023426271975040436,0.03798799216747284,0.07073929905891418,9.607027053833008,-0.3379661738872528,-2.7108571529388428
1413394883875760500,-0.006640277802944183,0.039337970316410065,0.06044275313615799,9.466766357421875,-0.8203795552253723,-2.4092087745666504
1413394883880760500,0.009331390261650085,0.01372138224542141,0.04867876321077347,8.838598251342773,-0.2504602074623108,-2.427978754043579
1413394883885760500,0.03597928583621979,0.006589783355593681,0.08823229372501373,9.859626770019531,0.24501802027225494,-2.8905723094940186
1413394883890760500,0.017659157514572144,0.03436578810214996,0.10244061052799225,9.73829174041748,0.523082971572876,-3.1103382110595703
1413394883895760500,-0.01444021612405777,0.04913363605737686,0.10669926553964615,9.592021942138672,0.48474904894828796,-2.948646306991577
1413394883900760500,-0.014858931303024292,0.05038189888000488,0.12110969424247742,9.3295259475708,0.0376078262925148,-2.5658271312713623
1413394883905760500,-0.02558796852827072,0.04129791259765625,0.07781453430652618,9.246756553649902,-0.6582017540931702,-2.459418773651123
1413394883910760500,-0.0006189495325088501,-0.0009921696037054062,0.07435847073793411,9.00052261352539,-0.6512489914894104,-2.3616039752960205
1413394883915760500,0.02470070868730545,-0.002508477307856083,0.09366710484027863,9.442985534667969,-0.1119704395532608,-2.735490322113037
1413394883920760500,0.009190700948238373,0.015428604558110237,0.10023599117994308,9.73033618927002,0.21544338762760162,-3.0371832847595215
1413394883925760500,-0.015870817005634308,0.03095073811709881,0.09149980545043945,9.73796272277832,0.1013040840625763,-2.989340305328369
1413394883930760500,-0.013542912900447845,0.05052265524864197,0.07986913621425629,9.386214256286621,-0.05402722954750061,-2.50864315032959
1413394883935760500,-0.009521454572677612,0.028649432584643364,0.05055426061153412,9.051017761230469,-0.8143916726112366,-2.29526948928833
1413394883940760500,0.005118913948535919,-0.0031410809606313705,0.046539608389139175,9.246105194091797,-0.3799237012863159,-2.4988930225372314
1413394883945760500,0.017155803740024567,-0.0023022089153528214,0.0720260813832283,9.387056350708008,0.3200951814651489,-2.8100032806396484
1413394883950760500,-0.003323569893836975,0.02872740663588047,0.09978776425123215,9.763916969299316,0.7338516712188721,-3.0872080326080322
1413394883955760500,-0.030500829219818115,0.05191957205533981,0.10422572493553162,9.737263679504395,0.297071635723114,-2.98974871635437
1413394883960760500,-0.026853106915950775,0.05616380274295807,0.09368403255939484,9.198118209838867,-0.3624330759048462,-2.3131847381591797
1413394883965760500,-0.012404382228851318,0.03772377222776413,0.0700540542602539,9.229758262634277,-0.8037249445915222,-2.441976547241211
1413394883970760500,0.012041576206684113,0.013562394306063652,0.06741656363010406,9.114850997924805,-0.7323404550552368,-2.3195078372955322
1413394883975760500,0.027563728392124176,-0.0030839256942272186,0.07538110762834549,9.394194602966309,-0.19500519335269928,-2.622076988220215
1413394883980760500,0.024668529629707336,0.02587123028934002,0.10412541031837463,9.79612922668457,0.5297070145606995,-3.087228775024414
1413394883985760500,-0.008125975728034973,0.0435393825173378,0.10423918068408966,9.608104705810547,0.499252587556839,-2.8589229583740234
1413394883990760500,-0.019190043210983276,0.05540362000465393,0.08855804800987244,9.631709098815918,-0.3051155209541321,-2.638314723968506
1413394883995760500,-0.017912574112415314,0.04124296456575394,0.06320186704397202,9.099808692932129,-0.3933796286582947,-2.4097280502319336
1413394884000760500,-0.005448728799819946,0.00044854171574115753,0.05553482472896576,8.960769653320312,-0.5048426389694214,-2.360516309738159
1413394884005760500,0.005896568298339844,-0.024142608046531677,0.06273915618658066,9.532730102539062,-0.26943400502204895,-2.686882257461548
1413394884010760500,0.01070508360862732,0.011080214753746986,0.0917360782623291,9.909708023071289,0.34443238377571106,-3.0950381755828857
1413394884015760500,-0.0018842071294784546,0.0324430987238884,0.10564279556274414,9.575398445129395,0.38657477498054504,-2.794553756713867
1413394884020760500,-0.01924079656600952,0.04435200244188309,0.09901419281959534,9.615221977233887,0.05392354726791382,-2.6874914169311523
1413394884025760500,-0.02070162445306778,0.03783155977725983,0.08271010965108871,9.507966041564941,-0.3867741823196411,-2.5638251304626465
1413394884030760500,-0.002632640302181244,0.033242367208004,0.06524783372879028,9.058411598205566,-0.5623472332954407,-2.3850293159484863
1413394884035760500,0.01429496705532074,-0.0025096964091062546,0.06835582107305527,9.018500328063965,-0.35071516036987305,-2.385854959487915
1413394884040760500,0.014321818947792053,0.004173455759882927,0.08333232253789902,9.737730026245117,0.03395083546638489,-2.948105573654175
1413394884045760500,0.005771450698375702,0.040699563920497894,0.09864754229784012,9.583110809326172,0.38586485385894775,-2.900465965270996
1413394884050760500,-0.0033160820603370667,0.05117892473936081,0.10465411841869354,9.452381134033203,0.2645270824432373,-2.7369894981384277
1413394884055760500,-0.02699938416481018,0.049801118671894073,0.08135153353214264,9.378190040588379,-0.010356399230659008,-2.572514295578003
1413394884060760500,-0.020035944879055023,0.02719631977379322,0.06732986867427826,9.115568161010742,-0.31339123845100403,-2.539907455444336
1413394884065760500,-0.0018467754125595093,0.01072021760046482,0.06486162543296814,9.050189018249512,-0.5712957978248596,-2.345017910003662
1413394884070760500,0.010698467493057251,-0.010100474581122398,0.06717830896377563,9.378521919250488,-0.3089052438735962,-2.7932944297790527
1413394884075760500,0.015645593404769897,0.006396682932972908,0.0854233130812645,9.53419303894043,0.08364684879779816,-2.7777416706085205
1413394884080760500,0.009340092539787292,0.022741204127669334,0.09987562149763107,9.696990966796875,0.3374090790748596,-2.818514585494995
1413394884085760500,-0.006770089268684387,0.03714991360902786,0.09040705859661102,9.607338905334473,0.18344222009181976,-2.8091089725494385
1413394884090760500,-0.018546603620052338,0.04194796830415726,0.07506251335144043,9.516490936279297,-0.003762279637157917,-2.7025790214538574
1413394884095760500,-0.019238576292991638,0.027055179700255394,0.0682557001709938,9.385490417480469,-0.4058372676372528,-2.6870150566101074
1413394884100760500,-0.0018803849816322327,0.028375675901770592,0.06212427094578743,9.287978172302246,-0.47256579995155334,-2.524390459060669
1413394884105760500,0.010028168559074402,0.01661679707467556,0.07981116324663162,9.50086784362793,-0.21037569642066956,-2.7609403133392334
1413394884110760500,0.01140575110912323,0.02106417529284954,0.0936644971370697,9.599482536315918,0.10124019533395767,-2.7451651096343994
1413394884115760500,0.0008726269006729126,0.03936216980218887,0.092554472386837,9.713414192199707,0.217006653547287,-2.907588481903076
1413394884120760500,-0.014456570148468018,0.04129151254892349,0.08910761773586273,9.345297813415527,0.15092577040195465,-2.6953792572021484
1413394884125760500,-0.020678862929344177,0.03062864951789379,0.07727004587650299,9.402299880981445,-0.11956925690174103,-2.6539595127105713
1413394884130760500,-0.008799158036708832,0.02632732130587101,0.0759589746594429,9.263293266296387,-0.39789724349975586,-2.5405123233795166
1413394884135760500,0.006562680006027222,0.017971305176615715,0.07285063713788986,9.042889595031738,-0.4550974667072296,-2.5735738277435303
1413394884140760500,0.012087471783161163,-0.0028997771441936493,0.08459863066673279,9.256101608276367,-0.06358849257230759,-2.622832775115967
1413394884145760500,0.004365198314189911,0.0043565500527620316,0.09548140317201614,9.574967384338379,0.0844619944691658,-2.7854559421539307
1413394884150760500,-0.003987729549407959,0.02534732036292553,0.09331303834915161,9.720952987670898,0.1265154629945755,-2.817314863204956
1413394884155760500,-0.015076637268066406,0.03354614973068237,0.0856306329369545,9.394344329833984,0.14268799126148224,-2.7523062229156494
1413394884160760500,-0.019236691296100616,0.02723817341029644,0.08081663399934769,9.418811798095703,-0.14501850306987762,-2.638296127319336
1413394884165760500,-0.006043240427970886,0.029892107471823692,0.07049195468425751,9.401342391967773,-0.519905149936676,-2.6870851516723633
1413394884170760500,0.009978421032428741,0.02072332613170147,0.06788095086812973,9.149202346801758,-0.40536201000213623,-2.5980889797210693
1413394884175760500,0.015594668686389923,0.004838371649384499,0.08523157238960266,9.273043632507324,0.04320557415485382,-2.6798925399780273
1413394884180760500,0.0065335482358932495,0.016960250213742256,0.08982391655445099,9.688706398010254,0.07569807022809982,-2.834087610244751
1413394884185760500,-0.007466718554496765,0.03929055482149124,0.08353699743747711,9.728813171386719,0.1185169517993927,-2.980675220489502
1413394884190760500,-0.010225094854831696,0.04122412949800491,0.09138673543930054,9.378485679626465,0.16664043068885803,-2.6550629138946533
1413394884195760500,-0.01643950492143631,0.036964431405067444,0.08224622160196304,9.386034965515137,-0.04644528031349182,-2.6544878482818604
1413394884200760500,-0.013017803430557251,0.037563152611255646,0.06839953362941742,9.377054214477539,-0.46303170919418335,-2.5973122119903564
1413394884205760500,0.0029834508895874023,0.024920178577303886,0.06859830766916275,9.189912796020508,-0.41341128945350647,-2.704146146774292
1413394884210760500,0.013467453420162201,0.01319885067641735,0.08851028978824615,9.29764175415039,-0.06301750987768173,-2.5656657218933105
1413394884215760500,0.00582876056432724,0.007864570245146751,0.08772289752960205,9.607233047485352,0.08470126986503601,-2.8012232780456543
1413394884220760500,-0.0032328367233276367,0.025924107059836388,0.08442579954862595,9.639262199401855,0.109363853931427,-2.8257644176483154
1413394884225760500,-0.005346119403839111,0.027914850041270256,0.09201343357563019,9.533218383789062,0.0925612598657608,-2.8094582557678223
1413394884230760500,-0.009495258331298828,0.039787836372852325,0.07802487164735794,9.435222625732422,-0.054388221353292465,-2.6134965419769287
1413394884235760500,-0.009434066712856293,0.027899010106921196,0.07687410712242126,9.312150955200195,-0.22564516961574554,-2.5895400047302246
1413394884240760500,0.0037106499075889587,0.020074715837836266,0.0775490254163742,9.222688674926758,-0.35756492614746094,-2.5491108894348145
1413394884245760500,0.008518733084201813,0.012456769123673439,0.08632780611515045,9.427586555480957,-0.2507285475730896,-2.5570337772369385
1413394884250760500,0.0050968751311302185,-0.000647425651550293,0.08578569442033768,9.427675247192383,-0.08610346168279648,-2.565157175064087
1413394884255760500,-0.005299560725688934,0.02807358093559742,0.07879208028316498,9.769736289978027,-0.013351867906749249,-2.8175928592681885
1413394884260760500,-0.00819280743598938,0.03567655384540558,0.07661906629800797,9.181825637817383,0.02653229609131813,-2.5570075511932373
1413394884265760500,-0.006000615656375885,0.03070852719247341,0.07742726802825928,9.712815284729004,-0.08728682994842529,-2.727224349975586
1413394884270760500,-0.011591523885726929,0.029976634308695793,0.06635278463363647,9.279953956604004,-0.2007669061422348,-2.5403873920440674
1413394884275760500,-0.003995463252067566,0.02076643891632557,0.07262441515922546,8.986352920532227,-0.24293379485607147,-2.639354944229126
1413394884280760500,0.010659292340278625,0.011044012382626534,0.08304174244403839,9.337477684020996,-0.23510296642780304,-2.508100748062134
1413394884285760500,0.003701820969581604,-0.0033765826374292374,0.08709867298603058,9.493057250976562,-0.07799032330513,-2.6543760299682617
1413394884290760500,-0.00531342625617981,0.025341441854834557,0.08084499835968018,9.639519691467285,0.06878107041120529,-2.809884786605835
1413394884295760500,-0.0004402473568916321,0.02652997337281704,0.08927864581346512,9.271452903747559,-0.05546111240983009,-2.630496025085449
1413394884300760500,0.0016342997550964355,0.018117474392056465,0.08714129030704498,9.63898754119873,-0.06255889683961868,-2.8496570587158203
1413394884305760500,-0.00601176917552948,0.023727191612124443,0.07328855246305466,9.443363189697266,0.019976509734988213,-2.58947491645813
1413394884310760500,-0.011601060628890991,0.01725814677774906,0.07056358456611633,9.256142616271973,-0.11185430735349655,-2.744823932647705
1413394884315760500,-0.007534414529800415,0.009678903967142105,0.07874464988708496,9.362322807312012,-0.129368394613266,-2.524606227874756
1413394884320760500,-0.016585879027843475,-0.006124461069703102,0.08427556604146957,9.550047874450684,0.03568057715892792,-2.8176522254943848
1413394884325760500,-0.02692684531211853,0.026677584275603294,0.08509253710508347,9.566021919250488,0.011951573193073273,-2.8590970039367676
1413394884330760500,-0.02001120150089264,0.026529042050242424,0.09060892462730408,9.54108715057373,-0.31513258814811707,-2.8173086643218994
1413394884335760500,-0.000498749315738678,0.03068924881517887,0.09621524810791016,9.434349060058594,-0.3970308303833008,-2.743734359741211
1413394884340760500,0.005213350057601929,0.041966572403907776,0.07954785972833633,9.418190002441406,-0.2089449167251587,-2.589184284210205
1413394884345760500,0.014963135123252869,0.023544935509562492,0.06139246001839638,9.255546569824219,-0.26631027460098267,-2.6710383892059326
1413394884350760500,0.02675384283065796,0.010984228923916817,0.05648208037018776,9.173991203308105,-0.3403151333332062,-2.556831121444702
1413394884355760500,0.03025183081626892,0.009841011837124825,0.0613287128508091,9.3622465133667,0.26410067081451416,-2.7527005672454834
1413394884360760500,0.014310933649539948,0.021118441596627235,0.062098510563373566,9.411763191223145,0.3697493374347687,-2.9486536979675293
1413394884365760500,-0.001814812421798706,0.023091057315468788,0.07890010625123978,9.476011276245117,0.26400503516197205,-2.793396234512329
1413394884370760500,-0.01727927476167679,0.03495163470506668,0.07882797718048096,9.476330757141113,0.3125038146972656,-2.6221864223480225
1413394884375760500,-0.029165565967559814,0.03560689091682434,0.0850905030965805,9.15737533569336,0.1001969501376152,-2.5901732444763184
1413394884380760500,-0.03889516741037369,0.009540913626551628,0.09423261135816574,9.165139198303223,-0.22499485313892365,-2.7290756702423096
1413394884385760500,-0.03407006710767746,0.02085539512336254,0.08839929103851318,9.687813758850098,-0.5930203199386597,-2.7523536682128906
1413394884390760500,-0.003322780132293701,0.04126914590597153,0.10242870450019836,9.507951736450195,-0.6259986162185669,-2.6624557971954346
1413394884395760500,0.028232552111148834,0.033660873770713806,0.10251773148775101,9.303658485412598,-0.8052792549133301,-2.4914968013763428
1413394884400760500,0.050674766302108765,0.03081744723021984,0.0925753265619278,9.597844123840332,-0.28999459743499756,-2.604743003845215
1413394884405760500,0.045050665736198425,0.03971268981695175,0.07745784521102905,9.493313789367676,0.368632048368454,-2.6706550121307373
1413394884410760500,0.012842103838920593,0.026291711255908012,0.08445512503385544,9.42029094696045,0.7682077288627625,-2.8020589351654053
1413394884415760500,-0.0375223383307457,0.03620641678571701,0.051480360329151154,9.787833213806152,0.55058753490448,-3.078699827194214
1413394884420760500,-0.06059756129980087,0.04277870059013367,0.06359656900167465,9.084832191467285,-0.09407608211040497,-2.476266384124756
1413394884425760500,-0.04447125643491745,0.02309657447040081,0.07475724816322327,9.247087478637695,-0.7084457874298096,-2.426631212234497
1413394884430760500,-0.011684432625770569,0.01391698233783245,0.07996256649494171,9.393850326538086,-0.5761914253234863,-2.434333324432373
1413394884435760500,0.016283273696899414,-0.008435068652033806,0.09287572652101517,9.255455017089844,-0.07104422897100449,-2.5819125175476074
1413394884440760500,0.012822434306144714,0.003315696492791176,0.08587772399187088,9.826383590698242,0.19560480117797852,-2.9235334396362305
1413394884445760500,-0.001210629940032959,0.02723018266260624,0.09676061570644379,9.639562606811523,0.08353286981582642,-2.824831962585449
1413394884450760500,-0.0010659396648406982,0.04204957187175751,0.08936932682991028,9.56623649597168,-0.4609726071357727,-2.580821990966797
1413394884455760500,0.015843376517295837,0.02521771751344204,0.09420981258153915,9.230873107910156,-0.5189918279647827,-2.287398099899292
1413394884460760500,0.03040202707052231,0.011099880561232567,0.09480790048837662,9.011238098144531,-0.08879124373197556,-2.475377321243286
1413394884465760500,0.016327664256095886,0.005433252081274986,0.09769181907176971,9.6234130859375,0.3921282887458801,-2.834516763687134
1413394884470760500,-0.02714662253856659,0.017364060506224632,0.07111133635044098,9.681354522705078,0.688139021396637,-3.0954504013061523
1413394884475760500,-0.05160292237997055,0.03447696566581726,0.06900925189256668,9.452750205993652,0.2578235864639282,-2.802271842956543
1413394884480760500,-0.052123062312603,0.04561956971883774,0.05928070843219757,9.156251907348633,-0.8032639026641846,-2.410135507583618
1413394884485760500,-0.008111387491226196,0.00970601849257946,0.062078557908535004,8.885733604431152,-0.9255355000495911,-2.3855226039886475
1413394884490760500,0.030965052545070648,-0.0009080134332180023,0.08455066382884979,9.182098388671875,-0.16181547939777374,-2.6139702796936035
1413394884495760500,0.028867602348327637,0.0012310687452554703,0.092872254550457,9.56672477722168,0.49650970101356506,-3.062403440475464
1413394884500760500,-0.0011513754725456238,0.020955396816134453,0.09413658082485199,9.5094633102417,0.40835288166999817,-2.956725835800171
1413394884505760500,-0.007344968616962433,0.04499014467000961,0.09977275133132935,9.656048774719238,-0.028085047379136086,-2.809406280517578
1413394884510760500,0.004608184099197388,0.044262975454330444,0.09043154120445251,9.491447448730469,-0.7377729415893555,-2.6618950366973877
1413394884515760500,0.011565163731575012,0.04321187734603882,0.07388012111186981,9.033846855163574,-0.48580288887023926,-2.4428179264068604
1413394884520760500,0.02050880342721939,0.013689382001757622,0.08812294900417328,9.19836139678955,0.27077651023864746,-2.65537428855896
1413394884525760500,-0.009759239852428436,0.02493368647992611,0.0955677330493927,9.57476806640625,0.734516978263855,-3.021806001663208
1413394884530760500,-0.05025625228881836,0.03982354700565338,0.07733679562807083,9.468721389770508,0.19953911006450653,-2.8757591247558594
1413394884535760500,-0.04091645032167435,0.02457095868885517,0.08441668748855591,9.378314971923828,-0.7616739869117737,-2.6388025283813477
1413394884540760500,-0.003902614116668701,0.030892545357346535,0.06730026006698608,9.637847900390625,-0.8189485669136047,-2.6044652462005615
1413394884545760500,0.028141140937805176,0.01387372799217701,0.057793039828538895,8.84607982635498,-0.3247096836566925,-2.263291597366333
1413394884550760500,0.030400484800338745,-0.0023238062858581543,0.08267739415168762,9.581902503967285,0.1625780463218689,-2.9233131408691406
1413394884555760500,0.004467330873012543,0.03132088482379913,0.08936146646738052,9.591487884521484,0.7169358134269714,-2.74401593208313
1413394884560760500,-0.019334279000759125,0.036466337740421295,0.10107418894767761,9.281686782836914,0.38575688004493713,-2.688619613647461
1413394884565760500,-0.016261868178844452,0.02449529431760311,0.09488702565431595,9.87565803527832,-0.5082494020462036,-2.8664751052856445
1413394884570760500,-0.00456991046667099,0.0447235032916069,0.0736248791217804,9.410527229309082,-0.5654125809669495,-2.40116024017334
1413394884575760500,0.007005810737609863,0.016017237678170204,0.06897123157978058,8.928133964538574,-0.235593780875206,-2.5411264896392822
1413394884580760500,0.002974092960357666,0.021450703963637352,0.09022442996501923,9.6963472366333,0.3020704388618469,-2.678731918334961
1413394884585760500,-0.016609378159046173,0.0287101361900568,0.09626003354787827,9.280906677246094,0.40262311697006226,-2.761408805847168
1413394884590760500,-0.018593475222587585,0.023033784702420235,0.10467854142189026,9.231104850769043,-0.5440131425857544,-2.4847681522369385
1413394884595760500,-0.0017604231834411621,0.018772991374135017,0.07803218066692352,9.858766555786133,-0.7135111689567566,-2.8243157863616943
1413394884600760500,0.019734904170036316,0.02455808036029339,0.05621964484453201,9.133796691894531,-0.23257611691951752,-2.5162062644958496
1413394884605760500,0.018393084406852722,-0.000715179368853569,0.06134183704853058,9.255125999450684,0.15476450324058533,-2.622476577758789
1413394884610760500,0.003112509846687317,0.035502396523952484,0.06983767449855804,9.769990921020508,0.25299689173698425,-2.897972583770752
1413394884615760500,-0.012299291789531708,0.03931322693824768,0.09845270961523056,8.913348197937012,0.2970738410949707,-2.509066343307495
1413394884620760500,-0.022070959210395813,0.002738410606980324,0.11185573041439056,9.28049373626709,-0.04471437260508537,-2.721194267272949
1413394884625760500,-0.017923787236213684,0.025762682780623436,0.0800447016954422,9.75313949584961,-0.4531745910644531,-2.8005354404449463
1413394884630760500,-0.008997991681098938,0.01886461116373539,0.06818985939025879,9.296001434326172,-0.33891797065734863,-2.7201027870178223
1413394884635760500,-0.004052579402923584,0.006822450086474419,0.06197131797671318,9.475175857543945,-0.20996776223182678,-2.671171188354492
1413394884640760500,-0.0031873583793640137,0.04770112782716751,0.0744263306260109,9.68014907836914,0.08283118903636932,-2.6941630840301514
1413394884645760500,0.007315255701541901,0.0364699587225914,0.10915575921535492,8.830936431884766,-0.047465309500694275,-2.5332367420196533
1413394884650760500,0.009404875338077545,0.011620596051216125,0.09642994403839111,9.826346397399902,-0.32378363609313965,-2.8254897594451904
1413394884655760500,0.009935304522514343,0.02789614163339138,0.07584375143051147,9.623862266540527,-0.0592898353934288,-2.931283950805664
1413394884660760500,0.003007762134075165,0.02798517979681492,0.06411483138799667,9.370497703552246,0.011208200827240944,-2.7612287998199463
1413394884665760500,-0.012295186519622803,0.02643621899187565,0.05828846991062164,9.556843757629395,0.130846306681633,-2.858248710632324
1413394884670760500,-0.006642386317253113,0.04910660535097122,0.08290277421474457,9.477030754089355,0.010772734880447388,-2.6787867546081543
1413394884675760500,0.009376809000968933,0.034956298768520355,0.11834872514009476,9.034482955932617,-0.15856510400772095,-2.4761030673980713
1413394884680760500,-0.0026317983865737915,0.008758118376135826,0.09498049318790436,9.230585098266602,-0.13547079265117645,-2.541166305541992
1413394884685760500,-0.01040232926607132,0.00830802135169506,0.07317519187927246,9.656475067138672,0.05948442220687866,-2.923651695251465
1413394884690760500,-0.01664046198129654,0.024394704028964043,0.05916059389710426,9.491716384887695,-0.23317912220954895,-2.752875566482544
1413394884695760500,-0.017211243510246277,0.018876055255532265,0.054580651223659515,9.328507423400879,-0.4374856948852539,-2.4996209144592285
1413394884700760500,0.010941773653030396,0.03306613117456436,0.0886150449514389,9.460455894470215,-0.22714582085609436,-2.6050238609313965
1413394884705760500,0.031107068061828613,0.028640741482377052,0.11000370234251022,9.099763870239258,0.07354330271482468,-2.524554967880249
1413394884710760500,0.005694836378097534,0.013051019981503487,0.08937542885541916,9.272236824035645,0.2964581549167633,-2.6146483421325684
1413394884715760500,-0.019417889416217804,0.022302722558379173,0.07052954286336899,9.894079208374023,0.34732717275619507,-2.8008296489715576
1413394884720760500,-0.04170021414756775,0.04125867784023285,0.05760706216096878,9.524579048156738,-0.17640791833400726,-2.8832526206970215
1413394884725760500,-0.030468977987766266,0.030101971700787544,0.059465859085321426,9.124214172363281,-0.7084863185882568,-2.362105131149292
1413394884730760500,0.016519948840141296,0.03219865262508392,0.09076391905546188,9.753155708312988,-0.5669686198234558,-2.8979578018188477
1413394884735760500,0.03306223452091217,0.04467959702014923,0.0988023579120636,8.912155151367188,0.07624678313732147,-2.3941824436187744
1413394884740760500,0.011874943971633911,0.0019198041409254074,0.09572948515415192,9.18242359161377,0.2699965536594391,-2.7211432456970215
1413394884745760500,-0.018709734082221985,0.010378584265708923,0.06840385496616364,9.87728500366211,0.21438728272914886,-2.9964094161987305
1413394884750760500,-0.03188055008649826,0.0329224094748497,0.05602516978979111,9.606651306152344,-0.24869830906391144,-2.7112720012664795
1413394884755760500,-0.01078750193119049,0.012534530833363533,0.0707937628030777,9.042838096618652,-0.6989349722862244,-2.4027459621429443
1413394884760760500,0.025660529732704163,0.010539183393120766,0.09703260660171509,9.916411399841309,-0.43788087368011475,-2.9138894081115723
1413394884765760500,0.033031851053237915,0.04831164330244064,0.10783442854881287,9.288086891174316,0.5390651822090149,-2.7036075592041016
1413394884770760500,-0.006961241364479065,0.015205634757876396,0.097940593957901,8.94542121887207,0.6536756157875061,-2.5345489978790283
1413394884775760500,-0.03960593044757843,0.01943218894302845,0.08701027184724808,9.795356750488281,0.07039544731378555,-2.971904754638672
1413394884780760500,-0.04237079620361328,0.03723398596048355,0.06782981008291245,9.22227954864502,-0.654941976070404,-2.499762535095215
1413394884785760500,-0.0003730952739715576,-0.006429798901081085,0.07091982662677765,9.164257049560547,-0.9122037887573242,-2.4430992603302
1413394884790760500,0.039498843252658844,0.006151625886559486,0.07824575155973434,9.752975463867188,-0.4308067560195923,-2.9467296600341797
1413394884795760500,0.039328888058662415,0.04983694106340408,0.08616722375154495,9.582281112670898,0.4987819492816925,-2.8253910541534424
1413394884800760500,0.0008514150977134705,0.03563666343688965,0.09585577249526978,9.042945861816406,0.8248893618583679,-2.6564297676086426
1413394884805760500,-0.038139909505844116,0.029291467741131783,0.06812621653079987,9.698198318481445,0.0683092474937439,-2.7435710430145264
1413394884810760500,-0.03532562404870987,0.036373890936374664,0.0693097785115242,9.0756254196167,-0.6384322643280029,-2.499727487564087
1413394884815760500,-0.004606112837791443,0.0032199975103139877,0.07103913277387619,9.132040023803711,-0.698142409324646,-2.6394004821777344
1413394884820760500,0.03311969339847565,0.01598428748548031,0.09075960516929626,10.096474647521973,-0.031189821660518646,-3.093783378601074
1413394884825760500,0.019752860069274902,0.06808624416589737,0.09392806142568588,9.29671573638916,0.6781298518180847,-2.703904867172241
1413394884830760500,-0.011697866022586823,0.037740133702754974,0.10000798106193542,9.091158866882324,0.3442321717739105,-2.6154932975769043
1413394884835760500,-0.034642115235328674,0.024346088990569115,0.07498228549957275,9.42795467376709,-0.09340083599090576,-2.638134002685547
1413394884840760500,-0.022816844284534454,0.025044439360499382,0.06936585903167725,9.271309852600098,-0.6957582235336304,-2.523975372314453
1413394884845760500,0.005166247487068176,-0.004563532769680023,0.06477442383766174,9.311149597167969,-0.7890593409538269,-2.728116512298584
1413394884850760500,0.026803582906723022,0.023059917613863945,0.06210216507315636,9.982807159423828,-0.10575027018785477,-2.930619716644287
1413394884855760500,0.021922945976257324,0.05910731106996536,0.08546935766935349,9.256306648254395,0.7586426734924316,-2.671335220336914
1413394884860760500,-0.010183185338973999,0.0329011008143425,0.09018495678901672,9.35342788696289,0.32783928513526917,-2.6229851245880127
1413394884865760500,-0.03248898684978485,0.036877959966659546,0.0841435045003891,9.338613510131836,0.01310412585735321,-2.3044917583465576
1413394884870760500,-0.025000393390655518,0.0019367523491382599,0.07868361473083496,8.994136810302734,-0.4517417252063751,-2.53273868560791
1413394884875760500,0.00012997537851333618,-0.008074991405010223,0.07365317642688751,9.669695854187012,-0.8875983953475952,-2.7349298000335693
1413394884880760500,0.019061744213104248,0.024474849924445152,0.07454445213079453,9.81078052520752,-0.46253082156181335,-2.9391067028045654
1413394884885760500,0.02616359293460846,0.04860449582338333,0.10296306014060974,9.158548355102539,0.4573894143104553,-2.5906596183776855
1413394884890760500,0.002399444580078125,0.024556947872042656,0.10334014147520065,9.1165771484375,0.15474537014961243,-2.3944783210754395
1413394884895760500,-0.017259225249290466,0.02434575743973255,0.09326642006635666,9.182698249816895,-0.1585390865802765,-2.410290241241455
1413394884900760500,-0.013830415904521942,0.002576131373643875,0.08431502431631088,9.182133674621582,-0.2965245842933655,-2.565133571624756
1413394884905760500,0.001497030258178711,-0.006614509969949722,0.07915228605270386,9.801737785339355,-0.7741268277168274,-2.9958999156951904
1413394884910760500,0.0030680373311042786,0.03306274861097336,0.06551486998796463,9.590838432312012,-0.17624352872371674,-2.92388916015625
1413394884915760500,0.012920558452606201,0.045062847435474396,0.08473795652389526,9.27214527130127,0.1067991778254509,-2.590373992919922
1413394884920760500,0.007991284132003784,0.030028795823454857,0.09703104943037033,9.345123291015625,0.28542301058769226,-2.646780490875244
1413394884925760500,-0.008237481117248535,0.034869514405727386,0.08918935805559158,9.183387756347656,0.1594720333814621,-2.5654456615448
1413394884930760500,-0.022174589335918427,0.010962072759866714,0.0739440843462944,9.287666320800781,-0.1970217376947403,-2.777341604232788
1413394884935760500,-0.011070936918258667,0.017946308478713036,0.07295234501361847,9.801733016967773,-0.4372294843196869,-2.9716646671295166
1413394884940760500,-0.0025596097111701965,0.04557105153799057,0.06470540910959244,9.541787147521973,-0.242608904838562,-2.8912532329559326
1413394884945760500,0.010220915079116821,0.046331487596035004,0.07490644603967667,9.19789981842041,-0.11423951387405396,-2.5660181045532227
1413394884950760500,0.01366327702999115,0.023735659196972847,0.0985574796795845,9.475663185119629,0.1153939962387085,-2.7360827922821045
1413394884955760500,0.0028541386127471924,0.03972042351961136,0.09128740429878235,9.239882469177246,0.10929324477910995,-2.4589412212371826
1413394884960760500,-0.013130225241184235,0.010957203805446625,0.08575207740068436,9.279777526855469,0.04709964618086815,-2.8832600116729736
1413394884965760500,-0.014425776898860931,0.008940180763602257,0.08566552400588989,9.72991943359375,-0.01220982987433672,-3.021078586578369
1413394884970760500,-0.01583116501569748,0.036491960287094116,0.06735370308160782,9.443552017211914,-0.40655162930488586,-2.7934908866882324
1413394884975760500,-0.0010494887828826904,0.03916197270154953,0.07477273792028427,9.278972625732422,-0.3330203592777252,-2.4924581050872803
1413394884980760500,0.017111167311668396,0.025119846686720848,0.0937170535326004,9.50855827331543,-0.2179371565580368,-2.6702351570129395
1413394884985760500,0.021792054176330566,0.033570967614650726,0.09266448765993118,9.264039039611816,0.05212217941880226,-2.4017438888549805
1413394884990760500,0.003659069538116455,0.01796993799507618,0.08648765832185745,9.450940132141113,0.01164111029356718,-2.7444443702697754
1413394884995760500,-0.008140265941619873,0.024272067472338676,0.07738316059112549,9.469015121459961,0.21624524891376495,-2.695770263671875
1413394885000760500,-0.022146977484226227,0.026664255186915398,0.07707566767930984,9.501214981079102,-0.10350978374481201,-2.712642192840576
1413394885005760500,-0.019277997314929962,0.033604495227336884,0.07049582898616791,9.516106605529785,-0.3577177822589874,-2.744631767272949
1413394885010760500,-0.0003330111503601074,0.03835298866033554,0.07771075516939163,9.231250762939453,-0.34998074173927307,-2.3771579265594482
1413394885015760500,0.016936838626861572,0.027278879657387733,0.08648823201656342,9.361615180969238,-0.1765831559896469,-2.6134033203125
1413394885020760500,0.018302902579307556,0.017365658655762672,0.08576060086488724,9.263416290283203,-0.03760877624154091,-2.5487186908721924
1413394885025760500,0.004448890686035156,0.015272587537765503,0.08436978608369827,9.379173278808594,0.24837331473827362,-2.6310954093933105
1413394885030760500,-0.009561941027641296,0.006225032731890678,0.0856083482503891,9.672552108764648,0.0596892312169075,-2.875343084335327
1413394885035760500,-0.01725941151380539,0.02794349379837513,0.08919703960418701,9.565716743469238,-0.2093152105808258,-2.744321823120117
1413394885040760500,-0.008736297488212585,0.0322704017162323,0.08382517099380493,9.435065269470215,-0.446106880903244,-2.6136653423309326
1413394885045760500,0.008682921528816223,0.0168305654078722,0.08102276921272278,9.353299140930176,-0.37406960129737854,-2.563925266265869
1413394885050760500,0.021139442920684814,0.022203566506505013,0.08296394348144531,9.451177597045898,-0.2092883139848709,-2.6541638374328613
1413394885055760500,0.01976785808801651,0.006889244541525841,0.08778249472379684,9.378576278686523,0.06065522879362106,-2.70461106300354
1413394885060760500,-0.002564743161201477,0.015266027301549911,0.08292168378829956,9.395410537719727,0.39513301849365234,-2.8104641437530518
1413394885065760500,-0.022138506174087524,0.023857170715928078,0.08226983994245529,9.623509407043457,0.2057780772447586,-2.9482762813568115
1413394885070760500,-0.027694635093212128,0.03507933020591736,0.08164921402931213,9.631145477294922,-0.19265098869800568,-2.7928884029388428
1413394885075760500,-0.013683319091796875,0.03636510670185089,0.07190404832363129,9.393647193908691,-0.4701818525791168,-2.6538608074188232
1413394885080760500,0.0037705600261688232,0.03277452290058136,0.07676754891872406,9.132305145263672,-0.3483685851097107,-2.475153923034668
1413394885085760500,0.021882720291614532,0.0201453547924757,0.08225953578948975,9.1898193359375,-0.12038232386112213,-2.6306381225585938
1413394885090760500,0.02048051357269287,0.012380829080939293,0.08777914941310883,9.533344268798828,0.14983133971691132,-2.736778736114502
1413394885095760500,-0.004694461822509766,0.022392140701413155,0.08304239809513092,9.30566692352295,0.4108235836029053,-2.6717233657836914
1413394885100760500,-0.022784769535064697,0.023817894980311394,0.08723536133766174,9.672550201416016,0.10929857194423676,-2.9889800548553467
1413394885105760500,-0.02838071435689926,0.043418750166893005,0.08436156064271927,9.475349426269531,-0.20069155097007751,-2.695003032684326
1413394885110760500,-0.017899684607982635,0.03499867022037506,0.07530952990055084,9.238649368286133,-0.5195754766464233,-2.572723388671875
1413394885115760500,0.0037958845496177673,0.01934521086513996,0.07880537211894989,9.18969440460205,-0.4391358494758606,-2.393548011779785
1413394885120760500,0.021857187151908875,0.01519843004643917,0.07802260667085648,9.467450141906738,-0.3891792297363281,-2.638247013092041
1413394885125760500,0.023929551243782043,0.020889928564429283,0.0844210609793663,9.549723625183105,0.15014493465423584,-2.753286123275757
1413394885130760500,-0.00046225637197494507,0.022410212084650993,0.08029859513044357,9.37112808227539,0.34565848112106323,-2.745047092437744
1413394885135760500,-0.017885051667690277,0.03577623516321182,0.08639579266309738,9.803135871887207,-0.01298511028289795,-2.947608709335327
1413394885140760500,-0.027012616395950317,0.041299521923065186,0.07875251770019531,9.385886192321777,-0.22503983974456787,-2.581132650375366
1413394885145760500,-0.01439511775970459,0.037594206631183624,0.07464749366044998,9.271641731262207,-0.39780551195144653,-2.6545441150665283
1413394885150760500,0.0030923113226890564,0.024988384917378426,0.08445828408002853,9.051159858703613,-0.44801515340805054,-2.2472081184387207
1413394885155760500,0.019723571836948395,0.001979617401957512,0.08504635840654373,9.459503173828125,-0.39697667956352234,-2.6139779090881348
1413394885160760500,0.01974712312221527,0.013183413073420525,0.08370095491409302,9.688759803771973,0.1171339601278305,-2.7121036052703857
1413394885165760500,0.004405796527862549,0.022444704547524452,0.08374263346195221,9.28956127166748,0.3939375579357147,-2.5983805656433105
1413394885170760500,-0.01576332002878189,0.021102802827954292,0.08709222078323364,9.721175193786621,0.14989376068115234,-2.939764976501465
1413394885175760500,-0.02560080587863922,0.03571953624486923,0.078767329454422,9.52473258972168,-0.045595962554216385,-2.654024839401245
1413394885180760500,-0.013701751828193665,0.031326644122600555,0.08446086943149567,9.369998931884766,-0.3568202257156372,-2.7033028602600098
1413394885185760500,0.000265754759311676,0.031216485425829887,0.07395520061254501,8.977594375610352,-0.4390227496623993,-2.369647979736328
1413394885190760500,0.018371284008026123,0.002063686028122902,0.08639876544475555,9.606289863586426,-0.4048699736595154,-2.7928881645202637
1413394885195760500,0.02257368713617325,0.01473715715110302,0.08379276096820831,9.525498390197754,0.16581271588802338,-2.7289862632751465
1413394885200760500,0.0057945698499679565,0.021634800359606743,0.082957923412323,9.207366943359375,0.3133672773838043,-2.7207651138305664
1413394885205760500,-0.021382898092269897,0.01473151333630085,0.0871686190366745,9.541748046875,0.2641890347003937,-2.9318182468414307
1413394885210760500,-0.026294156908988953,0.022499041631817818,0.07740218192338943,9.606412887573242,-0.022038472816348076,-2.6865739822387695
1413394885215760500,-0.024194948375225067,0.036219269037246704,0.07943712174892426,9.532724380493164,-0.31562507152557373,-2.8990070819854736
1413394885220760500,-0.01020815223455429,0.03823556751012802,0.07476139813661575,8.912301063537598,-0.5601738095283508,-2.296380043029785
1413394885225760500,0.018428444862365723,0.008360011503100395,0.08781825006008148,9.426532745361328,-0.5031228065490723,-2.6951863765716553
1413394885230760500,0.023911699652671814,0.014036165550351143,0.07384470105171204,9.597973823547363,-0.2106870710849762,-2.630223035812378
1413394885235760500,0.022580742835998535,0.020913714542984962,0.08514882624149323,9.493086814880371,0.2647845447063446,-2.891329288482666
1413394885240760500,0.0010566562414169312,0.02576184831559658,0.08582913875579834,9.362675666809082,0.40342387557029724,-2.809950113296509
1413394885245760500,-0.024209514260292053,0.03305959701538086,0.084307461977005,9.67172622680664,0.14899347722530365,-2.8087573051452637
1413394885250760500,-0.027738943696022034,0.046104513108730316,0.0802416205406189,9.50017261505127,-0.20970551669597626,-2.9072232246398926
1413394885255760500,-0.014393702149391174,0.03821565955877304,0.07676897943019867,8.912538528442383,-0.5515245199203491,-2.4514706134796143
1413394885260760500,0.009282447397708893,0.009620444849133492,0.08642116189002991,9.181735038757324,-0.4454416334629059,-2.5734634399414062
1413394885265760500,0.017654359340667725,0.011213451623916626,0.07392852753400803,9.556912422180176,-0.35783591866493225,-2.6709744930267334
1413394885270760500,0.024682871997356415,0.014674404636025429,0.08789387345314026,9.565876007080078,0.08446681499481201,-2.760751962661743
1413394885275760500,0.005119621753692627,0.021641680970788002,0.08718216419219971,9.5018892288208,0.30486437678337097,-2.6306285858154297
1413394885280760500,-0.019262664020061493,0.030894232913851738,0.08016539365053177,9.582446098327637,0.29672926664352417,-2.7601499557495117
1413394885285760500,-0.030423328280448914,0.03284174203872681,0.07395805418491364,9.557197570800781,-0.06317310035228729,-2.7605903148651123
1413394885290760500,-0.015868529677391052,0.04239651560783386,0.08510151505470276,9.239304542541504,-0.33958306908607483,-2.50820255279541
1413394885295760500,-0.0032473355531692505,0.027784673497080803,0.07664927840232849,9.15790843963623,-0.4705178737640381,-2.5243539810180664
1413394885300760500,0.017699725925922394,0.014020556584000587,0.08442774415016174,9.393877983093262,-0.4469073712825775,-2.5486981868743896
1413394885305760500,0.024664446711540222,0.009126154705882072,0.08513852953910828,9.467721939086914,0.027142707258462906,-2.6714601516723633
1413394885310760500,0.01067332923412323,0.020911315456032753,0.08921091258525848,9.550769805908203,0.4356960952281952,-2.8181302547454834
1413394885315760500,-0.01785203069448471,0.01819881983101368,0.08098927140235901,9.394722938537598,0.27165523171424866,-2.736198663711548
1413394885320760500,-0.02767845243215561,0.02730025164783001,0.08226427435874939,9.794012069702148,-0.09550397843122482,-2.931321620941162
1413394885325760500,-0.017262190580368042,0.04398695379495621,0.08776894956827164,9.329092979431152,-0.19260349869728088,-2.556793451309204
1413394885330760500,-0.00320608913898468,0.036147840321063995,0.0844300389289856,9.23144817352295,-0.4707958400249481,-2.5406923294067383
1413394885335760500,0.009379565715789795,0.013937070965766907,0.07122211158275604,9.108038902282715,-0.5037415623664856,-2.492147445678711
1413394885340760500,0.02668537199497223,0.003522297367453575,0.08154189586639404,9.549177169799805,-0.2673742175102234,-2.744300127029419
1413394885345760500,0.026040375232696533,0.010391771793365479,0.08719983696937561,9.305021286010742,0.264192670583725,-2.777501344680786
1413394885350760500,0.0003438889980316162,0.028659960255026817,0.08578670769929886,9.550556182861328,0.32110607624053955,-2.597346067428589
1413394885355760500,-0.025577448308467865,0.02324867434799671,0.08300083875656128,9.712382316589355,0.01139475591480732,-2.931194305419922
1413394885360760500,-0.028487801551818848,0.05452606827020645,0.08574637770652771,9.516487121582031,-0.2259342074394226,-2.735949754714966
1413394885365760500,-0.012362882494926453,0.04173582047224045,0.09207381308078766,9.116823196411133,-0.24131280183792114,-2.606266975402832
1413394885370760500,-0.004570484161376953,0.028469445183873177,0.07609189301729202,9.043221473693848,-0.528512716293335,-2.3533878326416016
1413394885375760500,0.01765395700931549,0.0014190059155225754,0.08641546964645386,9.368999481201172,-0.4464631974697113,-2.6299843788146973
1413394885380760500,0.03225623816251755,0.01324504241347313,0.08713008463382721,9.467955589294434,-0.20959778130054474,-2.687490940093994
1413394885385760500,0.015643499791622162,0.018876055255532265,0.08791832625865936,9.558684349060059,0.4521830379962921,-2.866873025894165
1413394885390760500,-0.012916505336761475,0.02734978310763836,0.07889948785305023,9.50117301940918,0.34413981437683105,-2.597585439682007
1413394885395760500,-0.02768835425376892,0.03646115958690643,0.07386624813079834,9.736595153808594,-0.006429615896195173,-2.8658411502838135
1413394885400760500,-0.021489165723323822,0.04240871220827103,0.08154292404651642,9.280277252197266,-0.1507384479045868,-2.6222641468048096
1413394885405760500,-0.017182886600494385,0.03263208270072937,0.08230955898761749,9.264293670654297,-0.25762248039245605,-2.6634604930877686
1413394885410760500,-0.0046127960085868835,0.025160329416394234,0.07885442674160004,9.058984756469727,-0.5536041855812073,-2.378085136413574
1413394885415760500,0.018261082470417023,0.006345493718981743,0.08440528810024261,9.418396949768066,-0.4873831570148468,-2.7605557441711426
1413394885420760500,0.026034638285636902,0.009785512462258339,0.08720260858535767,9.517486572265625,0.11026164889335632,-2.7199349403381348
1413394885425760500,0.004578083753585815,0.013943957164883614,0.0857546329498291,9.509737968444824,0.4673513174057007,-2.7364108562469482
1413394885430760500,-0.02205810695886612,0.028699414804577827,0.07252996414899826,9.679691314697266,0.1070016473531723,-2.8416836261749268
1413394885435760500,-0.01939484477043152,0.03561495244503021,0.0808868333697319,9.50833797454834,-0.02929878793656826,-2.8501265048980713
1413394885440760500,-0.013732567429542542,0.03553634136915207,0.07877451181411743,9.354310989379883,-0.10916072130203247,-2.7200915813446045
1413394885445760500,-0.011515229940414429,0.03902959078550339,0.08442511409521103,9.231353759765625,-0.29939723014831543,-2.6061995029449463
1413394885450760500,0.0009349063038825989,0.015380175784230232,0.07679112255573273,9.197819709777832,-0.5703437328338623,-2.6141483783721924
1413394885455760500,0.021732166409492493,0.00558609701693058,0.08710137009620667,9.361351013183594,-0.3075087368488312,-2.6060450077056885
1413394885460760500,0.01699889451265335,0.013270622119307518,0.08296147733926773,9.460515022277832,0.28225427865982056,-2.6710822582244873
1413394885465760500,-0.002414003014564514,0.01673334278166294,0.08233692497015,9.549654006958008,0.24617138504981995,-2.703378200531006
1413394885470760500,-0.021404951810836792,0.032866738736629486,0.07396287471055984,9.5325927734375,0.0008824676624499261,-2.6626033782958984
1413394885475760500,-0.013867951929569244,0.033510029315948486,0.08227071911096573,9.426956176757812,-0.1266227513551712,-2.695448160171509
1413394885480760500,-0.008081533014774323,0.02855711244046688,0.08296366780996323,9.296891212463379,-0.1989665925502777,-2.695584297180176
1413394885485760500,-0.0017560720443725586,0.032013893127441406,0.08578673750162125,9.255611419677734,-0.37431034445762634,-2.500070333480835
1413394885490760500,0.01064346730709076,0.00844239629805088,0.09139890223741531,9.173707962036133,-0.4402330815792084,-2.5976991653442383
1413394885495760500,0.021069422364234924,0.008411230519413948,0.09270726144313812,9.516901016235352,-0.1752500683069229,-2.7849791049957275
1413394885500760500,0.010751217603683472,0.007693111896514893,0.0850989893078804,9.38675308227539,0.2336488962173462,-2.8425419330596924
1413394885505760500,-0.005243420600891113,0.02510414831340313,0.07747982442378998,9.549735069274902,0.20469620823860168,-2.736438751220703
1413394885510760500,-0.015134215354919434,0.04052218794822693,0.07459495961666107,9.622719764709473,0.09122353792190552,-2.7274699211120605
1413394885515760500,-0.01384049654006958,0.03564866632223129,0.07734420895576477,9.427072525024414,-0.19901473820209503,-2.777144432067871
1413394885520760500,-0.011574283242225647,0.030661189928650856,0.07603707909584045,9.25562858581543,-0.2650429308414459,-2.7042884826660156
1413394885525760500,0.005182020366191864,0.03338182717561722,0.08161674439907074,9.312827110290527,-0.2767097055912018,-2.6875739097595215
1413394885530760500,0.011337414383888245,0.01472395844757557,0.08723026514053345,9.108466148376465,-0.1697753518819809,-2.565354824066162
1413394885535760500,0.008560612797737122,0.006316611543297768,0.08505763113498688,9.647408485412598,-0.15842901170253754,-2.817537784576416
1413394885540760500,0.003801010549068451,0.02235868014395237,0.07672929763793945,9.54153060913086,0.1255546361207962,-2.6299479007720947
1413394885545760500,-0.005996838212013245,0.03138810396194458,0.07465807348489761,9.582273483276367,0.25367623567581177,-2.8583624362945557
1413394885550760500,-0.019324280321598053,0.03067278303205967,0.0774010494351387,9.369978904724121,0.2227836549282074,-2.589792013168335
1413394885555760500,-0.0186222642660141,0.027271447703242302,0.07177066802978516,9.54942798614502,-0.23991189897060394,-2.8011462688446045
1413394885560760500,-0.006039217114448547,0.03269514441490173,0.08303739130496979,9.190011024475098,-0.36445680260658264,-2.597853422164917
1413394885565760500,0.005119360983371735,0.03344142436981201,0.08995767682790756,9.329272270202637,-0.27624332904815674,-2.5489766597747803
1413394885570760500,0.007921643555164337,0.018294682726264,0.09831564873456955,9.165897369384766,-0.2507482171058655,-2.3616929054260254
1413394885575760500,0.011392921209335327,0.011226769536733627,0.07530219852924347,9.769219398498535,-0.3142266273498535,-2.735229015350342
1413394885580760500,0.008596077561378479,0.022221865132451057,0.07605620473623276,9.492453575134277,0.17362312972545624,-2.7035417556762695
1413394885585760500,-0.01155330240726471,0.025732314214110374,0.07183893024921417,9.59123420715332,0.30285799503326416,-2.858769416809082
1413394885590760500,-0.022091291844844818,0.03774669021368027,0.07598060369491577,9.45984935760498,0.10894174873828888,-2.638333797454834
1413394885595760500,-0.017281949520111084,0.030826745554804802,0.07392275333404541,9.418863296508789,-0.3548867702484131,-2.662616491317749
1413394885600760500,-0.0032528191804885864,0.030644262209534645,0.09066344052553177,9.28898811340332,-0.17680563032627106,-2.6062138080596924
1413394885605760500,0.0016925930976867676,0.024357853457331657,0.08854323625564575,9.255940437316895,-0.21036437153816223,-2.6387856006622314
1413394885610760500,0.007875010371208191,0.01401481218636036,0.0948949009180069,9.312044143676758,-0.39802438020706177,-2.565135955810547
1413394885615760500,0.010616518557071686,0.006989931687712669,0.0788392573595047,9.42638111114502,-0.2979251444339752,-2.6871910095214844
1413394885620760500,0.011436201632022858,0.013191966339945793,0.08084791898727417,9.533669471740723,0.12548023462295532,-2.7524447441101074
1413394885625760500,-0.0045473575592041016,0.029305508360266685,0.07815288007259369,9.50882625579834,0.11644980311393738,-2.7850944995880127
1413394885630760500,-0.01655244082212448,0.026575693860650063,0.08299008011817932,9.40266227722168,-0.03085854835808277,-2.6709694862365723
1413394885635760500,-0.008900672197341919,0.025871342048048973,0.08642088621854782,9.443276405334473,-0.31477025151252747,-2.7929625511169434
1413394885640760500,-0.001867346465587616,0.029978366568684578,0.0920560285449028,9.26434326171875,-0.16713528335094452,-2.6630160808563232
1413394885645760500,-0.0018158704042434692,0.019474195316433907,0.09548567235469818,9.378250122070312,-0.27531909942626953,-2.5407874584198
1413394885650760500,0.0037177950143814087,0.011935664340853691,0.09345454722642899,9.38580322265625,-0.30978235602378845,-2.467209815979004
1413394885655760500,0.009229332208633423,0.013264680281281471,0.07747278362512589,9.467201232910156,-0.2654799520969391,-2.670891761779785
1413394885660760500,0.008609771728515625,0.015309203416109085,0.07395023852586746,9.516955375671387,0.12695515155792236,-2.7443840503692627
1413394885665760500,-0.008026793599128723,0.032083168625831604,0.07110592722892761,9.688558578491211,0.21419912576675415,-2.8580946922302246
1413394885670760500,-0.01724264770746231,0.03989248722791672,0.07528458535671234,9.214913368225098,0.0004341512976679951,-2.5489110946655273
1413394885675760500,-0.015200428664684296,0.027952304109930992,0.08157417923212051,9.541464805603027,-0.1999167799949646,-2.7770159244537354
1413394885680760500,-0.0102287158370018,0.028562506660819054,0.07881347835063934,9.207162857055664,-0.1261679083108902,-2.655092716217041
1413394885685760500,0.0009970217943191528,0.02368049882352352,0.08719637989997864,9.214853286743164,-0.2436983436346054,-2.581796884536743
1413394885690760500,0.009987644851207733,0.025849411264061928,0.08168390393257141,9.336408615112305,-0.3746183216571808,-2.5158843994140625
1413394885695760500,0.0064474716782569885,0.013351215049624443,0.07601116597652435,9.549365043640137,-0.10104239732027054,-2.7441093921661377
1413394885700760500,0.0023363903164863586,0.01604912243783474,0.07880103588104248,9.582437515258789,0.12575192749500275,-2.695629119873047
1413394885705760500,-0.007380574941635132,0.027783604338765144,0.07318882644176483,9.394460678100586,0.05835289880633354,-2.6467607021331787
1413394885710760500,-0.01305968314409256,0.029280448332428932,0.07456379383802414,9.37807559967041,-0.18530604243278503,-2.784891128540039
1413394885715760500,-0.012345381081104279,0.02943812869489193,0.08511534333229065,9.459939002990723,-0.0926886722445488,-2.711846351623535
1413394885720760500,-0.0018535777926445007,0.02514505572617054,0.08994089066982269,9.264264106750488,-0.192765474319458,-2.638472557067871
1413394885725760500,-0.0004528835415840149,0.02786167524755001,0.0885617658495903,9.296607971191406,-0.22800835967063904,-2.4592998027801514
1413394885730760500,0.009299755096435547,0.01955357752740383,0.0872764065861702,9.41023063659668,-0.1528998166322708,-2.671037197113037
1413394885735760500,0.0023354440927505493,0.02168341539800167,0.07599272578954697,9.443379402160645,0.04520605877041817,-2.557382106781006
1413394885740760500,-0.0019018501043319702,0.01323762722313404,0.08226098865270615,9.467893600463867,0.0033089250791817904,-2.7115402221679688
1413394885745760500,-0.009486265480518341,0.03197736293077469,0.08440691977739334,9.508694648742676,-0.015113810077309608,-2.6055665016174316
1413394885750760500,-0.015863612294197083,0.029377812519669533,0.08076196908950806,9.508679389953613,-0.09540219604969025,-2.8340115547180176
1413394885755760500,-0.010960161685943604,0.030070098116993904,0.08023525774478912,9.272486686706543,-0.1099090576171875,-2.5981669425964355
1413394885760760500,0.0002829059958457947,0.023743977770209312,0.08931151032447815,9.476167678833008,-0.36446571350097656,-2.654193639755249
1413394885765760500,0.007253341376781464,0.024360159412026405,0.08991504460573196,9.40263557434082,-0.16203130781650543,-2.6709723472595215
1413394885770760500,0.007194235920906067,0.024443889036774635,0.08024750649929047,9.623198509216309,-0.01337822712957859,-2.825883388519287
1413394885775760500,-0.004661262035369873,0.026605291292071342,0.07885721325874329,9.443402290344238,0.04498380050063133,-2.6629958152770996
1413394885780760500,-0.003982648253440857,0.014636168256402016,0.07663296163082123,9.25557804107666,-0.16023147106170654,-2.6384894847869873
1413394885785760500,-0.0004090815782546997,0.020124541595578194,0.0885811448097229,9.484268188476562,0.08345343172550201,-2.7853505611419678
1413394885790760500,-0.009507857263088226,0.025818755850195885,0.07885241508483887,9.541714668273926,0.06908423453569412,-2.9564995765686035
1413394885795760500,-0.011673897504806519,0.030070504173636436,0.09062701463699341,9.198630332946777,-0.19241857528686523,-2.492051362991333
1413394885800760500,0.0036954283714294434,0.0181757602840662,0.08855214715003967,9.377450942993164,-0.36462539434432983,-2.7115185260772705
1413394885805760500,0.008603930473327637,0.02935107983648777,0.08161550760269165,9.247337341308594,-0.10391158610582352,-2.6548805236816406
1413394885810760500,-0.0017950832843780518,0.010421354323625565,0.08518168330192566,9.37826919555664,0.16681157052516937,-2.769432544708252
1413394885815760500,-0.006706669926643372,0.029981957748532295,0.07180975377559662,9.598259925842285,-0.12831741571426392,-2.597289562225342
1413394885820760500,-0.004067569971084595,0.02729216404259205,0.07242102921009064,9.328507423400879,-0.20978835225105286,-2.5890605449676514
1413394885825760500,-0.008838608860969543,0.02371329627931118,0.08375467360019684,9.38659954071045,0.10071587562561035,-2.6796720027923584
1413394885830760500,-0.017121754586696625,0.023707007989287376,0.08434107154607773,9.443777084350586,0.019941315054893494,-2.7689645290374756
1413394885835760500,-0.009576082229614258,0.034172140061855316,0.07943211495876312,9.51672077178955,-0.47160929441452026,-2.5238633155822754
1413394885840760500,0.009252391755580902,0.016735156998038292,0.0809934139251709,9.434504508972168,-0.29065367579460144,-2.7281789779663086
1413394885845760500,0.01360107958316803,0.023054836317896843,0.0731624960899353,9.411433219909668,0.0766032412648201,-2.777017831802368
1413394885850760500,0.0002988576889038086,0.017475085332989693,0.08021769672632217,9.353824615478516,0.0024320066440850496,-2.605976104736328
1413394885855760500,0.0036713704466819763,0.028567666187882423,0.07751213759183884,9.688047409057617,-0.1531316488981247,-2.792717218399048
1413394885860760500,-0.008896961808204651,0.03355788439512253,0.08289679884910583,9.296796798706055,0.060878001153469086,-2.630812883377075
1413394885865760500,-0.01440451294183731,0.012624705210328102,0.08927634358406067,9.215473175048828,0.01137204747647047,-2.582108974456787
1413394885870760500,-0.009479328989982605,0.02286531962454319,0.08994218707084656,9.630279541015625,-0.4222770631313324,-2.7110860347747803
1413394885875760500,0.010612457990646362,0.027900705114006996,0.08496267348527908,9.524589538574219,-0.4060305953025818,-2.7193870544433594
1413394885880760500,0.021178215742111206,0.007691403850913048,0.07957057654857635,9.149991035461426,-0.061805520206689835,-2.574190616607666
