#timestamp [ns],w_RS_S_x [rad s^-1],w_RS_S_y [rad s^-1],w_RS_S_z [rad s^-1],a_RS_S_x [m s^-2],a_RS_S_y [m s^-2],a_RS_S_z [m s^-2]
1413394881575760500,0.02024581932313422,0.016755160819145562,0.08656833089891874,10.149882749999998,-0.024516625,-3.2035056666666666
1413394881580760500,0.020943951023931952,0.03839724354387525,0.08587019919812101,8.9240515,0.14709974999999997,-2.427145875
1413394881585760500,0.009075712110370514,0.02583087292951608,0.09285151620609833,9.626861416666666,0.17161637500000002,-2.8439284999999996
1413394881590760500,-0.014660765716752367,0.02652900463031381,0.09354964790689606,9.471589458333332,0.17978858333333333,-2.7458620000000002
1413394881595760500,-0.017453292519943295,0.032114058236695664,0.06981317007977318,9.022118,-0.22882183333333334,-2.3045627499999997
1413394881600760500,0.013962634015954637,0.017453292519943295,0.0767944870877505,9.945577541666665,-0.8744262916666666,-2.8684451249999996
1413394881605760500,0.024434609527920613,-0.0020943951023931952,0.050963614158234416,8.940395916666665,-0.32688833333333334,-2.435318083333333
1413394881610760500,0.048869219055841226,0.029321531433504733,0.07120943348136866,9.9047165,0.17978858333333333,-3.015544875
1413394881615760500,-0.0020943951023931952,0.05375614096142535,0.05375614096142535,9.340834124999999,1.1849702083333333,-2.7867230416666664
1413394881620760500,-0.05515240436302082,0.0153588974175501,0.08866272600131193,8.77695175,1.2094868333333333,-2.5905900416666663
1413394881625760500,-0.09564404300928926,0.030019663134302467,0.07749261878854824,9.822994416666667,0.10623870833333333,-2.7213453750000003
1413394881630760500,-0.07051130178057091,0.016755160819145562,0.10611601852125524,9.349006333333334,-1.1195925416666666,-2.7376897916666665
1413394881635760500,-0.01884955592153876,0.027925268031909273,0.08447393579652555,8.785123958333333,-1.4791697083333333,-2.378112625
1413394881640760500,0.04817108735504349,-0.01117010721276371,0.10122909661567112,9.970094166666666,-1.1522813749999998,-2.655967708333333
1413394881645760500,0.07609635538695278,0.03490658503988659,0.08587019919812101,9.561483749999999,-0.14709974999999997,-2.852100708333333
1413394881650760500,0.06073745796940267,0.04468042885105484,0.10053096491487339,9.07115125,0.5475379583333333,-2.132946375
1413394881655760500,0.02583087292951608,-0.019547687622336492,0.0879645943005142,10.869037083333334,0.032688833333333334,-3.4977051666666665
1413394881660760500,-0.0006981317007977319,0.08726646259971647,0.046076692252650306,8.588990958333333,0.0980665,-2.1411185833333333
1413394881665760500,-0.009075712110370514,0.032812189937493394,0.05515240436302082,9.299973083333333,0.20430520833333332,-2.6396232916666666
1413394881670760500,-0.024434609527920613,0.00767944870877505,0.08028514559173915,10.084505083333333,0.5965712083333333,-3.219850083333333
1413394881675760500,-0.06841690667817772,0.060039326268604934,0.08028514559173915,8.548129916666667,0.809048625,-2.3127349583333334
1413394881680760500,-0.0879645943005142,-0.004886921905584123,0.12426744274199628,9.299973083333333,0.4004382083333333,-2.8929617499999996
1413394881685760500,-0.06911503837897544,0.029321531433504733,0.12077678423800758,9.651378041666666,-1.299381125,-2.582417833333333
1413394881690760500,0.0,0.010471975511965976,0.08028514559173915,8.736090708333332,-2.1247741666666666,-2.0103632499999997
1413394881695760500,0.09075712110370514,-0.03839724354387525,0.05235987755982988,10.100849499999999,-2.0021910416666664,-2.852100708333333
1413394881700760500,0.1626646862858715,0.039793506945470715,0.06562437987498679,10.24794925,-0.53936575,-2.8684451249999996
1413394881705760500,0.1270599695451872,0.06422811647339133,0.039095375244672985,8.77695175,2.0348798749999997,-2.4925235416666665
1413394881710760500,0.0307177948351002,0.0,0.08168140899333462,9.847511041666666,2.9338227916666666,-3.0400614999999998
1413394881715760500,-0.08447393579652555,0.08447393579652555,0.07260569688296412,10.166227166666665,1.3402421666666664,-2.9583394166666666
1413394881720760500,-0.1612718403339386,0.025967290624976158,0.11560431867837906,7.711968898773193,0.246156707406044,-2.2881534099578857
1413394881725760500,-0.13451234996318817,0.027644075453281403,0.09844956547021866,9.88079833984375,-1.5513474941253662,-2.6562933921813965
1413394881730760500,-0.043740347027778625,-0.007290497422218323,0.08648369461297989,9.204401969909668,-2.2491841316223145,-2.5614302158355713
1413394881735760500,0.060138970613479614,0.022803016006946564,0.07676353305578232,9.133063316345215,-1.9284822940826416,-2.356349229812622
1413394881740760500,0.111697256565094,-0.038625914603471756,0.07774288207292557,9.944775581359863,-0.3435526192188263,-3.1874613761901855
1413394881745760500,0.10127177834510803,0.0681975781917572,0.05064532905817032,9.502482414245605,0.4661110043525696,-2.4842309951782227
1413394881750760500,0.0573122501373291,0.015196381136775017,0.07240822166204453,9.40467357635498,1.0788949728012085,-2.927086114883423
1413394881755760500,0.007878139615058899,0.0458628311753273,0.06325965374708176,9.828634262084961,0.6210696697235107,-2.9430177211761475
1413394881760760500,-0.04039283096790314,0.0814465880393982,0.07027211040258408,9.1424560546875,0.8016184568405151,-2.3865272998809814
1413394881765760500,-0.06690846383571625,0.008081123232841492,0.08970490843057632,9.1345796585083,0.2211231291294098,-2.591125249862671
1413394881770760500,-0.07524670660495758,0.023420728743076324,0.09868303686380386,9.917646408081055,-0.05727693811058998,-3.0406105518341064
1413394881775760500,-0.06485572457313538,0.045742496848106384,0.09513489156961441,8.879915237426758,-0.6200737357139587,-2.238879919052124
1413394881780760500,-0.04254418611526489,-0.03105168044567108,0.08954062312841415,9.403623580932617,-0.7104982137680054,-2.778812885284424
1413394881785760500,0.007044881582260132,0.05206657573580742,0.06573987752199173,9.834147453308105,-1.3391194343566895,-2.729571580886841
1413394881790760500,0.04606716334819794,0.012221530079841614,0.08540721982717514,8.84057331085205,-0.7756159901618958,-2.4025676250457764
1413394881795760500,0.08516119420528412,0.006712682545185089,0.10076583176851273,9.993009567260742,-0.38465848565101624,-3.1380767822265625
1413394881800760500,0.06989583373069763,0.06121180206537247,0.07149086147546768,9.266019821166992,0.27025553584098816,-1.7804583311080933
1413394881805760500,0.04551874101161957,0.034674279391765594,0.10302133113145828,9.853541374206543,0.7680215835571289,-3.098440408706665
1413394881810760500,-0.015345796942710876,0.0003846287727355957,0.06262367218732834,8.325679779052734,0.9731413722038269,-2.5580966472625732
1413394881815760500,-0.05769827961921692,0.04233028367161751,0.08555533736944199,9.885287284851074,0.5313277840614319,-3.0412514209747314
1413394881820760500,-0.08648712933063507,0.023374803364276886,0.0868857279419899,8.774535179138184,-0.023842470720410347,-2.4025156497955322
1413394881825760500,-0.07532837986946106,-0.007310777902603149,0.08671844750642776,10.055681228637695,-0.8251568078994751,-3.0728347301483154
1413394881830760500,-0.02150808274745941,0.08076837658882141,0.08036629110574722,8.977964401245117,-1.1096543073654175,-1.9788742065429688
1413394881835760500,0.03136783838272095,-0.02965044602751732,0.08883487433195114,9.624665260314941,-1.0623701810836792,-3.113739490509033
1413394881840760500,0.05800148844718933,0.038820136338472366,0.05678115040063858,9.02031135559082,-0.43236058950424194,-2.1737756729125977
1413394881845760500,0.07686205208301544,0.014408882707357407,0.08129683881998062,9.650079727172852,0.10607004165649414,-2.934290885925293
1413394881850760500,0.06498914957046509,0.037449344992637634,0.07091627269983292,9.26563835144043,0.5232309699058533,-2.836472749710083
1413394881855760500,0.002957090735435486,0.03684751316905022,0.07308106869459152,9.665932655334473,0.9073976278305054,-2.7142679691314697
1413394881860760500,-0.03958036005496979,0.017252368852496147,0.09190089255571365,9.697900772094727,0.8746277093887329,-3.1233842372894287
1413394881865760500,-0.06974963843822479,0.0869036614894867,0.08972113579511642,8.553689956665039,0.3196006417274475,-2.00138258934021
1413394881870760500,-0.08857211470603943,-0.02825363352894783,0.07904653996229172,9.941624641418457,-0.7841963171958923,-3.0567660331726074
1413394881875760500,-0.04532891511917114,0.016435183584690094,0.08809628337621689,9.900252342224121,-0.8740448951721191,-2.860172986984253
1413394881880760500,0.003608331084251404,0.03818167746067047,0.07065845280885696,8.424421310424805,-0.9789612889289856,-1.750246524810791
1413394881885760500,0.043259069323539734,0.0157708041369915,0.0944884642958641,10.326942443847656,-0.6623251438140869,-3.570631980895996
1413394881890760500,0.05176845192909241,-0.007214970886707306,0.06594253331422806,8.277708053588867,-0.04860011860728264,-1.5609803199768066
1413394881895760500,0.05044850707054138,0.051250942051410675,0.09181512147188187,10.90608024597168,0.11368827521800995,-3.8153910636901855
1413394881900760500,0.010558545589447021,0.022773373872041702,0.05064146965742111,8.718088150024414,0.2542177140712738,-2.0424396991729736
1413394881905760500,0.009160563349723816,0.01648947037756443,0.10022003203630447,9.200286865234375,0.547692060470581,-2.9103145599365234
1413394881910760500,-0.014539375901222229,0.06883066892623901,0.08753960579633713,9.73802375793457,0.06517986953258514,-2.737905502319336
1413394881915760500,-0.04878400266170502,-0.00519886240363121,0.07301921397447586,8.644775390625,0.30313727259635925,-2.271787643432617
1413394881920760500,-0.034786030650138855,0.03042640909552574,0.10214585810899734,9.844405174255371,-0.07369086891412735,-2.7136223316192627
1413394881925760500,-0.03622327744960785,0.02064390480518341,0.0972490981221199,9.411678314208984,-0.25302746891975403,-2.4926064014434814
1413394881930760500,-0.03345756232738495,0.021981149911880493,0.07565652579069138,8.913357734680176,-0.4814642369747162,-2.5739779472351074
1413394881935760500,0.009834080934524536,0.03323756530880928,0.08387596160173416,9.826823234558105,-0.865737795829773,-2.5171992778778076
1413394881940760500,0.048840418457984924,0.01923365145921707,0.08537182956933975,9.510122299194336,-0.7761517763137817,-2.8028767108917236
1413394881945760500,0.059379979968070984,0.024150893092155457,0.0750037208199501,9.15967082977295,-0.07329636067152023,-2.5415658950805664
1413394881950760500,0.05383168160915375,0.01932988129556179,0.08623778074979782,9.331597328186035,0.4499484598636627,-2.410977840423584
1413394881955760500,0.01969251036643982,0.025628359988331795,0.09188216179609299,9.649456977844238,0.8091259598731995,-2.9841959476470947
1413394881960760500,-0.03962917625904083,0.01730404794216156,0.07101950794458389,9.404616355895996,0.9730029106140137,-2.747201919555664
1413394881965760500,-0.07998454570770264,0.021387770771980286,0.08835383504629135,10.040536880493164,0.5641686916351318,-3.082322597503662
1413394881970760500,-0.08509866893291473,0.058989256620407104,0.08468405157327652,9.140830039978027,-0.4488222599029541,-2.5574443340301514
1413394881975760500,-0.03620615601539612,0.023393981158733368,0.08807321637868881,8.830148696899414,-1.707911491394043,-2.420510768890381
1413394881980760500,0.04052136838436127,-0.0051772817969322205,0.08596380800008774,9.468524932861328,-1.2823668718338013,-2.5260417461395264
1413394881985760500,0.09014813601970673,0.005352018401026726,0.09103914350271225,9.985151290893555,0.09764081984758377,-2.9016988277435303
1413394881990760500,0.04411981999874115,0.026353931054472923,0.0668245479464531,9.747078895568848,1.1031551361083984,-3.1804542541503906
1413394881995760500,-0.013227388262748718,0.041004180908203125,0.0710308626294136,8.987954139709473,1.0713404417037964,-2.4521067142486572
1413394882000760500,-0.053599730134010315,0.030452175065875053,0.07291389256715775,9.550603866577148,0.1310468167066574,-2.615652561187744
1413394882005760500,-0.04875898361206055,0.02693258225917816,0.058107487857341766,9.377877235412598,-0.6774155497550964,-2.3864030838012695
1413394882010760500,-0.006268784403800964,0.01852402091026306,0.08395697921514511,9.558330535888672,-0.7842157483100891,-2.8274004459381104
1413394882015760500,0.01957167685031891,0.028295472264289856,0.10498514026403427,9.0285005569458,-0.24489083886146545,-2.508664131164551
1413394882020760500,0.018923133611679077,0.017874030396342278,0.11269056051969528,9.445517539978027,0.1634242981672287,-2.754532814025879
1413394882025760500,-0.006155923008918762,0.03116852417588234,0.08129843324422836,9.518533706665039,0.21271894872188568,-2.550156831741333
1413394882030760500,-0.016676396131515503,0.01296178251504898,0.07567179948091507,9.37126350402832,-0.18773064017295837,-2.83597731590271
1413394882035760500,-0.008315905928611755,0.029707148671150208,0.06163647025823593,9.256063461303711,-0.6612063646316528,-2.4761271476745605
1413394882040760500,0.008426964282989502,0.017845265567302704,0.07146156579256058,9.371269226074219,-0.36752748489379883,-2.7540488243103027
1413394882045760500,0.015461117029190063,0.006728228181600571,0.08691120892763138,9.363926887512207,0.261670857667923,-2.738346576690674
1413394882050760500,0.008509129285812378,0.037445493042469025,0.10501264780759811,9.788098335266113,0.2940732538700104,-2.72202205657959
1413394882055760500,-0.011769279837608337,0.036720726639032364,0.09386435896158218,9.379568099975586,0.19629348814487457,-2.697291135787964
1413394882060760500,-0.02222856879234314,0.029742667451500893,0.10152200609445572,9.518410682678223,0.17987890541553497,-2.7300877571105957
1413394882065760500,-0.04038877785205841,0.026234060525894165,0.06866427510976791,9.289006233215332,-0.2365252822637558,-2.459876537322998
1413394882070760500,-0.02646474540233612,0.011557288467884064,0.07069308310747147,9.54184341430664,-0.6533086895942688,-2.672386884689331
1413394882075760500,0.0189056396484375,0.024151839315891266,0.07482434064149857,9.353961944580078,-1.0287050008773804,-2.3785974979400635
1413394882080760500,0.05513294041156769,0.0241234190762043,0.08329687267541885,9.445009231567383,-0.6372520923614502,-2.762009859085083
1413394882085760500,0.06359513103961945,0.01998811401426792,0.08832035213708878,9.364079475402832,0.32694631814956665,-2.8445284366607666
1413394882090760500,0.034295082092285156,0.03757084906101227,0.08776558190584183,9.658034324645996,1.152382254600525,-2.7061288356781006
1413394882095760500,-0.03557293117046356,0.02711491473019123,0.08504518121480942,9.135483741760254,1.3895618915557861,-2.6654460430145264
1413394882100760500,-0.10319413244724274,0.017872579395771027,0.0883767381310463,9.118215560913086,0.5483264327049255,-2.5586864948272705
1413394882105760500,-0.10394340753555298,0.01572417840361595,0.09925422817468643,9.426335334777832,-0.7755118608474731,-2.565981388092041
1413394882110760500,-0.03401587903499603,-0.0002990514039993286,0.10052550584077835,9.678297996520996,-1.9123274087905884,-2.7312088012695312
1413394882115760500,0.04337629675865173,0.019322983920574188,0.08519471436738968,9.263903617858887,-1.6254148483276367,-2.314723491668701
1413394882120760500,0.0949249118566513,0.02973956987261772,0.08680038899183273,9.559919357299805,-0.4577617347240448,-2.7212276458740234
1413394882125760500,0.08941119909286499,0.0102499108761549,0.07509421557188034,9.241888999938965,0.48255470395088196,-2.5828003883361816
1413394882130760500,0.045535579323768616,0.022879961878061295,0.06888485699892044,9.796771049499512,0.8990158438682556,-2.877774953842163
1413394882135760500,-0.011045873165130615,0.03057010844349861,0.05915578454732895,9.339242935180664,0.9811758995056152,-2.6487700939178467
1413394882140760500,-0.05086442828178406,0.026236742734909058,0.0869857594370842,9.011680603027344,0.6622242331504822,-2.943213701248169
1413394882145760500,-0.0815853476524353,0.03388826549053192,0.10009854286909103,9.264452934265137,0.0003766879381146282,-2.574429512023926
1413394882150760500,-0.08023227751255035,0.004545919597148895,0.10069193691015244,9.484301567077637,-0.6778208017349243,-2.802985668182373
1413394882155760500,-0.02924668788909912,0.022046752274036407,0.09501949697732925,9.540538787841797,-1.2330362796783447,-2.5093300342559814
1413394882160760500,0.032165274024009705,0.00945299118757248,0.08525647968053818,9.29638671875,-1.5931397676467896,-2.5673084259033203
1413394882165760500,0.08937661349773407,0.010202616453170776,0.055957622826099396,9.477193832397461,-1.322995662689209,-2.5016727447509766
1413394882170760500,0.12849414348602295,0.011644288897514343,0.0575002059340477,9.609597206115723,-0.1634528487920761,-2.557980537414551
1413394882175760500,0.09991021454334259,0.022870052605867386,0.06753400713205338,9.813011169433594,1.2174255847930908,-3.1149697303771973
1413394882180760500,0.011571928858757019,0.05373894050717354,0.08510278910398483,9.177762031555176,2.098140239715576,-2.698173999786377
1413394882185760500,-0.08936513960361481,0.037652637809515,0.11024012416601181,9.23429012298584,1.813745141029358,-2.8377437591552734
1413394882190760500,-0.16041648387908936,0.03318782523274422,0.11207326501607895,9.304976463317871,0.5891321301460266,-2.8942770957946777
1413394882195760500,-0.15402688086032867,0.03393847495317459,0.09428466111421585,9.26913833618164,-1.7398333549499512,-2.4449987411499023
1413394882200760500,-0.051332175731658936,-0.00019609928131103516,0.08692415803670883,9.293036460876465,-2.642615556716919,-2.4487102031707764
1413394882205760500,0.06930458545684814,-0.0037369579076766968,0.07319467514753342,9.516257286071777,-2.141494035720825,-2.593656063079834
1413394882210760500,0.15354309976100922,0.01510641723871231,0.06587374955415726,9.470929145812988,-0.4168030023574829,-2.6640899181365967
1413394882215760500,0.13343046605587006,0.020749647170305252,0.06821077316999435,10.05811595916748,1.1764723062515259,-3.1963813304901123
1413394882220760500,0.04235947132110596,0.05720365419983864,0.06763366609811783,9.29934024810791,1.861904501914978,-2.616008996963501
1413394882225760500,-0.04810316860675812,0.05295669287443161,0.07877364009618759,9.30671215057373,1.4464154243469238,-2.7556405067443848
1413394882230760500,-0.11017440259456635,0.04646884649991989,0.08767565339803696,9.09307861328125,0.5726771950721741,-2.6732239723205566
1413394882235760500,-0.10884051024913788,0.014293108135461807,0.10217065364122391,8.99464225769043,-0.26902690529823303,-2.5904953479766846
1413394882240760500,-0.07395756244659424,0.015718821436166763,0.10275719314813614,9.557289123535156,-0.8493505716323853,-2.7701799869537354
1413394882245760500,-0.027908682823181152,-0.004527434706687927,0.10555354505777359,9.411036491394043,-0.9719564914703369,-2.672386646270752
1413394882250760500,0.01258823275566101,0.010166607797145844,0.07483900338411331,9.680557250976562,-0.9964291453361511,-2.705172061920166
1413394882255760500,0.05382359027862549,0.023492231965065002,0.06017649918794632,9.45271110534668,-0.751056432723999,-2.280463695526123
1413394882260760500,0.09210880100727081,-0.001672055572271347,0.07283542305231094,9.699014663696289,-0.6129968762397766,-3.007312536239624
1413394882265760500,0.07618562877178192,0.05633736774325371,0.05620709806680679,9.657624244689941,0.40059855580329895,-2.46797251701355
1413394882270760500,0.04823048412799835,0.02844957821071148,0.09543357044458389,9.461860656738281,1.1033248901367188,-2.9108479022979736
1413394882275760500,-0.016677677631378174,0.06059541553258896,0.08920445293188095,9.444991111755371,1.3482519388198853,-2.943880319595337
1413394882280760500,-0.0864904522895813,0.03609548881649971,0.09197879582643509,8.987997055053711,1.1040852069854736,-2.534330368041992
1413394882285760500,-0.10945795476436615,0.01503555104136467,0.08753278106451035,9.615236282348633,-0.056910254061222076,-3.08964467048645
1413394882290760500,-0.09694892168045044,0.021971963346004486,0.08608128875494003,8.569304466247559,-1.0202198028564453,-2.296473979949951
1413394882295760500,-0.04033111035823822,0.010849304497241974,0.06151775270700455,9.613600730895996,-1.6662566661834717,-2.7550644874572754
1413394882300760500,0.04535152018070221,-0.033236995339393616,0.08952634781599045,8.86421012878418,-1.5039944648742676,-2.664989709854126
1413394882305760500,0.10399943590164185,0.03395054489374161,0.08815481513738632,9.877978324890137,-0.6377111077308655,-2.7457692623138428
1413394882310760500,0.11797010898590088,0.0297885462641716,0.0988534465432167,9.258143424987793,0.7114531397819519,-2.5173821449279785
1413394882315760500,0.05873596668243408,0.03544532135128975,0.08778763562440872,9.837249755859375,1.3071911334991455,-3.115199327468872
1413394882320760500,-0.020933225750923157,0.058479294180870056,0.06547009199857712,9.036996841430664,1.1940375566482544,-2.263442277908325
1413394882325760500,-0.07311463356018066,0.0004732999950647354,0.07653709501028061,9.403929710388184,0.6868613362312317,-2.992558002471924
1413394882330760500,-0.10249534249305725,0.05483047291636467,0.07915999740362167,9.378022193908691,-0.03230323642492294,-2.672464370727539
1413394882335760500,-0.08721475303173065,-0.002489175647497177,0.09725598245859146,8.863753318786621,-0.8164085149765015,-2.7374298572540283
1413394882340760500,-0.03274776041507721,0.0192401185631752,0.09921150654554367,9.834124565124512,-1.3476927280426025,-2.7787015438079834
1413394882345760500,0.014012962579727173,0.03112858533859253,0.08388742059469223,9.353583335876465,-1.1594289541244507,-2.4113376140594482
1413394882350760500,0.06771686673164368,0.014382611960172653,0.07633806020021439,9.796611785888672,-0.4496709406375885,-3.023665428161621
1413394882355760500,0.07261691987514496,0.01923985779285431,0.07223177701234818,9.01279067993164,-0.09782905131578445,-2.696815252304077
1413394882360760500,0.041949495673179626,0.03748878091573715,0.05700433999300003,9.110390663146973,0.7361029386520386,-2.5501773357391357
1413394882365760500,0.018348291516304016,0.010232023894786835,0.07576896995306015,9.959681510925293,0.4248126745223999,-3.1472768783569336
1413394882370760500,-0.02295204997062683,0.052760012447834015,0.07578130811452866,8.954598426818848,0.36010798811912537,-2.459993362426758
1413394882375760500,-0.03336887061595917,0.026261473074555397,0.11622070521116257,9.5836820602417,0.49038398265838623,-2.9921059608459473
1413394882380760500,-0.04392284154891968,0.028296247124671936,0.10145775228738785,9.305367469787598,-0.2775961756706238,-2.6722571849823
1413394882385760500,-0.04806904494762421,0.04228809103369713,0.07491414994001389,8.945784568786621,-0.39955711364746094,-2.1164133548736572
1413394882390760500,-0.004855424165725708,-0.019855652004480362,0.10143639892339706,9.649327278137207,-0.4413353204727173,-2.983100414276123
1413394882395760500,6.553530693054199e-05,0.02972780168056488,0.06930135935544968,9.525602340698242,-0.5552943348884583,-2.533402681350708
1413394882400760500,0.0035735666751861572,0.005300655961036682,0.06520622223615646,9.330730438232422,-0.17950542271137238,-2.6725711822509766
1413394882405760500,0.034948766231536865,0.02275792881846428,0.07838162034749985,9.656927108764648,-0.5065817832946777,-2.61517596244812
1413394882410760500,0.041241034865379333,0.058352991938591,0.07431041449308395,9.273360252380371,0.008328096941113472,-2.590573310852051
1413394882415760500,0.03991638123989105,0.01236481312662363,0.10440579801797867,9.658196449279785,0.6865606307983398,-2.8286898136138916
1413394882420760500,-0.010312467813491821,0.03677430748939514,0.0645904466509819,9.567447662353516,0.34351590275764465,-2.59114146232605
1413394882425760500,-0.030631303787231445,0.038071341812610626,0.07715625315904617,8.9137544631958,0.22108004987239838,-2.6235666275024414
1413394882430760500,-0.03412814438343048,-0.001703903079032898,0.09242794662714005,9.175500869750977,-0.12219782173633575,-2.566303253173828
1413394882435760500,-0.0438796728849411,0.023433685302734375,0.0581444576382637,9.631270408630371,-0.5307733416557312,-2.6805691719055176
1413394882440760500,-0.013928979635238647,0.012237511575222015,0.10077036172151566,9.322298049926758,-0.31856995820999146,-2.91741681098938
1413394882445760500,0.01121830940246582,0.031125374138355255,0.09229979664087296,9.998924255371094,-0.6130250692367554,-2.7132136821746826
1413394882450760500,0.014708161354064941,0.03877394646406174,0.07497300952672958,8.979119300842285,-0.3018418252468109,-2.410583257675171
1413394882455760500,0.025210633873939514,0.014397002756595612,0.08689785748720169,9.23323917388916,0.17188827693462372,-2.5582199096679688
1413394882460760500,0.009173035621643066,0.015797719359397888,0.07498135417699814,9.290050506591797,-0.024127451702952385,-2.370032787322998
1413394882465760500,-0.008854940533638,0.00044896453619003296,0.07226265221834183,10.008560180664062,0.31862732768058777,-3.14732027053833
1413394882470760500,-0.010360360145568848,0.024864034727215767,0.09804712980985641,9.494119644165039,0.22073549032211304,-2.7383060455322266
1413394882475760500,-0.03971710801124573,0.04016086459159851,0.09595700353384018,9.076991081237793,0.10652726143598557,-2.697073221206665
1413394882480760500,-0.03762084245681763,0.02761630341410637,0.10003962367773056,9.672795295715332,-0.26970624923706055,-2.778696298599243
1413394882485760500,-0.011817485094070435,0.02063603699207306,0.07901900261640549,9.524970054626465,-0.9798886179924011,-2.5662381649017334
1413394882490760500,0.020282819867134094,0.052751146256923676,0.05955646187067032,9.476507186889648,-0.6043103337287903,-2.6148762702941895
1413394882495760500,0.04054255783557892,-0.0037859492003917694,0.06591611355543137,8.939189910888672,-0.25282567739486694,-2.4026412963867188
1413394882500760500,0.04476131498813629,0.027661766856908798,0.051933012902736664,9.747096061706543,-0.22890476882457733,-2.811410665512085
1413394882505760500,0.044763579964637756,0.01720264181494713,0.06733802706003189,9.290390014648438,0.07386376708745956,-2.4926929473876953
1413394882510760500,0.037813276052474976,0.018602818250656128,0.07367292791604996,9.518865585327148,0.3759855329990387,-3.0081839561462402
1413394882515760500,0.007030904293060303,0.05351201072335243,0.08002995699644089,8.97137451171875,0.7200319170951843,-2.3044779300689697
1413394882520760500,-0.03686167299747467,-0.006480133160948753,0.10030070692300797,9.42031478881836,1.0381081104278564,-3.229844331741333
1413394882525760500,-0.09265518188476562,0.038150593638420105,0.08626831322908401,9.50171184539795,0.5726385116577148,-2.7306506633758545
1413394882530760500,-0.10815531015396118,0.040814243257045746,0.10912775248289108,9.075849533081055,-0.30998584628105164,-2.696521282196045
1413394882535760500,-0.06967337429523468,0.011541813611984253,0.09989441186189651,9.441742897033691,-1.6339833736419678,-2.6651196479797363
1413394882540760500,0.019716694951057434,0.015933595597743988,0.09411267191171646,9.214217185974121,-2.0348880290985107,-2.2183964252471924
1413394882545760500,0.11311154067516327,0.016459785401821136,0.07894805818796158,9.476593017578125,-1.7404773235321045,-2.6900079250335693
1413394882550760500,0.15568819642066956,0.006062489002943039,0.060937292873859406,9.430246353149414,-0.4247468113899231,-2.3618502616882324
1413394882555760500,0.12566611170768738,0.021495085209608078,0.07665533572435379,9.96047592163086,1.5355427265167236,-3.074038028717041
1413394882560760500,0.017160877585411072,0.048898808658123016,0.0711715891957283,9.55385684967041,2.3088488578796387,-3.0167834758758545
1413394882565760500,-0.10324639081954956,0.04813312366604805,0.07048279792070389,9.348316192626953,1.8051756620407104,-2.8947572708129883
1413394882570760500,-0.15624819695949554,0.04014721140265465,0.08967990428209305,9.231269836425781,0.2132045030593872,-2.6155996322631836
1413394882575760500,-0.13036282360553741,0.027627572417259216,0.0859713926911354,8.92731761932373,-1.6255367994308472,-2.3714325428009033
1413394882580760500,-0.04869338870048523,-0.0023321062326431274,0.08585269004106522,9.254443168640137,-1.8465609550476074,-2.3562283515930176
1413394882585760500,0.05025477707386017,-0.007977806031703949,0.09505467861890793,9.689117431640625,-1.2418773174285889,-2.7299716472625732
1413394882590760500,0.09008195996284485,0.020693037658929825,0.09096375852823257,9.666153907775879,-0.3270361125469208,-2.5579824447631836
1413394882595760500,0.08246015012264252,0.020027782768011093,0.08761592954397202,9.633882522583008,0.4168259799480438,-2.7055912017822266
1413394882600760500,0.04130241274833679,0.03609976917505264,0.06811700016260147,9.543471336364746,0.5478155016899109,-2.6320343017578125
1413394882605760500,0.010575294494628906,0.03468450903892517,0.06811808794736862,9.249296188354492,0.4908977746963501,-2.4355475902557373
1413394882610760500,-0.017990857362747192,0.021395951509475708,0.07716693729162216,9.559281349182129,0.4087137281894684,-2.9429829120635986
1413394882615760500,-0.04661758244037628,0.03954328969120979,0.08416139334440231,9.436553955078125,0.5069946050643921,-2.7795348167419434
1413394882620760500,-0.0655159056186676,0.038783926516771317,0.09455571323633194,9.264656066894531,0.15558475255966187,-2.7136168479919434
1413394882625760500,-0.055100470781326294,0.02409699186682701,0.0923428162932396,9.29664134979248,-0.5878350734710693,-2.6475820541381836
1413394882630760500,-0.020873934030532837,0.017843224108219147,0.07627273350954056,9.100985527038574,-0.7426798939704895,-2.32102370262146
1413394882635760500,0.0077174752950668335,-0.004499644041061401,0.05954987555742264,9.428304672241211,-0.6696233153343201,-2.7296509742736816
1413394882640760500,0.04402276873588562,0.0032161660492420197,0.06720051914453506,9.665345191955566,-0.6045302748680115,-2.615342855453491
1413394882645760500,0.057997435331344604,0.017186038196086884,0.07008335739374161,9.608808517456055,-0.18803438544273376,-2.8032736778259277
1413394882650760500,0.040583208203315735,0.025591352954506874,0.07926253229379654,9.372036933898926,0.4088135361671448,-2.721987009048462
1413394882655760500,0.00922296941280365,0.03400170058012009,0.08489760011434555,9.600357055664062,0.7356297969818115,-2.89418888092041
1413394882660760500,-0.030558526515960693,0.04791426658630371,0.07716263085603714,9.542557716369629,0.4005959928035736,-2.828420400619507
1413394882665760500,-0.0452486127614975,0.04649173095822334,0.07992444187402725,9.362751960754395,0.2454400509595871,-2.7137234210968018
1413394882670760500,-0.050180584192276,0.030395813286304474,0.07635154575109482,9.158232688903809,-0.26100626587867737,-2.533320188522339
1413394882675760500,-0.037636131048202515,0.025503795593976974,0.07980381697416306,9.207113265991211,-0.4979232847690582,-2.5495877265930176
1413394882680760500,-0.004860281944274902,0.015048258006572723,0.09508252888917923,9.558069229125977,-0.8494463562965393,-2.615137815475464
1413394882685760500,0.0244436115026474,0.013660252094268799,0.09440956264734268,9.591391563415527,-0.7352667450904846,-2.6641452312469482
1413394882690760500,0.0398285835981369,0.022048529237508774,0.07703616470098495,9.338897705078125,-0.36751580238342285,-2.574233293533325
1413394882695760500,0.03919656574726105,0.015109965577721596,0.0736345425248146,9.543543815612793,0.17162688076496124,-2.8445072174072266
1413394882700760500,0.028041809797286987,0.035375915467739105,0.0785653218626976,9.518853187561035,0.44962382316589355,-2.713867664337158
1413394882705760500,0.0015280544757843018,0.02907879650592804,0.08205222338438034,9.48599910736084,0.4251077175140381,-2.8120980262756348
1413394882710760500,-0.024322926998138428,0.04371389001607895,0.0820307657122612,9.265130043029785,0.30275532603263855,-2.5419254302978516
1413394882715760500,-0.03691534698009491,0.022730767726898193,0.09176672250032425,9.07730770111084,0.0658005028963089,-2.500847578048706
1413394882720760500,-0.03971029818058014,0.013659819960594177,0.0965975895524025,9.2487211227417,-0.1140376552939415,-2.4926598072052
1413394882725760500,-0.030670881271362305,0.003173079341650009,0.09581727534532547,9.607486724853516,-0.5636647343635559,-2.745959520339966
1413394882730760500,-0.012531265616416931,0.022025614976882935,0.07488889247179031,9.746012687683105,-0.7025653719902039,-2.9091553688049316
1413394882735760500,0.019573703408241272,0.023417729884386063,0.07423000782728195,9.24042797088623,-0.5552418828010559,-2.5904674530029297
1413394882740760500,0.041256383061409,0.023462366312742233,0.07429105788469315,9.592297554016113,-0.08179933577775955,-2.8932242393493652
1413394882745760500,0.045444414019584656,0.040225692093372345,0.07432831078767776,9.257430076599121,0.13101431727409363,-2.5171377658843994
1413394882750760500,0.023170724511146545,0.02628593146800995,0.07367321103811264,9.59220027923584,0.38413548469543457,-2.9510061740875244
1413394882755760500,0.001469925045967102,0.03815177083015442,0.08210151642560959,9.02872085571289,0.5891422033309937,-2.370058298110962
1413394882760760500,-0.030622288584709167,0.012975521385669708,0.0946255698800087,9.061241149902344,0.40894702076911926,-2.7548069953918457
1413394882765760500,-0.05364981293678284,0.01436498574912548,0.09801871329545975,9.371236801147461,0.04931224137544632,-2.648250102996826
1413394882770760500,-0.048107653856277466,0.006659701466560364,0.09584865719079971,9.542230606079102,-0.40841442346572876,-2.8358776569366455
1413394882775760500,-0.02300482988357544,0.03737563267350197,0.07628288120031357,9.696608543395996,-0.751491904258728,-2.9089560508728027
1413394882780760500,0.0063148438930511475,0.018516842275857925,0.070716492831707,9.133890151977539,-0.7919027209281921,-2.5088536739349365
1413394882785760500,0.038418248295784,0.026927582919597626,0.06377588957548141,9.518331527709961,-0.4738234281539917,-2.8274855613708496
1413394882790760500,0.04962866008281708,0.03184507042169571,0.07360126823186874,9.34732437133789,-0.024358326569199562,-2.5743563175201416
1413394882795760500,0.037818193435668945,0.020709268748760223,0.07436569780111313,9.567998886108398,0.3596341907978058,-2.8610479831695557
1413394882800760500,0.004274219274520874,0.03396850824356079,0.08417374640703201,9.135005950927734,0.515487790107727,-2.3946447372436523
1413394882805760500,-0.030566051602363586,0.014406481757760048,0.0897001251578331,9.559429168701172,0.31887179613113403,-2.828517436981201
1413394882810760500,-0.048027992248535156,0.033921848982572556,0.08405960351228714,9.664790153503418,0.04908377677202225,-2.8199503421783447
1413394882815760500,-0.04948854446411133,0.026908177882432938,0.09169086068868637,9.452309608459473,-0.24498137831687927,-2.803161859512329
1413394882820760500,-0.03206565976142883,0.04086287319660187,0.07907687872648239,9.427087783813477,-0.6614351868629456,-2.6720316410064697
1413394882825760500,0.00422021746635437,0.024808987975120544,0.08954203873872757,9.09292221069336,-0.8245706558227539,-2.4026236534118652
1413394882830760500,0.036317840218544006,0.02413608878850937,0.08397907763719559,9.510040283203125,-0.5637082457542419,-2.6640713214874268
1413394882835760500,0.05588877201080322,0.02136288210749626,0.08963275700807571,9.192399024963379,-0.1386711150407791,-2.4271175861358643
1413394882840760500,0.04269297420978546,0.014433115720748901,0.0862075611948967,9.560154914855957,0.3188232481479645,-2.664752960205078
1413394882845760500,0.013368546962738037,0.018621068447828293,0.08556104451417923,9.298585891723633,0.49073144793510437,-2.591212034225464
1413394882850760500,-0.01867881417274475,0.014436358585953712,0.08485939353704453,9.59223747253418,0.5232239365577698,-2.8777694702148438
1413394882855760500,-0.03619416058063507,0.028333492577075958,0.08548612147569656,9.297710418701172,0.12286211550235748,-2.664553165435791
1413394882860760500,-0.04389907419681549,0.025515597313642502,0.0847141370177269,9.517669677734375,-0.2695201337337494,-2.876722812652588
1413394882865760500,-0.02855871617794037,0.04226953536272049,0.07489790767431259,9.361882209777832,-0.5551769137382507,-2.549529790878296
1413394882870760500,0.0014170557260513306,0.0206090547144413,0.08467992395162582,9.207430839538574,-0.7022368311882019,-2.5985946655273438
1413394882875760500,0.02446979284286499,0.0227358378469944,0.0756264254450798,9.354902267456055,-0.4655013978481293,-2.6068854331970215
1413394882880760500,0.03637076914310455,0.008805766701698303,0.08475621789693832,9.461908340454102,-0.0571712851524353,-2.7216858863830566
1413394882885760500,0.024557486176490784,0.02558884769678116,0.0785192921757698,9.633182525634766,0.2370089292526245,-2.746476650238037
1413394882890760500,0.009189784526824951,0.022790594026446342,0.07714807242155075,9.388148307800293,0.2944324016571045,-2.6810832023620605
1413394882895760500,-0.01102285087108612,0.02977132797241211,0.07715220004320145,9.551145553588867,0.34336841106414795,-2.828406810760498
1413394882900760500,-0.03060239553451538,0.030429942533373833,0.07919880002737045,9.403782844543457,0.08190169930458069,-2.779010534286499
1413394882905760500,-0.035537540912628174,0.033189065754413605,0.08610901981592178,9.346132278442383,-0.3021056354045868,-2.7131171226501465
1413394882910760500,-0.02508498728275299,0.032485317438840866,0.08537208288908005,9.264182090759277,-0.5796906352043152,-2.5576932430267334
1413394882915760500,0.004223883152008057,0.009450588375329971,0.08608431369066238,9.117934226989746,-0.6041476726531982,-2.4761295318603516
1413394882920760500,0.019595369696617126,0.0059924982488155365,0.08330031484365463,9.518535614013672,-0.383992075920105,-2.6888206005096436
1413394882925760500,0.026607051491737366,0.012294139713048935,0.08195311576128006,9.584168434143066,-0.09811826795339584,-2.7870795726776123
1413394882930760500,0.014085397124290466,0.02836557663977146,0.07851281017065048,9.641118049621582,0.1797446310520172,-2.844533920288086
1413394882935760500,0.0008028745651245117,0.027662750333547592,0.07921912521123886,9.33896255493164,0.1882149577140808,-2.5991599559783936
1413394882940760500,-0.01315373182296753,0.03462129831314087,0.07501182705163956,9.477320671081543,0.06545433402061462,-2.8688735961914062
1413394882945760500,-0.021553248167037964,0.02623433619737625,0.08059590309858322,9.077324867248535,0.03315160796046257,-2.419005870819092
1413394882950760500,-0.015983864665031433,0.02483174577355385,0.08959566801786423,9.542506217956543,-0.2451147735118866,-2.7460062503814697
1413394882955760500,-0.00902162492275238,0.03459075465798378,0.08609255403280258,9.14208984375,-0.43259745836257935,-2.4187815189361572
1413394882960760500,0.005628123879432678,0.015053238719701767,0.09308508783578873,9.453058242797852,-0.3268081545829773,-2.762267827987671
1413394882965760500,0.012648344039916992,0.024160509929060936,0.08545110374689102,9.396119117736816,-0.024356281384825706,-2.5744612216949463
1413394882970760500,0.009860768914222717,0.026246843859553337,0.083360455930233,9.567485809326172,-0.040904924273490906,-2.8442647457122803
1413394882975760500,0.002200767397880554,0.032546933740377426,0.07569178193807602,9.477537155151367,0.04101451858878136,-2.599048614501953
1413394882980760500,-0.0012869834899902344,0.01718882843852043,0.07991180568933487,9.396211624145508,0.15545909106731415,-2.713712453842163
1413394882985760500,-0.008969530463218689,0.031142719089984894,0.07780005782842636,9.395853996276855,0.08192294836044312,-2.639967679977417
1413394882990760500,-0.011797189712524414,0.01575280725955963,0.08683940023183823,9.25704288482666,-0.15501362085342407,-2.6397669315338135
1413394882995760500,-0.009007960557937622,0.019947558641433716,0.08749177306890488,9.534402847290039,-0.30226853489875793,-2.6969592571258545
1413394883000760500,-0.0006318539381027222,0.017154544591903687,0.07983625680208206,9.28145694732666,-0.2775256335735321,-2.5497846603393555
1413394883005760500,0.003567531704902649,0.011581402271986008,0.07495642453432083,9.453108787536621,-0.22865323722362518,-2.688885450363159
1413394883010760500,0.003601551055908203,0.017881985753774643,0.07637988775968552,9.641012191772461,-0.024529913440346718,-2.7953639030456543
1413394883015760500,-0.0005774945020675659,0.026960497722029686,0.07082266360521317,9.567399024963379,0.0736088678240776,-2.803562879562378
1413394883020760500,-0.008271858096122742,0.03462492674589157,0.07153037935495377,9.379409790039062,0.09006631374359131,-2.7707748413085938
1413394883025760500,-0.008297771215438843,0.03530595079064369,0.08057404309511185,9.305842399597168,-0.05701131001114845,-2.6806399822235107
1413394883030760500,-0.008303835988044739,0.025532908737659454,0.08543749898672104,9.305923461914062,-0.1468658745288849,-2.5988667011260986
1413394883035760500,-0.0034299641847610474,0.018544673919677734,0.08402099460363388,9.23239803314209,-0.30201786756515503,-2.5252108573913574
1413394883040760500,5.701184272766113e-05,0.019946962594985962,0.0881858840584755,9.485472679138184,-0.34310072660446167,-2.656040668487549
1413394883045760500,0.006346672773361206,0.02134796231985092,0.08612165600061417,9.2897310256958,-0.22038589417934418,-2.525254011154175
1413394883050760500,0.005670815706253052,0.013681355863809586,0.07916461676359177,9.502245903015137,-0.10617781430482864,-2.7788913249969482
1413394883055760500,0.002198845148086548,0.032542720437049866,0.08126264065504074,9.559168815612793,0.008216382935643196,-2.6481146812438965
1413394883060760500,-0.005487978458404541,0.022050850093364716,0.08130113035440445,9.379602432250977,0.10634560137987137,-2.942486524581909
1413394883065760500,-0.01317228376865387,0.03811248391866684,0.08265785127878189,9.3466157913208,-0.024281075224280357,-2.533500909805298
1413394883070760500,-0.010406643152236938,0.024126414209604263,0.0861334279179573,9.305871963500977,-0.19592775404453278,-2.688737392425537
1413394883075760500,-0.005512923002243042,0.030423220247030258,0.08122197538614273,9.403656005859375,-0.26128971576690674,-2.5742743015289307
1413394883080760500,5.882978439331055e-05,0.0122649185359478,0.09450367838144302,9.273541450500488,-0.19591300189495087,-2.5906972885131836
1413394883085760500,0.003567725419998169,0.024849161505699158,0.08538389950990677,9.665009498596191,-0.2941986918449402,-2.6316213607788086
1413394883090760500,0.011926516890525818,0.015062950551509857,0.08403473347425461,9.330713272094727,-0.2286260724067688,-2.639735221862793
1413394883095760500,0.014072299003601074,0.02208608016371727,0.07987857609987259,9.559551239013672,0.07363946735858917,-2.615514039993286
1413394883100760500,0.0015140920877456665,0.029759353026747704,0.07852084189653397,9.485882759094238,0.20442041754722595,-2.7464230060577393
1413394883105760500,-0.013827025890350342,0.037428759038448334,0.07641961425542831,9.599845886230469,0.17164842784404755,-2.860860824584961
1413394883110760500,-0.01736779510974884,0.03810303658246994,0.08264949172735214,9.297503471374512,-0.08961332589387894,-2.5252552032470703
1413394883115760500,-0.010399192571640015,0.02692471072077751,0.08474456518888474,9.33855152130127,-0.13873960077762604,-2.7051382064819336
1413394883120760500,-0.004134878516197205,0.022017143666744232,0.08824654668569565,9.01198959350586,-0.19572769105434418,-2.508777618408203
1413394883125760500,4.805624485015869e-05,0.009468596428632736,0.08889695256948471,9.502047538757324,-0.3431565761566162,-2.8358640670776367
1413394883130760500,0.00774344801902771,0.018562886863946915,0.08537556976079941,9.575263023376465,-0.3757978081703186,-2.590719699859619
1413394883135760500,0.01961803436279297,0.017169304192066193,0.07917214184999466,9.428863525390625,-0.10615451633930206,-2.7706425189971924
1413394883140760500,0.010577172040939331,0.0283631831407547,0.07013902813196182,9.387925148010254,0.13096758723258972,-2.6399941444396973
1413394883145760500,-0.0026530921459198,0.030467553064227104,0.07502815872430801,9.608318328857422,0.2125602811574936,-2.7301347255706787
1413394883150760500,-0.013139411807060242,0.036032021045684814,0.06665221601724625,9.452834129333496,0.13092589378356934,-2.7708518505096436
1413394883155760500,-0.013184577226638794,0.03041117638349533,0.0784984901547432,9.150735855102539,-0.016028769314289093,-2.639777421951294
1413394883160760500,-0.0152883380651474,0.03320220857858658,0.07984697073698044,9.313775062561035,-0.22039619088172913,-2.6559786796569824
1413394883165760500,-0.011117830872535706,0.019231371581554413,0.09239432960748672,9.1996488571167,-0.3183688521385193,-2.5496726036071777
1413394883170760500,-0.0020539164543151855,0.01365230605006218,0.08678319305181503,9.485419273376465,-0.46564435958862305,-2.7540440559387207
1413394883175760500,0.010539516806602478,0.026939675211906433,0.07773149758577347,9.46917724609375,-0.277695894241333,-2.6070077419281006
1413394883180760500,0.021021530032157898,0.011590220034122467,0.08055999130010605,9.592266082763672,-0.1144639253616333,-2.876969814300537
1413394883185760500,0.011982589960098267,0.03395632654428482,0.07292483001947403,9.502212524414062,0.15541470050811768,-2.623667001724243
1413394883190760500,0.0008040964603424072,0.03184255212545395,0.07991261035203934,9.420485496520996,0.16356362402439117,-2.7545266151428223
1413394883195760500,-0.014544814825057983,0.03183712065219879,0.08128529042005539,9.526420593261719,0.08178940415382385,-2.779019594192505
1413394883200760500,-0.019469112157821655,0.031115218997001648,0.08543206006288528,9.281197547912598,-0.15498435497283936,-2.541595935821533
1413394883205760500,-0.01879216730594635,0.03040328249335289,0.09238789230585098,9.305560111999512,-0.2939426302909851,-2.606867790222168
1413394883210760500,-0.005529806017875671,0.012961804866790771,0.0972599908709526,9.273289680480957,-0.3347317576408386,-2.4761886596679688
1413394883215760500,0.0007406175136566162,0.010165650397539139,0.08958550542593002,9.55097484588623,-0.39222007989883423,-2.8521738052368164
1413394883220760500,0.015409141778945923,0.02204108238220215,0.08053582161664963,9.387712478637695,-0.29403623938560486,-2.688690662384033
1413394883225760500,0.020327359437942505,0.016477232798933983,0.07988179475069046,9.502424240112305,-0.024512317031621933,-2.868825674057007
1413394883230760500,0.01408204436302185,0.03536045551300049,0.0736536756157875,9.485976219177246,0.2943667769432068,-2.6810302734375
1413394883235760500,-0.0012773722410202026,0.03115571290254593,0.07993156462907791,9.445038795471191,0.2698262631893158,-2.771021604537964
1413394883240760500,-0.008970007300376892,0.03951592370867729,0.08057927340269089,9.485504150390625,0.049134377390146255,-2.6808018684387207
1413394883245760500,-0.0201682448387146,0.02482697181403637,0.0854489877820015,9.248684883117676,-0.11413491517305374,-2.6315815448760986
1413394883250760500,-0.015990614891052246,0.02063136175274849,0.08753692358732224,9.248740196228027,-0.1713678240776062,-2.696930408477783
1413394883255760500,-0.01041644811630249,0.022730324417352676,0.08748357743024826,9.354580879211426,-0.4001285433769226,-2.5742175579071045
1413394883260760500,0.0028413385152816772,0.010865584015846252,0.086807020008564,9.453060150146484,-0.3349384665489197,-2.7868244647979736
1413394883265760500,0.013345032930374146,0.024856407195329666,0.07842852920293808,9.583599090576172,-0.22059011459350586,-2.6152892112731934
1413394883270760500,0.01682695746421814,0.01926141232252121,0.07638334482908249,9.412450790405273,-0.10613933205604553,-2.786968946456909
1413394883275760500,0.0056989192962646484,0.030455539003014565,0.07014233618974686,9.461320877075195,0.14723087847232819,-2.746340751647949
1413394883280760500,-0.004771769046783447,0.024866975843906403,0.07365890592336655,9.330696105957031,0.26173198223114014,-2.7873663902282715
1413394883285760500,-0.013866662979125977,0.04090087488293648,0.07846727222204208,9.468955993652344,-0.06527252495288849,-2.6888461112976074
1413394883290760500,-0.020178258419036865,0.02132425084710121,0.0840461328625679,9.126131057739258,-0.21208801865577698,-2.5578935146331787
1413394883295760500,-0.013202682137489319,0.026918362826108932,0.08401695638895035,9.419963836669922,-0.30219757556915283,-2.729536771774292
1413394883300760500,5.182623863220215e-05,0.01994042843580246,0.09097764641046524,9.232311248779297,-0.3918720781803131,-2.4597766399383545
1413394883305760500,0.0119096040725708,0.014360006898641586,0.0868014469742775,9.632732391357422,-0.3678026795387268,-2.925715208053589
1413394883310760500,0.015444397926330566,0.022068336606025696,0.07564485818147659,9.559209823608398,-0.18787682056427002,-2.5989737510681152
1413394883315760500,0.016134202480316162,0.019261328503489494,0.0770956501364708,9.420650482177734,-0.03262436017394066,-2.893287420272827
1413394883320760500,0.008481070399284363,0.031852081418037415,0.07153765112161636,9.355213165283203,0.14733727276325226,-2.6072661876678467
1413394883325760500,-0.0033755749464035034,0.02416457235813141,0.08269872516393661,9.502206802368164,0.15533249080181122,-2.8281798362731934
1413394883330760500,-0.014552459120750427,0.03603299707174301,0.08405368775129318,9.444703102111816,0.041079722344875336,-2.500900983810425
1413394883335760500,-0.01530522108078003,0.01991945132613182,0.09311983734369278,9.118066787719727,-0.22032995522022247,-2.6232500076293945
1413394883340760500,-0.0125189870595932,0.02341509237885475,0.08820053189992905,9.264820098876953,-0.37560635805130005,-2.6476995944976807
1413394883345760500,-0.0013469904661178589,0.005276147276163101,0.09378733485937119,9.265301704406738,-0.3266124129295349,-2.590653896331787
1413394883350760500,0.015425443649291992,0.019958529621362686,0.09100132435560226,9.665496826171875,-0.19627055525779724,-2.827817440032959
1413394883355760500,0.014045163989067078,0.02485792711377144,0.07916248589754105,9.404194831848145,-0.08154640346765518,-2.5662527084350586
1413394883360760500,0.007772877812385559,0.029041940346360207,0.07569584995508194,9.502090454101562,-0.008129201829433441,-2.811579704284668
1413394883365760500,-0.0019813627004623413,0.026273801922798157,0.07014747709035873,9.314422607421875,0.18014788627624512,-2.525521993637085
1413394883370760500,-0.0082634836435318,0.02904384955763817,0.08267801254987717,9.583657264709473,0.06537263095378876,-2.844418525695801
1413394883375760500,-0.01667192578315735,0.038797277957201004,0.08265473693609238,9.313834190368652,-0.08149303495883942,-2.5988433361053467
1413394883380760500,-0.010412633419036865,0.024819113314151764,0.09101932495832443,9.183382987976074,-0.2039974480867386,-2.566056251525879
1413394883385760500,-0.010406330227851868,0.02552793174982071,0.08261676877737045,9.403655052185059,-0.30215170979499817,-2.6478278636932373
1413394883390760500,0.0007619857788085938,0.01855410262942314,0.0861089751124382,9.428450584411621,-0.2695232629776001,-2.6397359371185303
1413394883395760500,0.009141296148300171,0.01157759502530098,0.08681827038526535,9.608382225036621,-0.22070452570915222,-2.876864194869995
1413394883400760500,0.011967167258262634,0.026956818997859955,0.07011827081441879,9.477666854858398,0.016446638852357864,-2.7462196350097656
1413394883405760500,0.0021823495626449585,0.023450220003724098,0.07432373613119125,9.249024391174316,0.05744049698114395,-2.713505268096924
1413394883410760500,0.00012183189392089844,0.028359906747937202,0.07293527573347092,9.510298728942871,0.1635414958000183,-2.8118107318878174
1413394883415760500,-0.008285775780677795,0.03112606517970562,0.08546707779169083,9.420310020446777,0.024605046957731247,-2.7788968086242676
1413394883420760500,-0.01667684316635132,0.027621299028396606,0.0805547907948494,9.371082305908203,-0.16325870156288147,-2.7460062503814697
1413394883425760500,-0.01041877269744873,0.02900638058781624,0.08540753275156021,9.289239883422852,-0.3592676520347595,-2.6068484783172607
1413394883430760500,-0.002046257257461548,0.018540754914283752,0.08889009803533554,9.371150016784668,-0.37569764256477356,-2.647801399230957
1413394883435760500,0.01261843740940094,0.026230089366436005,0.08751397579908371,9.338671684265137,-0.2613278329372406,-2.5987706184387207
1413394883440760500,0.012632861733436584,0.009482406079769135,0.08126430958509445,9.339056968688965,-0.13877910375595093,-2.7461037635803223
1413394883445760500,0.005694344639778137,0.025565091520547867,0.07498341053724289,9.591923713684082,-0.0163103174418211,-2.6890358924865723
1413394883450760500,0.00218278169631958,0.022053135558962822,0.07501792162656784,9.28169059753418,0.04106117784976959,-2.754385471343994
1413394883455760500,-0.004774078726768494,0.03323719650506973,0.07501886039972305,9.469328880310059,0.11451306194067001,-2.779014825820923
1413394883460760500,-0.015966057777404785,0.026236385107040405,0.08268671482801437,9.248847007751465,0.041119370609521866,-2.6399035453796387
1413394883465760500,-0.01668533682823181,0.02831801027059555,0.08821191638708115,9.395514488220215,-0.22048409283161163,-2.6805553436279297
1413394883470760500,-0.004133626818656921,0.02692495286464691,0.09235385805368423,9.24838924407959,-0.44900932908058167,-2.402536153793335
1413394883475760500,0.009123295545578003,0.022040564566850662,0.08958687633275986,9.575403213500977,-0.343235582113266,-2.7786080837249756
1413394883480760500,0.01403762400150299,0.020665593445301056,0.08754628151655197,9.322699546813965,-0.04065725579857826,-2.5417280197143555
1413394883485760500,0.014745667576789856,0.015081144869327545,0.08126964420080185,9.518714904785156,-0.049024634063243866,-2.82796573638916
1413394883490760500,0.0035992711782455444,0.031847525388002396,0.0679977759718895,9.542710304260254,-0.057085637003183365,-2.6153557300567627
1413394883495760500,-0.004070907831192017,0.015091003850102425,0.07503082603216171,9.445104598999023,0.1554049849510193,-2.8690836429595947
1413394883500760500,-0.013139799237251282,0.03394868224859238,0.07153210788965225,9.436649322509766,0.15551158785820007,-2.6073315143585205
1413394883505760500,-0.017363741993904114,0.024836063385009766,0.08056724816560745,9.395702362060547,-0.0815674364566803,-2.770648717880249
1413394883510760500,-0.016691669821739197,0.034599654376506805,0.0783994123339653,9.46030330657959,-0.4491652846336365,-2.6150221824645996
1413394883515760500,0.002838805317878723,0.010162528604269028,0.08750156313180923,9.289694786071777,-0.3756265342235565,-2.61513614654541
1413394883520760500,0.016808122396469116,0.026930395513772964,0.08332882076501846,9.297874450683594,-0.2612743079662323,-2.5578877925872803
1413394883525760500,0.019616395235061646,0.01158575527369976,0.08895716816186905,9.282090187072754,-0.016171297058463097,-2.63171648979187
1413394883530760500,0.010600179433822632,0.016496112570166588,0.08547072857618332,9.747414588928223,0.12246600538492203,-2.860936403274536
1413394883535760500,-0.0026788264513015747,0.020679261535406113,0.0729275569319725,9.412406921386719,0.11461389809846878,-2.6973087787628174
1413394883540760500,-0.013835087418556213,0.02835373766720295,0.06665750592947006,9.444781303405762,0.14727695286273956,-2.8199751377105713
1413394883545760500,-0.016666129231452942,0.019950244575738907,0.07847917824983597,9.3059663772583,-0.07330621778964996,-2.688910484313965
1413394883550760500,-0.015985190868377686,0.02901897206902504,0.07771850377321243,9.362580299377441,-0.35923200845718384,-2.549708843231201
1413394883555760500,-0.0013635903596878052,0.0234118290245533,0.0902876928448677,9.264866828918457,-0.44915932416915894,-2.6558163166046143
1413394883560760500,0.014011576771736145,0.022036436945199966,0.09172187000513077,9.281723022460938,-0.17963123321533203,-2.664201021194458
1413394883565760500,0.01267164945602417,0.010914554819464684,0.08197268098592758,9.502567291259766,0.057343896478414536,-2.6073787212371826
1413394883570760500,0.0022137612104415894,0.023468628525733948,0.07427114993333817,9.746954917907715,-0.06545637547969818,-2.7544734477996826
1413394883575760500,-0.01248246431350708,0.032512202858924866,0.05400732904672623,9.419608116149902,-0.36739036440849304,-2.67230224609375
1413394883580760500,-0.018731698393821716,-0.002373669296503067,0.052676744759082794,9.330615043640137,-0.040547002106904984,-2.8852925300598145
1413394883585760500,-0.021524831652641296,0.0032112784683704376,0.0421023890376091,9.53398609161377,-0.45716679096221924,-2.5500357151031494
1413394883590760500,-0.007593065500259399,-0.024728301912546158,0.04561641067266464,9.36331844329834,-0.47349369525909424,-2.6890408992767334
1413394883595760500,0.015479356050491333,-0.017702728509902954,0.0588950589299202,9.665982246398926,-0.1633136123418808,-2.6320571899414062
1413394883600760500,0.02181895077228546,0.014428628608584404,0.0855327770113945,9.878231048583984,0.47389498353004456,-3.024756669998169
1413394883605760500,-0.0005739927291870117,0.04231710731983185,0.06943800300359726,9.567204475402832,0.13895711302757263,-2.81170654296875
1413394883610760500,-0.006225794553756714,0.030389174818992615,0.08895345777273178,9.224279403686523,-0.03251746669411659,-3.0320279598236084
1413394883615760500,0.004210323095321655,0.06248783692717552,0.14058712124824524,9.273174285888672,0.1387767642736435,-2.9012417793273926
1413394883620760500,-0.0028174370527267456,0.05545497313141823,0.1790008246898651,8.815824508666992,0.16343335807323456,-2.6394693851470947
1413394883625760500,-0.01820036768913269,0.047105833888053894,0.17750075459480286,9.289114952087402,-0.41699591279029846,-2.883995294570923
1413394883630760500,-0.013955920934677124,0.03945164754986763,0.13979119062423706,8.888230323791504,-0.922722578048706,-2.345141649246216
1413394883635760500,-0.0013711154460906982,0.004521191120147705,0.06443830579519272,9.06842041015625,-1.061549425125122,-2.6397528648376465
1413394883640760500,0.03357751667499542,-0.01354314386844635,0.028844617307186127,9.477629661560059,-0.5879030227661133,-2.656280517578125
1413394883645760500,0.05042277276515961,-0.007169587537646294,0.024801604449748993,9.560029029846191,0.26184383034706116,-2.697394371032715
1413394883650760500,0.029424846172332764,0.03545684367418289,0.024236492812633514,9.273633003234863,0.8914251327514648,-2.558260917663574
1413394883655760500,-0.022232264280319214,-0.004389781504869461,0.024919085204601288,8.857193946838379,0.7202191352844238,-2.3370838165283203
1413394883660760500,-0.058408692479133606,0.0067290011793375015,0.02131190150976181,9.713594436645508,0.09022775292396545,-2.983686685562134
1413394883665760500,-0.05292804539203644,0.01926945522427559,0.06104957312345505,9.207735061645508,0.041418954730033875,-2.4191482067108154
1413394883670760500,-0.021599039435386658,0.01991579681634903,0.12165138870477676,10.211822509765625,-0.4418572187423706,-3.1380772590637207
1413394883675760500,-0.0006365180015563965,0.06253881752490997,0.12514930963516235,8.783018112182617,-0.4404717683792114,-1.985555648803711
1413394883680760500,0.015349596738815308,0.0073581263422966,0.12653863430023193,9.420361518859863,-0.5638263821601868,-2.6803362369537354
1413394883685760500,0.02586744725704193,0.04996132850646973,0.10631807893514633,10.105735778808594,-0.3765178918838501,-2.990816116333008
1413394883690760500,0.04331323504447937,0.03671036660671234,0.13079410791397095,9.453606605529785,0.016177868470549583,-2.6233787536621094
1413394883695760500,0.03427320718765259,0.053466297686100006,0.12102045863866806,9.820619583129883,0.05670354887843132,-2.8604979515075684
1413394883700760500,0.007055386900901794,0.03531409427523613,0.08338277786970139,8.881478309631348,-0.0075552258640527725,-2.1571433544158936
1413394883705760500,-0.013129264116287231,-0.0030525773763656616,0.055507101118564606,9.347065925598145,0.171885147690773,-2.967255115509033
1413394883710760500,-0.029833629727363586,0.00672844797372818,0.050615064799785614,9.681541442871094,0.13908781111240387,-2.9755096435546875
1413394883715760500,-0.03686857223510742,0.006005048751831055,0.06381157785654068,9.542642593383789,-0.1060117706656456,-2.7382125854492188
1413394883720760500,-0.028508290648460388,0.014383163303136826,0.054658956825733185,9.158440589904785,-0.46497347950935364,-2.2229652404785156
1413394883725760500,-0.01316690444946289,0.010883163660764694,0.04910645633935928,9.387222290039062,-0.39176738262176514,-2.549901008605957
1413394883730760500,-0.0012853443622589111,-0.0009721126407384872,0.047814540565013885,9.191925048828125,0.08208635449409485,-2.860765218734741
1413394883735760500,0.00218924880027771,0.01716742292046547,0.06172456592321396,9.599970817565918,-0.13886146247386932,-3.03216290473938
1413394883740760500,0.021669939160346985,0.06462057679891586,0.09375891834497452,9.509424209594727,-0.3922478258609772,-2.614804744720459
1413394883745760500,0.03283208608627319,0.022700872272253036,0.11202966421842575,8.669458389282227,-0.015959111973643303,-2.304326057434082
1413394883750760500,0.02169795334339142,0.04368676617741585,0.1050310805439949,9.265453338623047,0.17168231308460236,-2.680755138397217
1413394883755760500,-0.01176956295967102,0.026953570544719696,0.10367501527070999,9.298103332519531,0.40878593921661377,-2.795681953430176
1413394883760760500,-0.02640111744403839,0.02969512902200222,0.11057228595018387,9.868904113769531,0.13877618312835693,-3.408003091812134
1413394883765760500,-0.02996841073036194,0.07019704580307007,0.10000769048929214,9.475838661193848,-0.45741766691207886,-2.5411601066589355
1413394883770760500,-0.0069606006145477295,0.030373360961675644,0.1077365055680275,8.986974716186523,-0.5388407111167908,-2.459502696990967
1413394883775760500,0.011911347508430481,0.024134580045938492,0.08957571536302567,9.354788780212402,-0.42467933893203735,-2.5333335399627686
1413394883780760500,0.012674927711486816,0.010906992480158806,0.06663448363542557,9.526866912841797,0.01642473414540291,-2.844433546066284
1413394883785760500,0.002949818968772888,0.0241683442145586,0.06666439026594162,9.795928001403809,0.18789909780025482,-3.1305959224700928
1413394883790760500,-0.0034023523330688477,0.033924128860235214,0.058868713676929474,9.460423469543457,-0.38372498750686646,-2.5088977813720703
1413394883795760500,0.003581896424293518,0.008099686354398727,0.05890028923749924,9.159103393554688,-0.2772842347621918,-2.3536734580993652
1413394883800760500,0.007095158100128174,0.00044810958206653595,0.06105958670377731,9.298432350158691,0.06574880331754684,-2.533750534057617
1413394883805760500,-0.006773397326469421,0.026277586817741394,0.06528367847204208,9.951098442077637,0.28591740131378174,-3.024573564529419
1413394883810760500,-0.027778029441833496,0.022786159068346024,0.09113199263811111,9.469396591186523,0.5150241255760193,-2.9594595432281494
1413394883815760500,-0.031335994601249695,0.04506862536072731,0.10074392706155777,9.746136665344238,-0.22896888852119446,-2.8358190059661865
1413394883820760500,-0.01737441122531891,0.05764564499258995,0.07346449047327042,9.108536720275879,-0.8160836100578308,-2.2474379539489746
1413394883825760500,0.014700636267662048,0.010835502296686172,0.09314893931150436,8.685569763183594,-0.27729037404060364,-2.2879996299743652
1413394883830760500,0.033616483211517334,0.01369311660528183,0.10987315326929092,9.92734146118164,0.12216905504465103,-2.9834632873535156
1413394883835760500,0.01683656871318817,0.03811105713248253,0.10016211122274399,9.412388801574707,0.29419007897377014,-2.9344282150268555
1413394883840760500,0.005674123764038086,0.037412188947200775,0.10849323123693466,9.600157737731934,0.14696364104747772,-2.8770947456359863
1413394883845760500,-0.005519121885299683,0.03949510678648949,0.08819495886564255,9.183074951171875,-0.293740451335907,-2.3534300327301025
1413394883850760500,-0.009679555892944336,0.0087723508477211,0.05332060903310776,8.758706092834473,-0.43219032883644104,-2.15745210647583
1413394883855760500,0.007090285420417786,-0.02329297363758087,0.07710989564657211,9.388644218444824,0.06557020545005798,-2.7465367317199707
1413394883860760500,-0.010287880897521973,0.02068633772432804,0.07293116301298141,9.910351753234863,0.18784353137016296,-2.9509801864624023
1413394883865760500,-0.03128792345523834,0.035318996757268906,0.06874532252550125,9.411805152893066,0.12278888374567032,-2.8444416522979736
1413394883870760500,-0.02295057475566864,0.037400439381599426,0.0707390233874321,9.607234954833984,-0.34307554364204407,-2.7132070064544678
1413394883875760500,-0.006202533841133118,0.03880833461880684,0.060883842408657074,9.467761039733887,-0.8245105147361755,-2.4109692573547363
1413394883880760500,0.009845271706581116,0.013644441962242126,0.04917309433221817,8.840497016906738,-0.25269147753715515,-2.4270334243774414
1413394883885760500,0.03644169867038727,0.006743287667632103,0.0882764384150505,9.86220932006836,0.24496962130069733,-2.8937759399414062
1413394883890760500,0.018286824226379395,0.03394559025764465,0.10297516733407974,9.738981246948242,0.5229099988937378,-3.11456298828125
1413394883895760500,-0.013833940029144287,0.04859887436032295,0.10715387016534805,9.591718673706055,0.48216307163238525,-2.9511075019836426
1413394883900760500,-0.014604240655899048,0.04995883256196976,0.12102798372507095,9.330294609069824,0.03278199955821037,-2.566124200820923
1413394883905760500,-0.025073811411857605,0.0408710315823555,0.0783771201968193,9.24755573272705,-0.6612335443496704,-2.4596574306488037
1413394883910760500,5.543231964111328e-05,-0.0010149218142032623,0.07491578906774521,9.003668785095215,-0.6529627442359924,-2.361863613128662
1413394883915760500,0.025195330381393433,-0.002373507246375084,0.09381669014692307,9.445619583129883,-0.11438214778900146,-2.738044023513794
1413394883920760500,0.009894222021102905,0.015087028965353966,0.10083243995904922,9.731084823608398,0.21231122314929962,-3.0407650470733643
1413394883925760500,-0.015231311321258545,0.030432039871811867,0.09174642711877823,9.7387056350708,0.09793587028980255,-2.9915859699249268
1413394883930760500,-0.013171732425689697,0.04998093470931053,0.07985556870698929,9.387170791625977,-0.05698348954319954,-2.5088939666748047
1413394883935760500,-0.008993178606033325,0.02831549197435379,0.05115605145692825,9.051918029785156,-0.8160502910614014,-2.2966270446777344
1413394883940760500,0.0056724101305007935,-0.0030768103897571564,0.047023557126522064,9.248902320861816,-0.38354742527008057,-2.500882387161255
1413394883945760500,0.01757533848285675,-0.0023303963243961334,0.07227260619401932,9.388473510742188,0.3189184367656708,-2.8120415210723877
1413394883950760500,-0.0026167631149291992,0.028394442051649094,0.10022730380296707,9.763419151306152,0.7355214357376099,-3.0904014110565186
1413394883955760500,-0.029874935746192932,0.05137205123901367,0.10432464629411697,9.738386154174805,0.2940880060195923,-2.9917311668395996
1413394883960760500,-0.026460647583007812,0.055546607822179794,0.09374768286943436,9.198807716369629,-0.36722344160079956,-2.3124449253082275
1413394883965760500,-0.011812597513198853,0.03738170489668846,0.07068993896245956,9.23124885559082,-0.8081568479537964,-2.4434568881988525
1413394883970760500,0.012625858187675476,0.013664204627275467,0.06790588051080704,9.117790222167969,-0.7346137166023254,-2.321101427078247
1413394883975760500,0.027994945645332336,-0.0030654892325401306,0.07566151767969131,9.396512031555176,-0.1959616243839264,-2.623565673828125
1413394883980760500,0.025275230407714844,0.025578942149877548,0.10437069088220596,9.796375274658203,0.5310588479042053,-3.0900826454162598
1413394883985760500,-0.007546469569206238,0.04303116351366043,0.10436876863241196,9.608283042907715,0.49854740500450134,-2.8612241744995117
1413394883990760500,-0.01877531409263611,0.0548529326915741,0.08886901289224625,9.631540298461914,-0.3105308413505554,-2.639519691467285
1413394883995760500,-0.017378300428390503,0.04087545722723007,0.06377523392438889,9.101035118103027,-0.3998052179813385,-2.4106109142303467
1413394884000760500,-0.004810407757759094,0.0003865659236907959,0.056098394095897675,8.962890625,-0.5058783292770386,-2.361819267272949
1413394884005760500,0.006378859281539917,-0.024005945771932602,0.06307967752218246,9.535260200500488,-0.2694839835166931,-2.6891918182373047
1413394884010760500,0.011340051889419556,0.01091562770307064,0.09178585559129715,9.910754203796387,0.34305861592292786,-3.098179817199707
1413394884015760500,-0.001276746392250061,0.03185725584626198,0.10574281960725784,9.575858116149902,0.3841433525085449,-2.7957026958465576
1413394884020760500,-0.018745362758636475,0.04369840398430824,0.09939471632242203,9.616036415100098,0.04899885877966881,-2.688999652862549
1413394884025760500,-0.020173445343971252,0.037399567663669586,0.0832780972123146,9.509243965148926,-0.3920227885246277,-2.5660266876220703
1413394884030760500,-0.002035483717918396,0.03319155052304268,0.06585150212049484,9.060347557067871,-0.5631129741668701,-2.3861582279205322
1413394884035760500,0.01472504436969757,-0.002393532544374466,0.06867866963148117,9.020517349243164,-0.3508246839046478,-2.386324882507324
1413394884040760500,0.01477515697479248,0.003924408927559853,0.08336732536554337,9.739395141601562,0.03255324438214302,-2.9507930278778076
1413394884045760500,0.0064003318548202515,0.040226735174655914,0.09877308458089828,9.583839416503906,0.3840658962726593,-2.9019222259521484
1413394884050760500,-0.0027022510766983032,0.050681278109550476,0.10502805560827255,9.453004837036133,0.2615448236465454,-2.738177537918091
1413394884055760500,-0.0264311283826828,0.04927653819322586,0.08195898681879044,9.378948211669922,-0.016133036464452744,-2.5743496417999268
1413394884060760500,-0.019475936889648438,0.026908650994300842,0.06798351556062698,9.117693901062012,-0.31820565462112427,-2.541468620300293
1413394884065760500,-0.0013275444507598877,0.010863196104764938,0.06514719873666763,9.052532196044922,-0.5712519288063049,-2.3454713821411133
1413394884070760500,0.011233672499656677,-0.010065615177154541,0.06728311628103256,9.379944801330566,-0.3103015124797821,-2.7951676845550537
1413394884075760500,0.016158998012542725,0.006022442132234573,0.0854724571108818,9.535334587097168,0.08175406605005264,-2.779125213623047
1413394884080760500,0.009906232357025146,0.022092308849096298,0.10015206784009933,9.69853687286377,0.33502185344696045,-2.820241689682007
1413394884085760500,-0.006164044141769409,0.03672909736633301,0.09106225520372391,9.608192443847656,0.17976777255535126,-2.8118085861206055
1413394884090760500,-0.018040627241134644,0.04160551726818085,0.0756843164563179,9.517935752868652,-0.008068161085247993,-2.7052841186523438
1413394884095760500,-0.018780946731567383,0.026916123926639557,0.06865371018648148,9.387020111083984,-0.4082585573196411,-2.688621759414673
1413394884100760500,-0.0013309121131896973,0.02831866219639778,0.06236279755830765,9.28908920288086,-0.4734739661216736,-2.525160074234009
1413394884105760500,0.010540679097175598,0.016466543078422546,0.07984504848718643,9.502157211303711,-0.21241608262062073,-2.762420177459717
1413394884110760500,0.011969983577728271,0.020678510889410973,0.09383688122034073,9.600447654724121,0.09802713990211487,-2.7463815212249756
1413394884115760500,0.0015221834182739258,0.038823239505290985,0.0931592509150505,9.71437931060791,0.21234160661697388,-2.909931182861328
1413394884120760500,-0.013867855072021484,0.040902554988861084,0.08967263251543045,9.346760749816895,0.1472623497247696,-2.6972057819366455
1413394884125760500,-0.020153582096099854,0.030425136908888817,0.07776237279176712,9.403681755065918,-0.12237853556871414,-2.6561505794525146
1413394884130760500,-0.008317098021507263,0.02621995285153389,0.07632943242788315,9.264710426330566,-0.4000190198421478,-2.5414888858795166
1413394884135760500,0.007019981741905212,0.017819151282310486,0.07286538928747177,9.044530868530273,-0.45711538195610046,-2.5740997791290283
1413394884140760500,0.012640699744224548,-0.003074025735259056,0.08476557582616806,9.257686614990234,-0.06514306366443634,-2.6235928535461426
1413394884145760500,0.004990860819816589,0.00392225943505764,0.09593070298433304,9.576129913330078,0.08170747756958008,-2.787346839904785
1413394884150760500,-0.0033660531044006348,0.024863801896572113,0.09383580833673477,9.722678184509277,0.12247834354639053,-2.8200314044952393
1413394884155760500,-0.014557108283042908,0.03322703763842583,0.0861835703253746,9.395821571350098,0.1390702873468399,-2.7544984817504883
1413394884160760500,-0.01876121759414673,0.026933997869491577,0.08124274760484695,9.420060157775879,-0.14690648019313812,-2.6398003101348877
1413394884165760500,-0.005536884069442749,0.029704395681619644,0.07073362916707993,9.403321266174316,-0.5226494669914246,-2.688534736633301
1413394884170760500,0.0105181485414505,0.02062516286969185,0.06797780841588974,9.15070915222168,-0.4081485867500305,-2.5986738204956055
1413394884175760500,0.016135573387145996,0.004609536379575729,0.085482157766819,9.274009704589844,0.04105285182595253,-2.6808695793151855
1413394884180760500,0.007094815373420715,0.016488006338477135,0.0903451219201088,9.690218925476074,0.07344356179237366,-2.83634877204895
1413394884185760500,-0.006852850317955017,0.03881276398897171,0.08408009260892868,9.730473518371582,0.114284448325634,-2.983367919921875
1413394884190760500,-0.00967782735824585,0.04090917110443115,0.09176427870988846,9.379499435424805,0.16360260546207428,-2.656343936920166
1413394884195760500,-0.015966907143592834,0.03670887649059296,0.08265898376703262,9.387407302856445,-0.048866480588912964,-2.656160354614258
1413394884200760500,-0.012502431869506836,0.0373898446559906,0.06864035874605179,9.378630638122559,-0.46541157364845276,-2.5986404418945312
1413394884205760500,0.0035327374935150146,0.024807099252939224,0.06867729872465134,9.191422462463379,-0.41636183857917786,-2.7048678398132324
1413394884210760500,0.014033675193786621,0.012982670217752457,0.08894241601228714,9.29831314086914,-0.06516723334789276,-2.5662801265716553
1413394884215760500,0.006395012140274048,0.007417110726237297,0.08825843781232834,9.60871696472168,0.08170536160469055,-2.8037006855010986
1413394884220760500,-0.0026714056730270386,0.025562336668372154,0.08477392047643661,9.640979766845703,0.10620767623186111,-2.828157424926758
1413394884225760500,-0.004785463213920593,0.027645135298371315,0.09244624525308609,9.534802436828613,0.08990006148815155,-2.8117265701293945
1413394884230760500,-0.008981660008430481,0.03950975090265274,0.07846643775701523,9.436384201049805,-0.057049788534641266,-2.6152708530426025
1413394884235760500,-0.009001538157463074,0.027625832706689835,0.07705240696668625,9.313901901245117,-0.22853802144527435,-2.5906355381011963
1413394884240760500,0.004243329167366028,0.019938167184591293,0.07773896306753159,9.224209785461426,-0.35918834805488586,-2.549696207046509
1413394884245760500,0.009143739938735962,0.012281205505132675,0.08680226653814316,9.428671836853027,-0.2531508803367615,-2.5580646991729736
1413394884250760500,0.005674391984939575,-0.0009687915444374084,0.08613372594118118,9.42907428741455,-0.08970335125923157,-2.566439151763916
1413394884255760500,-0.004761561751365662,0.02765214443206787,0.07916466146707535,9.771390914916992,-0.016467813402414322,-2.819887638092041
1413394884260760500,-0.007594853639602661,0.035310763865709305,0.07710354775190353,9.183425903320312,0.024838915094733238,-2.5580193996429443
1413394884265760500,-0.005472123622894287,0.030442358925938606,0.07775209099054337,9.714080810546875,-0.089954674243927,-2.729865312576294
1413394884270760500,-0.01108357310295105,0.029726024717092514,0.06659027189016342,9.28115177154541,-0.20394568145275116,-2.5415873527526855
1413394884275760500,-0.0034358948469161987,0.020610284060239792,0.07289832085371017,8.987434387207031,-0.24473129212856293,-2.639538288116455
1413394884280760500,0.011239126324653625,0.010885603725910187,0.08332181721925735,9.33891773223877,-0.23672673106193542,-2.5089938640594482
1413394884285760500,0.004279986023902893,-0.003762492910027504,0.08753090351819992,9.494430541992188,-0.08161503821611404,-2.6564276218414307
1413394884290760500,-0.0047657787799835205,0.024862775579094887,0.08127801865339279,9.640915870666504,0.06535517424345016,-2.811769485473633
1413394884295760500,7.012486457824707e-05,0.026231272146105766,0.08964387327432632,9.273454666137695,-0.057010505348443985,-2.6316041946411133
1413394884300760500,0.002188175916671753,0.01786964014172554,0.08753461390733719,9.641018867492676,-0.06545228511095047,-2.8525078296661377
1413394884305760500,-0.00547453761100769,0.023469846695661545,0.07359675318002701,9.44491958618164,0.016556819900870323,-2.5909180641174316
1413394884310760500,-0.01108628511428833,0.017152465879917145,0.0708061084151268,9.25699520111084,-0.11412995308637619,-2.7460832595825195
1413394884315760500,-0.0068891048431396484,0.009494878351688385,0.07915147393941879,9.363356590270996,-0.13046304881572723,-2.52545166015625
1413394884320760500,-0.015938371419906616,-0.006553135812282562,0.08476472645998001,9.551484107971191,0.032781489193439484,-2.8201138973236084
1413394884325760500,-0.026416093111038208,0.02623954974114895,0.08545490354299545,9.567132949829102,0.008211418054997921,-2.8607263565063477
1413394884330760500,-0.019488006830215454,0.026217229664325714,0.09098344296216965,9.54238224029541,-0.3186514973640442,-2.8194472789764404
1413394884335760500,3.026425838470459e-05,0.03040066361427307,0.09656114131212234,9.436333656311035,-0.4003274440765381,-2.74572491645813
1413394884340760500,0.00565260648727417,0.04159555584192276,0.0798364207148552,9.419989585876465,-0.21232904493808746,-2.5905821323394775
1413394884345760500,0.01541873812675476,0.023435521870851517,0.061713479459285736,9.256991386413574,-0.26936379075050354,-2.6723337173461914
1413394884350760500,0.027283698320388794,0.01087314635515213,0.05681727081537247,9.175553321838379,-0.34277814626693726,-2.557936429977417
1413394884355760500,0.030829116702079773,0.009534815326333046,0.0617981031537056,9.363862037658691,0.26176491379737854,-2.7546541690826416
1413394884360760500,0.014787524938583374,0.020695962011814117,0.06251408904790878,9.412415504455566,0.3679313361644745,-2.9509904384613037
1413394884365760500,-0.0012696832418441772,0.022782472893595695,0.07923252135515213,9.477821350097656,0.2616531252861023,-2.7956058979034424
1413394884370760500,-0.01661790907382965,0.03465958312153816,0.07923448830842972,9.477641105651855,0.3108207881450653,-2.623870611190796
1413394884375760500,-0.02853289246559143,0.03530248627066612,0.08548904210329056,9.158828735351562,0.0984150767326355,-2.5908219814300537
1413394884380760500,-0.03833469748497009,0.00944238156080246,0.09450805932283401,9.166964530944824,-0.228484645485878,-2.7295925617218018
1413394884385760500,-0.033455342054367065,0.02062869817018509,0.08883167058229446,9.688664436340332,-0.5963516235351562,-2.754014253616333
1413394884390760500,-0.00277651846408844,0.04087129607796669,0.102796770632267,9.509171485900879,-0.6290372610092163,-2.6638448238372803
1413394884395760500,0.02862691879272461,0.033199287950992584,0.10278991609811783,9.30535888671875,-0.8085489869117737,-2.4924111366271973
1413394884400760500,0.0510018914937973,0.03044259175658226,0.09307088702917099,9.600276947021484,-0.29429566860198975,-2.6069722175598145
1413394884405760500,0.04547341167926788,0.039556682109832764,0.07785200327634811,9.49440860748291,0.36786946654319763,-2.6728131771087646
1413394884410760500,0.013381794095039368,0.026328932493925095,0.0849122479557991,9.420896530151367,0.7684582471847534,-2.804234504699707
1413394884415760500,-0.036753177642822266,0.03607044368982315,0.05209765583276749,9.787278175354004,0.547723650932312,-3.0820703506469727
1413394884420760500,-0.059933021664619446,0.04226892068982124,0.06382331997156143,9.084619522094727,-0.09752742201089859,-2.476118326187134
1413394884425760500,-0.04390378296375275,0.022724051028490067,0.07487133890390396,9.247528076171875,-0.710130512714386,-2.427154302597046
1413394884430760500,-0.011101990938186646,0.013668905943632126,0.08045672625303268,9.395177841186523,-0.5796872973442078,-2.435426950454712
1413394884435760500,0.01682126522064209,-0.00865800678730011,0.09313266724348068,9.257852554321289,-0.07333535701036453,-2.582716464996338
1413394884440760500,0.013411179184913635,0.0032427851110696793,0.08617838472127914,9.829317092895508,0.19600681960582733,-2.9264955520629883
1413394884445760500,-0.0005948245525360107,0.026948826387524605,0.09731889516115189,9.641008377075195,0.08163183182477951,-2.8280887603759766
1413394884450760500,-0.0006476044654846191,0.04158923774957657,0.08954574912786484,9.566454887390137,-0.4656519591808319,-2.582305431365967
1413394884455760500,0.016111955046653748,0.02484958991408348,0.09442494064569473,9.232288360595703,-0.5224701166152954,-2.2882072925567627
1413394884460760500,0.030759140849113464,0.010866668075323105,0.09524508565664291,9.012646675109863,-0.08960500359535217,-2.476168394088745
1413394884465760500,0.01688694953918457,0.005351029336452484,0.09807742387056351,9.625373840332031,0.392299085855484,-2.836683750152588
1413394884470760500,-0.026317059993743896,0.017237428575754166,0.07164254039525986,9.681565284729004,0.6866565942764282,-3.098635196685791
1413394884475760500,-0.050805941224098206,0.03393713757395744,0.06946613639593124,9.452628135681152,0.2536275386810303,-2.803805351257324
1413394884480760500,-0.05156952142715454,0.04505281522870064,0.05952339619398117,9.157187461853027,-0.807931125164032,-2.410723924636841
1413394884485760500,-0.00762532651424408,0.009428754448890686,0.06234467774629593,8.888829231262207,-0.9305155277252197,-2.3864834308624268
1413394884490760500,0.03146420419216156,-0.0009899362921714783,0.08475790172815323,9.184233665466309,-0.1632165014743805,-2.6152584552764893
1413394884495760500,0.029445022344589233,0.0011587422341108322,0.09321694821119308,9.56804084777832,0.4985366761684418,-3.065619945526123
1413394884500760500,-0.0005732625722885132,0.020685607567429543,0.09459840506315231,9.510481834411621,0.40867605805397034,-2.95927357673645
1413394884505760500,-0.006894692778587341,0.04438593611121178,0.10008706897497177,9.656882286071777,-0.03283281996846199,-2.8114981651306152
1413394884510760500,0.004900500178337097,0.04366276040673256,0.09093216806650162,9.49271297454834,-0.7433003783226013,-2.663844108581543
1413394884515760500,0.01190689206123352,0.04295501485466957,0.07424884289503098,9.035988807678223,-0.48974668979644775,-2.4432363510131836
1413394884520760500,0.021026641130447388,0.013696672394871712,0.08831896632909775,9.20053482055664,0.2699292302131653,-2.6564626693725586
1413394884525760500,-0.008922010660171509,0.02490985579788685,0.09605420380830765,9.575661659240723,0.7356283664703369,-3.0250868797302246
1413394884530760500,-0.04942435026168823,0.039505984634160995,0.0778232291340828,9.4688138961792,0.19632546603679657,-2.8772711753845215
1413394884535760500,-0.040443480014801025,0.024103358387947083,0.0846446231007576,9.3781156539917,-0.7675379514694214,-2.6394712924957275
1413394884540760500,-0.003436043858528137,0.03041815012693405,0.06787269562482834,9.639348983764648,-0.8248089551925659,-2.6069717407226562
1413394884545760500,0.028687387704849243,0.013662461191415787,0.05822496861219406,8.848877906799316,-0.3261934518814087,-2.263615608215332
1413394884550760500,0.030825793743133545,-0.002343980595469475,0.08269930630922318,9.584558486938477,0.1634121835231781,-2.926363229751587
1413394884555760500,0.00503164529800415,0.031219525262713432,0.08977454155683517,9.5924072265625,0.7194163799285889,-2.746943712234497
1413394884560760500,-0.01875188946723938,0.036027874797582626,0.10157635062932968,9.281670570373535,0.38436460494995117,-2.6893157958984375
1413394884565760500,-0.01600801944732666,0.0241246297955513,0.09512490779161453,9.876777648925781,-0.5149508118629456,-2.8684418201446533
1413394884570760500,-0.004118114709854126,0.04439043626189232,0.07417777925729752,9.411026954650879,-0.5715109705924988,-2.4025609493255615
1413394884575760500,0.007735580205917358,0.015731021761894226,0.06941501051187515,8.930425643920898,-0.23651176691055298,-2.5414764881134033
1413394884580760500,0.003634825348854065,0.021405277773737907,0.09037823230028152,9.698511123657227,0.3024396002292633,-2.6812188625335693
1413394884585760500,-0.015953347086906433,0.028352512046694756,0.09670033305883408,9.281736373901367,0.4006800949573517,-2.762974739074707
1413394884590760500,-0.018115758895874023,0.022715892642736435,0.10490604490041733,9.231849670410156,-0.5470511317253113,-2.484172821044922
1413394884595760500,-0.0013582706451416016,0.018545448780059814,0.07835953682661057,9.860288619995117,-0.7190030813217163,-2.8275749683380127
1413394884600760500,0.020311802625656128,0.02413872256875038,0.05683358758687973,9.134527206420898,-0.23655521869659424,-2.517005205154419
1413394884605760500,0.018957242369651794,-0.0009458083659410477,0.0617818757891655,9.257745742797852,0.1556093692779541,-2.6237411499023438
1413394884610760500,0.003651559352874756,0.0353531576693058,0.07015661150217056,9.771519660949707,0.25327208638191223,-2.9018442630767822
1413394884615760500,-0.01180565357208252,0.03877909481525421,0.09879641979932785,8.914054870605469,0.29463526606559753,-2.5090603828430176
1413394884620760500,-0.021577537059783936,0.0024833325296640396,0.1119672879576683,9.281822204589844,-0.04889196529984474,-2.721652030944824
1413394884625760500,-0.01738472282886505,0.025527220219373703,0.08048640936613083,9.754317283630371,-0.45761364698410034,-2.8031179904937744
1413394884630760500,-0.008314713835716248,0.01853768900036812,0.06867512315511703,9.29758358001709,-0.34289053082466125,-2.721367597579956
1413394884635760500,-0.003392443060874939,0.00670357421040535,0.06239788979291916,9.47754192352295,-0.21224573254585266,-2.672633171081543
1413394884640760500,-0.002664923667907715,0.047208067029714584,0.07499437779188156,9.68136215209961,0.08168426156044006,-2.6972029209136963
1413394884645760500,0.007707253098487854,0.03595011681318283,0.1092178151011467,8.832378387451172,-0.04874337837100029,-2.5332212448120117
1413394884650760500,0.00983390212059021,0.011576700955629349,0.0965484157204628,9.828643798828125,-0.3271089792251587,-2.827843189239502
1413394884655760500,0.010562583804130554,0.027641896158456802,0.07638419419527054,9.624555587768555,-0.06544206291437149,-2.9341318607330322
1413394884660760500,0.0035888850688934326,0.027646103873848915,0.06454331427812576,9.371377944946289,0.00835409015417099,-2.7625339031219482
1413394884665760500,-0.011723384261131287,0.02626810595393181,0.05898050218820572,9.559077262878418,0.13088427484035492,-2.8608829975128174
1413394884670760500,-0.006189793348312378,0.04858372360467911,0.08336155861616135,9.477197647094727,0.008230986073613167,-2.6806907653808594
1413394884675760500,0.009799465537071228,0.034578196704387665,0.11824584752321243,9.036581993103027,-0.16319401562213898,-2.47597074508667
1413394884680760500,-0.00202883780002594,0.008778955787420273,0.09521212428808212,9.23282527923584,-0.13865883648395538,-2.541699171066284
1413394884685760500,-0.009639129042625427,0.008111359551548958,0.07361113280057907,9.657380104064941,0.05722743645310402,-2.9263246059417725
1413394884690760500,-0.015958428382873535,0.024144265800714493,0.059609152376651764,9.493392944335938,-0.23677024245262146,-2.754220485687256
1413394884695760500,-0.016665324568748474,0.018554389476776123,0.0553794726729393,9.329865455627441,-0.4407438039779663,-2.5007717609405518
1413394884700760500,0.011230498552322388,0.03252149000763893,0.08890046924352646,9.46105670928955,-0.22873596847057343,-2.606978178024292
1413394884705760500,0.031453937292099,0.02832197956740856,0.10991086810827255,9.102405548095703,0.07374007999897003,-2.525273323059082
1413394884710760500,0.006380990147590637,0.013008296489715576,0.08970960229635239,9.274003028869629,0.2944944202899933,-2.6156375408172607
1413394884715760500,-0.018636852502822876,0.022108955308794975,0.07086525112390518,9.894126892089844,0.34329232573509216,-2.8040425777435303
1413394884720760500,-0.041072696447372437,0.040887251496315,0.058226339519023895,9.5255708694458,-0.1795695275068283,-2.8849260807037354
1413394884725760500,-0.029935792088508606,0.02970551699399948,0.06023164838552475,9.125177383422852,-0.7099874019622803,-2.361788272857666
1413394884730760500,0.016767799854278564,0.03180695325136185,0.09095551818609238,9.754683494567871,-0.57213294506073,-2.900919198989868
1413394884735760500,0.03354428708553314,0.044365450739860535,0.09876007586717606,8.914267539978027,0.0739104226231575,-2.394301414489746
1413394884740760500,0.012648552656173706,0.0018232408910989761,0.0959935113787651,9.184285163879395,0.26989856362342834,-2.721938133239746
1413394884745760500,-0.01795630156993866,0.010219410061836243,0.0687558576464653,9.877752304077148,0.21245455741882324,-3.0001251697540283
1413394884750760500,-0.03129708766937256,0.0325244702398777,0.056803278625011444,9.607264518737793,-0.2531369924545288,-2.7133562564849854
1413394884755760500,-0.010415196418762207,0.012241512537002563,0.07141778618097305,9.044093132019043,-0.701956570148468,-2.402655601501465
1413394884760760500,0.025864794850349426,0.010179471224546432,0.09723884612321854,9.918560981750488,-0.44163861870765686,-2.9176149368286133
1413394884765760500,0.03356936573982239,0.04790674149990082,0.10788404196500778,9.290107727050781,0.5395410656929016,-2.7057106494903564
1413394884770760500,-0.006216689944267273,0.015102393925189972,0.09817180782556534,8.947242736816406,0.654362142086029,-2.5339515209198
1413394884775760500,-0.0389428585767746,0.01926192082464695,0.0875532403588295,9.795742988586426,0.0653291866183281,-2.9753763675689697
1413394884780760500,-0.04181565344333649,0.03667381405830383,0.06861303001642227,9.222919464111328,-0.6611402034759521,-2.5005226135253906
1413394884785760500,4.938244819641113e-05,-0.006602674722671509,0.07137971371412277,9.166667938232422,-0.9143993854522705,-2.4438464641571045
1413394884790760500,0.03982159495353699,0.005997173488140106,0.07842127233743668,9.75555419921875,-0.4332790672779083,-2.95027232170105
1413394884795760500,0.03989669680595398,0.04932438209652901,0.08624405413866043,9.584033012390137,0.49850353598594666,-2.828362464904785
1413394884800760500,0.001454174518585205,0.03536519408226013,0.09609738737344742,9.045012474060059,0.8258741497993469,-2.656919002532959
1413394884805760500,-0.037537604570388794,0.02905462495982647,0.06871821731328964,9.697587013244629,0.06548565626144409,-2.7464616298675537
1413394884810760500,-0.0348459929227829,0.03596138954162598,0.07003211230039597,9.076164245605469,-0.64478600025177,-2.5004541873931885
1413394884815760500,-0.004157021641731262,0.003149941563606262,0.071432925760746,9.13415241241455,-0.7021773457527161,-2.639557361602783
1413394884820760500,0.033622920513153076,0.015778373926877975,0.09102786332368851,10.098572731018066,-0.033210091292858124,-3.0977094173431396
1413394884825760500,0.020313739776611328,0.0674668550491333,0.0939573273062706,9.29790210723877,0.6785398721694946,-2.705853223800659
1413394884830760500,-0.01109437644481659,0.03740496560931206,0.1001889780163765,9.093822479248047,0.3435751795768738,-2.6155576705932617
1413394884835760500,-0.03410051763057709,0.02414623275399208,0.07566989213228226,9.42813491821289,-0.09779677540063858,-2.6399033069610596
1413394884840760500,-0.02228131890296936,0.02481173351407051,0.07000543922185898,9.272263526916504,-0.7020738124847412,-2.5251498222351074
1413394884845760500,0.005608886480331421,-0.004519585520029068,0.06513243168592453,9.313878059387207,-0.792142927646637,-2.729576826095581
1413394884850760500,0.027351215481758118,0.02277372032403946,0.06241581588983536,9.983882904052734,-0.10654997080564499,-2.9342339038848877
1413394884855760500,0.022407665848731995,0.05841141566634178,0.08560723811388016,9.257213592529297,0.7603698372840881,-2.673187017440796
1413394884860760500,-0.00966411828994751,0.03255362808704376,0.09040368348360062,9.355286598205566,0.3271717131137848,-2.623835325241089
1413394884865760500,-0.032001301646232605,0.036732010543346405,0.08473385125398636,9.338373184204102,0.008604387752711773,-2.3045401573181152
1413394884870760500,-0.024377837777137756,0.001757308840751648,0.07914061099290848,8.995423316955566,-0.45702221989631653,-2.533313274383545
1413394884875760500,0.0007315874099731445,-0.007989976555109024,0.07415025681257248,9.672751426696777,-0.890347421169281,-2.737938404083252
1413394884880760500,0.019589945673942566,0.024138502776622772,0.07492511719465256,9.812067031860352,-0.4659358263015747,-2.9419684410095215
1413394884885760500,0.026583313941955566,0.04789511486887932,0.10299422591924667,9.159381866455078,0.4579422175884247,-2.5910398960113525
1413394884890760500,0.0028621256351470947,0.024151425808668137,0.10363585501909256,9.11864948272705,0.15566405653953552,-2.394516706466675
1413394884895760500,-0.01668323576450348,0.02413507178425789,0.09380187839269638,9.18339729309082,-0.16305141150951385,-2.4107558727264404
1413394884900760500,-0.013201698660850525,0.0024810917675495148,0.08472656458616257,9.183548927307129,-0.30197903513908386,-2.5661439895629883
1413394884905760500,0.002108246088027954,-0.0065949782729148865,0.07976890355348587,9.803794860839844,-0.7762718200683594,-2.9992401599884033
1413394884910760500,0.003575533628463745,0.03251991420984268,0.06590471416711807,9.59158992767334,-0.1797819435596466,-2.9257922172546387
1413394884915760500,0.013340309262275696,0.044396113604307175,0.08478843420743942,9.27343463897705,0.10642124712467194,-2.5907695293426514
1413394884920760500,0.008468464016914368,0.02975446544587612,0.09737250953912735,9.347291946411133,0.28621968626976013,-2.648303270339966
1413394884925760500,-0.00759674608707428,0.03461729735136032,0.0896843895316124,9.183608055114746,0.1555713266134262,-2.5663137435913086
1413394884930760500,-0.021562620997428894,0.010862257331609726,0.07427755743265152,9.289562225341797,-0.2040078192949295,-2.7787420749664307
1413394884935760500,-0.010404273867607117,0.01784924417734146,0.07353018969297409,9.803651809692383,-0.4413231313228607,-2.974757432937622
1413394884940760500,-0.002020403742790222,0.04507559537887573,0.06519875675439835,9.542280197143555,-0.24509009718894958,-2.8929402828216553
1413394884945760500,0.010535329580307007,0.04577425494790077,0.0749901756644249,9.199637413024902,-0.11413805186748505,-2.5660269260406494
1413394884950760500,0.014048054814338684,0.023462669923901558,0.09873136132955551,9.477972030639648,0.11442135274410248,-2.7381491661071777
1413394884955760500,0.003569677472114563,0.03951418399810791,0.09175723046064377,9.240808486938477,0.10654281824827194,-2.459918260574341
1413394884960760500,-0.012479767203330994,0.010872168466448784,0.08617811650037766,9.281706809997559,0.041035767644643784,-2.8852291107177734
1413394884965760500,-0.013843953609466553,0.00879233330488205,0.08615017682313919,9.7307767868042,-0.016436634585261345,-3.0242762565612793
1413394884970760500,-0.015297308564186096,0.03598835691809654,0.06796277314424515,9.444108009338379,-0.4083407521247864,-2.7947871685028076
1413394884975760500,-0.0006333142518997192,0.0387943834066391,0.07493893057107925,9.280989646911621,-0.33468517661094666,-2.492419719696045
1413394884980760500,0.017509058117866516,0.024843044579029083,0.09378843754529953,9.51028823852539,-0.22065283358097076,-2.672433376312256
1413394884985760500,0.022411569952964783,0.033239156007766724,0.09313712269067764,9.26556396484375,0.04932640865445137,-2.4026432037353516
1413394884990760500,0.004278466105461121,0.017872614786028862,0.0868583396077156,9.453319549560547,0.008241499774158001,-2.7462592124938965
1413394884995760500,-0.007553204894065857,0.02417895570397377,0.07782452553510666,9.469586372375488,0.21267163753509521,-2.6974196434020996
1413394885000760500,-0.021539688110351562,0.026241224259138107,0.07776189595460892,9.501724243164062,-0.10610976070165634,-2.7134625911712646
1413394885005760500,-0.018774107098579407,0.03320593014359474,0.07074782997369766,9.517599105834961,-0.35937440395355225,-2.74585223197937
1413394885010760500,6.914138793945312e-05,0.038102876394987106,0.07771811634302139,9.232017517089844,-0.3509397804737091,-2.377985954284668
1413394885015760500,0.017511218786239624,0.026935692876577377,0.08682798594236374,9.363313674926758,-0.17964772880077362,-2.61517333984375
1413394885020760500,0.018919765949249268,0.01717260107398033,0.0861583724617958,9.265637397766113,-0.04063045606017113,-2.5498929023742676
1413394885025760500,0.004996374249458313,0.015107382088899612,0.08480977267026901,9.38010025024414,0.24541640281677246,-2.632000207901001
1413394885030760500,-0.008950352668762207,0.006014026701450348,0.08615944534540176,9.67383861541748,0.05717647075653076,-2.8772940635681152
1413394885035760500,-0.016676440834999084,0.027626648545265198,0.08959773927927017,9.56698226928711,-0.21244637668132782,-2.7460267543792725
1413394885040760500,-0.008325129747390747,0.03180588781833649,0.08398457616567612,9.43600082397461,-0.44920429587364197,-2.61501407623291
1413394885045760500,0.009130299091339111,0.016457535326480865,0.08121194690465927,9.35494327545166,-0.37563541531562805,-2.5661120414733887
1413394885050760500,0.02170276641845703,0.022054195404052734,0.08333096653223038,9.453207015991211,-0.21239818632602692,-2.656095266342163
1413394885055760500,0.02032877504825592,0.006711166352033615,0.08826752752065659,9.38022232055664,0.0573209673166275,-2.7054359912872314
1413394885060760500,-0.0019698739051818848,0.015111983753740788,0.0834454670548439,9.396319389343262,0.39247724413871765,-2.812106132507324
1413394885065760500,-0.02149774134159088,0.023465383797883987,0.08270318061113358,9.624482154846191,0.20433931052684784,-2.9509177207946777
1413394885070760500,-0.02713097631931305,0.03460828587412834,0.08192659169435501,9.632037162780762,-0.19611291587352753,-2.795079231262207
1413394885075760500,-0.013207748532295227,0.03598844259977341,0.07213085144758224,9.395011901855469,-0.4736233651638031,-2.6558303833007812
1413394885080760500,0.004242062568664551,0.03249911963939667,0.07704561203718185,9.134201049804688,-0.3509463369846344,-2.476038694381714
1413394885085760500,0.022394031286239624,0.019946768879890442,0.0826704129576683,9.192032814025879,-0.12235261499881744,-2.6315419673919678
1413394885090760500,0.02104686200618744,0.012311160564422607,0.08827245980501175,9.535361289978027,0.14714451134204865,-2.7382681369781494
1413394885095760500,-0.00407467782497406,0.02209329605102539,0.0834522619843483,9.306462287902832,0.4089454114437103,-2.6730196475982666
1413394885100760500,-0.02220843732357025,0.023453418165445328,0.08756526559591293,9.673402786254883,0.10620300471782684,-2.9916470050811768
1413394885105760500,-0.027843624353408813,0.042979273945093155,0.0847175344824791,9.476771354675293,-0.20417727530002594,-2.696859359741211
1413394885110760500,-0.01740182936191559,0.034581467509269714,0.07561994343996048,9.239821434020996,-0.5225019454956055,-2.574049234390259
1413394885115760500,0.004249438643455505,0.019249100238084793,0.0791088119149208,9.191447257995605,-0.4407654404640198,-2.3944311141967773
1413394885120760500,0.022388890385627747,0.015067961066961288,0.07841768115758896,9.469396591186523,-0.3920985758304596,-2.6397111415863037
1413394885125760500,0.024536162614822388,0.020687079057097435,0.08478466421365738,9.551567077636719,0.14711523056030273,-2.754560708999634
1413394885130760500,0.00011749565601348877,0.02208869904279709,0.08064668625593185,9.37174129486084,0.3434590995311737,-2.7465827465057373
1413394885135760500,-0.01732940971851349,0.035314761102199554,0.08684142678976059,9.803820610046387,-0.016526883468031883,-2.9505813121795654
1413394885140760500,-0.026445314288139343,0.040888361632823944,0.07913268357515335,9.386941909790039,-0.22857335209846497,-2.582401990890503
1413394885145760500,-0.013908907771110535,0.03737691789865494,0.07494287937879562,9.27267074584961,-0.4000736474990845,-2.655792474746704
1413394885150760500,0.0035566985607147217,0.02483796328306198,0.0846884474158287,9.05262565612793,-0.44880446791648865,-2.2472755908966064
1413394885155760500,0.02029414474964142,0.0018044933676719666,0.08538951724767685,9.461443901062012,-0.40027210116386414,-2.615281343460083
1413394885160760500,0.02036607265472412,0.013016590848565102,0.08406879752874374,9.690439224243164,0.11437886208295822,-2.71376633644104
1413394885165760500,0.004992693662643433,0.022095995023846626,0.08414574712514877,9.290245056152344,0.39262479543685913,-2.5993287563323975
1413394885170760500,-0.015218034386634827,0.02067204937338829,0.08756937831640244,9.722575187683105,0.14703133702278137,-2.9426960945129395
1413394885175760500,-0.025021493434906006,0.03532187640666962,0.07915885001420975,9.52608871459961,-0.04890736937522888,-2.656242847442627
1413394885180760500,-0.013212218880653381,0.031099539250135422,0.08470826596021652,9.370838165283203,-0.35934242606163025,-2.704909563064575
1413394885185760500,0.0007535666227340698,0.031093724071979523,0.07424972206354141,8.978938102722168,-0.44063326716423035,-2.3697540760040283
1413394885190760500,0.018891125917434692,0.0018006637692451477,0.08678699284791946,9.608423233032227,-0.408608078956604,-2.7950801849365234
1413394885195760500,0.023143857717514038,0.014408886432647705,0.08409056812524796,9.527175903320312,0.16351404786109924,-2.7300829887390137
1413394885200760500,0.006376519799232483,0.021372076123952866,0.08343987911939621,9.208427429199219,0.310809850692749,-2.721940517425537
1413394885205760500,-0.020805686712265015,0.014395134523510933,0.08759769052267075,9.543025016784668,0.2616017758846283,-2.9346673488616943
1413394885210760500,-0.025704428553581238,0.022065896540880203,0.07776696234941483,9.607970237731934,-0.024411993101239204,-2.689122438430786
1413394885215760500,-0.023669689893722534,0.03598820045590401,0.07983007282018661,9.534003257751465,-0.3185989260673523,-2.9010839462280273
1413394885220760500,-0.00971326231956482,0.03806988522410393,0.07492934912443161,8.913289070129395,-0.5630323886871338,-2.2962098121643066
1413394885225760500,0.01887449622154236,0.008069958537817001,0.0881783738732338,9.428570747375488,-0.5064826011657715,-2.6968514919281006
1413394885230760500,0.024516761302947998,0.013694673776626587,0.0742458626627922,9.600248336791992,-0.21242864429950714,-2.6317226886749268
1413394885235760500,0.023142114281654358,0.020683711394667625,0.08551027625799179,9.494359970092773,0.26153862476348877,-2.8936495780944824
1413394885240760500,0.0015084445476531982,0.02557465061545372,0.08623649924993515,9.36352252960205,0.40062403678894043,-2.812047243118286
1413394885245760500,-0.023594260215759277,0.03254169225692749,0.08477707952260971,9.673355102539062,0.14710229635238647,-2.811876058578491
1413394885250760500,-0.027149900794029236,0.045761242508888245,0.0805445984005928,9.501272201538086,-0.2123907506465912,-2.9092886447906494
1413394885255760500,-0.013917863368988037,0.038045767694711685,0.07704146951436996,8.913241386413574,-0.554978609085083,-2.45135235786438
1413394885260760500,0.009808823466300964,0.009456057101488113,0.08680542558431625,9.18354606628418,-0.4490893483161926,-2.5742006301879883
1413394885265760500,0.018214687705039978,0.010886311531066895,0.07423055917024612,9.55923080444336,-0.35946470499038696,-2.672503709793091
1413394885270760500,0.025228410959243774,0.014399504289031029,0.08826091140508652,9.567976951599121,0.08170010149478912,-2.762723922729492
1413394885275760500,0.005706921219825745,0.02140098810195923,0.08760077506303787,9.50257396697998,0.3025720715522766,-2.632065773010254
1413394885280760500,-0.018700331449508667,0.03046652488410473,0.08062542229890823,9.58376407623291,0.2943390905857086,-2.7629642486572266
1413394885285760500,-0.029902338981628418,0.03252527117729187,0.07427983731031418,9.558696746826172,-0.06527573615312576,-2.7625396251678467
1413394885290760500,-0.015300631523132324,0.04227132350206375,0.08540333062410355,9.239977836608887,-0.3428554832935333,-2.5086777210235596
1413394885295760500,-0.0027454644441604614,0.0276031456887722,0.07702895253896713,9.158546447753906,-0.4734739661216736,-2.5250580310821533
1413394885300760500,0.018196165561676025,0.013667762279510498,0.08468461781740189,9.39582347869873,-0.449194073677063,-2.549778938293457
1413394885305760500,0.025219649076461792,0.00881325826048851,0.08546248823404312,9.470041275024414,0.0245993509888649,-2.6727285385131836
1413394885310760500,0.011299774050712585,0.020707761868834496,0.0897207036614418,9.551578521728516,0.43324100971221924,-2.8203084468841553
1413394885315760500,-0.017326831817626953,0.01789240911602974,0.08132819086313248,9.396134376525879,0.2699246406555176,-2.7383956909179688
1413394885320760500,-0.027104392647743225,0.026934698224067688,0.08264205604791641,9.795573234558105,-0.09817499667406082,-2.934229612350464
1413394885325760500,-0.016685500741004944,0.043677423149347305,0.08821023255586624,9.32995319366455,-0.19590044021606445,-2.5578362941741943
1413394885330760500,-0.0027515441179275513,0.035982418805360794,0.08469638973474503,9.23190975189209,-0.47356465458869934,-2.5413522720336914
1413394885335760500,0.009819656610488892,0.013645056635141373,0.07144860178232193,9.10986614227295,-0.5060944557189941,-2.492469072341919
1413394885340760500,0.027285203337669373,0.0032097622752189636,0.08192578703165054,9.551495552062988,-0.26966002583503723,-2.7461280822753906
1413394885345760500,0.026616185903549194,0.010210251435637474,0.08761262148618698,9.306750297546387,0.2616722583770752,-2.779165029525757
1413394885350760500,0.0008291453123092651,0.02838560938835144,0.08620313555002213,9.551434516906738,0.3189234137535095,-2.5993478298187256
1413394885355760500,-0.025002524256706238,0.022753549739718437,0.08336155861616135,9.714140892028809,0.008115986362099648,-2.934363842010498
1413394885360760500,-0.027848511934280396,0.054144032299518585,0.08610846847295761,9.517389297485352,-0.22875910997390747,-2.7376108169555664
1413394885365760500,-0.011823102831840515,0.04155457392334938,0.09241581708192825,9.117743492126465,-0.24486322700977325,-2.6067402362823486
1413394885370760500,-0.004130542278289795,0.028308112174272537,0.07631953805685043,9.044146537780762,-0.5304816961288452,-2.3534765243530273
1413394885375760500,0.018188193440437317,0.0010944753885269165,0.08678977936506271,9.371570587158203,-0.44923245906829834,-2.631551504135132
1413394885380760500,0.03286416828632355,0.012981951236724854,0.08751922100782394,9.469830513000488,-0.21244478225708008,-2.6888318061828613
1413394885385760500,0.016187161207199097,0.01861419528722763,0.08832985907793045,9.559762954711914,0.44955557584762573,-2.869385004043579
1413394885390760500,-0.012424290180206299,0.02699192240834236,0.07923955470323563,9.502348899841309,0.3435240685939789,-2.5993847846984863
1413394885395760500,-0.027087852358818054,0.03602073714137077,0.07428940385580063,9.738330841064453,-0.008213243447244167,-2.868899345397949
1413394885400760500,-0.02086925506591797,0.042276084423065186,0.08194839209318161,9.280983924865723,-0.15501341223716736,-2.623260974884033
1413394885405760500,-0.01669369637966156,0.032494980841875076,0.08263563364744186,9.264752388000488,-0.2612275183200836,-2.6640875339508057
1413394885410760500,-0.00413493812084198,0.024814750999212265,0.07910772413015366,9.06049919128418,-0.5550084114074707,-2.3780031204223633
1413394885415760500,0.018873482942581177,0.005974024534225464,0.0846988633275032,9.420483589172363,-0.490143746137619,-2.762221336364746
1413394885420760500,0.026624053716659546,0.009517768397927284,0.0875680223107338,9.519096374511719,0.10628317296504974,-2.721867561340332
1413394885425760500,0.005023449659347534,0.013739767484366894,0.08624278753995895,9.510882377624512,0.4660448431968689,-2.7385969161987305
1413394885430760500,-0.02149324119091034,0.028355829417705536,0.0729174092411995,9.68149185180664,0.10626214742660522,-2.844550371170044
1413394885435760500,-0.018749743700027466,0.03530991077423096,0.08126839250326157,9.509865760803223,-0.032626185566186905,-2.852409601211548
1413394885440760500,-0.013184621930122375,0.03530292212963104,0.07916682213544846,9.354708671569824,-0.11422991007566452,-2.721473217010498
1413394885445760500,-0.011117145419120789,0.03877528756856918,0.08472312241792679,9.232002258300781,-0.30206671357154846,-2.6067872047424316
1413394885450760500,0.0014308840036392212,0.015031389892101288,0.077022485435009,9.199519157409668,-0.5715508460998535,-2.6150059700012207
1413394885455760500,0.022388070821762085,0.005292981863021851,0.08750622719526291,9.363569259643555,-0.31034669280052185,-2.607069730758667
1413394885460760500,0.017566844820976257,0.013024134561419487,0.0834173634648323,9.461912155151367,0.27804630994796753,-2.672945022583008
1413394885465760500,-0.0019614100456237793,0.016509421169757843,0.08270853012800217,9.551475524902344,0.2453087717294693,-2.7056963443756104
1413394885470760500,-0.02082313597202301,0.03253750503063202,0.07428770512342453,9.53438663482666,0.00013522505469154567,-2.664496421813965
1413394885475760500,-0.013181835412979126,0.03321384638547897,0.08264472335577011,9.428216934204102,-0.13061653077602386,-2.6969783306121826
1413394885480760500,-0.007616385817527771,0.028313778340816498,0.08334275335073471,9.297651290893555,-0.20408952236175537,-2.6968657970428467
1413394885485760500,-0.001343756914138794,0.031805604696273804,0.08609753102064133,9.256603240966797,-0.3755621314048767,-2.5005736351013184
1413394885490760500,0.011198922991752625,0.008055970072746277,0.09169308096170425,9.175445556640625,-0.44095101952552795,-2.598693609237671
1413394885495760500,0.021699190139770508,0.008090641349554062,0.09310508519411087,9.518839836120605,-0.17981654405593872,-2.7869832515716553
1413394885500760500,0.011273890733718872,0.007417233660817146,0.08550906926393509,9.388284683227539,0.22894172370433807,-2.844616174697876
1413394885505760500,-0.004754737019538879,0.024878626689314842,0.07782004028558731,9.551237106323242,0.20441648364067078,-2.7383227348327637
1413394885510760500,-0.014528334140777588,0.04022326320409775,0.07500234991312027,9.624229431152344,0.08993320912122726,-2.729971408843994
1413394885515760500,-0.013189688324928284,0.03529934957623482,0.07775644212961197,9.428094863891602,-0.20415881276130676,-2.7786178588867188
1413394885520760500,-0.011108994483947754,0.030400801450014114,0.07636130601167679,9.256660461425781,-0.269386351108551,-2.704963445663452
1413394885525760500,0.005634516477584839,0.03319971263408661,0.08193915337324142,9.31397533416748,-0.2776542007923126,-2.6886022090911865
1413394885530760500,0.01192048192024231,0.014352314174175262,0.08755011111497879,9.110307693481445,-0.17130547761917114,-2.5661096572875977
1413394885535760500,0.009158968925476074,0.00600336492061615,0.08542592078447342,9.649341583251953,-0.163506880402565,-2.8198177814483643
1413394885540760500,0.004309847950935364,0.022088253870606422,0.07710105925798416,9.543156623840332,0.12272389978170395,-2.6319313049316406
1413394885545760500,-0.005445033311843872,0.03115851618349552,0.07504215091466904,9.58374309539795,0.2534048855304718,-2.860987663269043
1413394885550760500,-0.018727779388427734,0.03045727126300335,0.07782607525587082,9.371438980102539,0.22096045315265656,-2.5910441875457764
1413394885555760500,-0.018062949180603027,0.026930175721645355,0.07216260582208633,9.550549507141113,-0.2450406551361084,-2.8032307624816895
1413394885560760500,-0.00553932785987854,0.032488372176885605,0.08332384377717972,9.19126033782959,-0.36736801266670227,-2.598595142364502
1413394885565760500,0.005637958645820618,0.03320892155170441,0.0902954712510109,9.330297470092773,-0.27763646841049194,-2.5496714115142822
1413394885570760500,0.008434012532234192,0.0178573839366436,0.09867214411497116,9.167365074157715,-0.2529543340206146,-2.3617031574249268
1413394885575760500,0.011950552463531494,0.010891702026128769,0.07561948150396347,9.771427154541016,-0.3187773823738098,-2.7380058765411377
1413394885580760500,0.009191766381263733,0.022086672484874725,0.07642055302858353,9.494224548339844,0.17175444960594177,-2.7055320739746094
1413394885585760500,-0.011015668511390686,0.025582440197467804,0.07226177304983139,9.591964721679688,0.30248233675956726,-2.861088991165161
1413394885590760500,-0.021520450711250305,0.03742797672748566,0.07640338689088821,9.460968971252441,0.10642606765031815,-2.640003204345703
1413394885595760500,-0.016685113310813904,0.030411742627620697,0.0742364153265953,9.419715881347656,-0.3593003451824188,-2.6641223430633545
1413394885600760500,-0.002732992172241211,0.03041263110935688,0.09101486951112747,9.289555549621582,-0.17957712709903717,-2.606945276260376
1413394885605760500,0.0021480321884155273,0.024126101285219193,0.08892468363046646,9.257013320922852,-0.2122626006603241,-2.639639377593994
1413394885610760500,0.008416995406150818,0.013655975461006165,0.09516548365354538,9.314178466796875,-0.40017759799957275,-2.566060781478882
1413394885615760500,0.011230364441871643,0.006689310073852539,0.07913430780172348,9.428719520568848,-0.3021966814994812,-2.6888389587402344
1413394885620760500,0.011979624629020691,0.013007456436753273,0.08129387348890305,9.535202980041504,0.12265168875455856,-2.754612922668457
1413394885625760500,-0.004074260592460632,0.029050521552562714,0.0785040482878685,9.510249137878418,0.11447399854660034,-2.7872257232666016
1413394885630760500,-0.015961602330207825,0.026241248473525047,0.08335993438959122,9.403929710388184,-0.03252943977713585,-2.6726014614105225
1413394885635760500,-0.00832432508468628,0.025519270449876785,0.08680855482816696,9.444554328918457,-0.3185930848121643,-2.7948954105377197
1413394885640760500,-0.0013418048620224,0.029708245769143105,0.0924186185002327,9.265107154846191,-0.17143763601779938,-2.664158344268799
1413394885645760500,-0.0013367235660552979,0.019250717014074326,0.09586865454912186,9.379444122314453,-0.27766692638397217,-2.5416131019592285
1413394885650760500,0.004253223538398743,0.011580802500247955,0.09376273304224014,9.38774299621582,-0.3102887272834778,-2.468111753463745
1413394885655760500,0.009841978549957275,0.012976668775081635,0.07773902267217636,9.469446182250977,-0.26953837275505066,-2.6724963188171387
1413394885660760500,0.009192600846290588,0.015103396028280258,0.07431956380605698,9.518774032592773,0.12269067764282227,-2.746422529220581
1413394885665760500,-0.007525831460952759,0.03185808286070824,0.07154382020235062,9.689817428588867,0.2124793827533722,-2.860963821411133
1413394885670760500,-0.01666472852230072,0.039498716592788696,0.07569988816976547,9.215907096862793,0.00032002778607420623,-2.549825429916382
1413394885675760500,-0.014578491449356079,0.027628079056739807,0.08193234354257584,9.542510032653809,-0.20423905551433563,-2.7787246704101562
1413394885680760500,-0.009702786803245544,0.028314469382166862,0.07917382568120956,9.20786190032959,-0.13047005236148834,-2.656036615371704
1413394885685760500,0.0014498531818389893,0.023426886647939682,0.08752494305372238,9.216140747070312,-0.24488528072834015,-2.582397699356079
1413394885690760500,0.010526418685913086,0.02553417906165123,0.08190671354532242,9.33846664428711,-0.37561047077178955,-2.5170156955718994
1413394885695760500,0.0070745497941970825,0.012989874929189682,0.07636920362710953,9.551246643066406,-0.10618095099925995,-2.7462375164031982
1413394885700760500,0.0029170960187911987,0.01580425165593624,0.07919459789991379,9.584067344665527,0.12266891449689865,-2.697406053543091
1413394885705760500,-0.006873905658721924,0.027653155848383904,0.07361152023077011,9.395885467529297,0.057409610599279404,-2.6481447219848633
1413394885710760500,-0.012490138411521912,0.029016708955168724,0.07497241348028183,9.379225730895996,-0.1877741664648056,-2.786831855773926
1413394885715760500,-0.011781960725784302,0.029029369354248047,0.08543876558542252,9.461010932922363,-0.09797018766403198,-2.7133991718292236
1413394885720760500,-0.0013395994901657104,0.024824362248182297,0.09032123535871506,9.265149116516113,-0.19592884182929993,-2.6396548748016357
1413394885725760500,6.756186485290527e-05,0.027632899582386017,0.0889013484120369,9.297719955444336,-0.2285289615392685,-2.4598207473754883
1413394885730760500,0.009840711951255798,0.019257772713899612,0.08752783387899399,9.412375450134277,-0.15516506135463715,-2.6724956035614014
1413394885735760500,0.0028998106718063354,0.021381570026278496,0.07638920098543167,9.445091247558594,0.04107862710952759,-2.558220148086548
1413394885740760500,-0.0012967884540557861,0.01299065351486206,0.08266820758581161,9.469648361206055,0.00011025369167327881,-2.7136096954345703
1413394885745760500,-0.008973762392997742,0.03183840215206146,0.08474384993314743,9.5100679397583,-0.016235476359725,-2.6072089672088623
1413394885750760500,-0.015267416834831238,0.02902621030807495,0.08125733584165573,9.509943008422852,-0.09800516813993454,-2.8360190391540527
1413394885755760500,-0.01039394736289978,0.029721306636929512,0.08056209236383438,9.273181915283203,-0.11414221674203873,-2.598850965499878
1413394885760760500,0.0007493644952774048,0.02343461662530899,0.08957866579294205,9.477232933044434,-0.36761173605918884,-2.65598464012146
1413394885765760500,0.007741868495941162,0.024140391498804092,0.09031637758016586,9.404109954833984,-0.16334544122219086,-2.672441005706787
1413394885770760500,0.007780134677886963,0.024159831926226616,0.08056984096765518,9.624658584594727,-0.016396695747971535,-2.8279972076416016
1413394885775760500,-0.004085138440132141,0.026256311684846878,0.07918620854616165,9.444940567016602,0.041010357439517975,-2.6645054817199707
1413394885780760500,-0.00341622531414032,0.01436341181397438,0.07707340270280838,9.257112503051758,-0.16316093504428864,-2.6397852897644043
1413394885785760500,9.900331497192383e-05,0.01997007057070732,0.08896105736494064,9.485967636108398,0.0817759707570076,-2.787219524383545
1413394885790760500,-0.008964508771896362,0.02554687112569809,0.07919568568468094,9.542811393737793,0.06540460884571075,-2.9588301181793213
1413394885795760500,-0.011105701327323914,0.029712818562984467,0.09101209789514542,9.19963550567627,-0.1958034783601761,-2.492473840713501
1413394885800760500,0.004230231046676636,0.01784103736281395,0.08889772742986679,9.37944221496582,-0.3675667643547058,-2.7131741046905518
1413394885805760500,0.00913865864276886,0.029021047055721283,0.08196864277124405,9.248920440673828,-0.10602039098739624,-2.656060218811035
1413394885810760500,-0.0012914985418319702,0.01020343042910099,0.08549625426530838,9.379980087280273,0.16359734535217285,-2.7709832191467285
1413394885815760500,-0.006173655390739441,0.029747892171144485,0.07216187566518784,9.599682807922363,-0.13065895438194275,-2.5990114212036133
1413394885820760500,-0.0034129172563552856,0.026933223009109497,0.07286889106035233,9.330302238464355,-0.2121887058019638,-2.590667724609375
1413394885825760500,-0.008275657892227173,0.02346121147274971,0.08408335596323013,9.387857437133789,0.09824568033218384,-2.680911064147949
1413394885830760500,-0.016654640436172485,0.023449983447790146,0.08476506918668747,9.444831848144531,0.016451092436909676,-2.7707834243774414
1413394885835760500,-0.009006917476654053,0.03391414135694504,0.07977526634931564,9.517430305480957,-0.4736855626106262,-2.525188446044922
1413394885840760500,0.009828850626945496,0.016457434743642807,0.08123067766427994,9.436737060546875,-0.29405492544174194,-2.729624032974243
1413394885845760500,0.014057278633117676,0.02276691235601902,0.07362066954374313,9.412485122680664,0.07367290556430817,-2.7789692878723145
1413394885850760500,0.0007908940315246582,0.017177969217300415,0.08057855814695358,9.355294227600098,0.0002080217091133818,-2.6072402000427246
1413394885855760500,0.004282072186470032,0.028341736644506454,0.0777507796883583,9.689688682556152,-0.1553494930267334,-2.795166254043579
1413394885860760500,-0.00828804075717926,0.03322292119264603,0.08338197320699692,9.297840118408203,0.05743195116519928,-2.6317124366760254
1413394885865760500,-0.01387883722782135,0.01227477379143238,0.0896582379937172,9.216447830200195,0.008459671400487423,-2.582685947418213
1413394885870760500,-0.009019434452056885,0.022735964506864548,0.09025678783655167,9.632116317749023,-0.42489999532699585,-2.713223695755005
1413394885875760500,0.011211931705474854,0.027622561901807785,0.08539275079965591,9.52623176574707,-0.40851718187332153,-2.72131085395813
