#timestamp [ns],w_RS_S_x [rad s^-1],w_RS_S_y [rad s^-1],w_RS_S_z [rad s^-1],a_RS_S_x [m s^-2],a_RS_S_y [m s^-2],a_RS_S_z [m s^-2]
1403715273262143000,-0.0020943951023931952,0.017453292519943295,0.07749261878854824,9.087495666666666,0.13075533333333333,-3.693838166666666
1403715273267143000,-0.0013962634015954637,0.019547687622336492,0.07819075048934597,9.079323458333333,0.122583125,-3.693838166666666
1403715273272143000,-0.0020943951023931952,0.016755160819145562,0.0747000919853573,9.038462416666666,0.14709974999999997,-3.6693215416666662
1403715273277143000,-0.0027925268031909274,0.020943951023931952,0.07819075048934597,9.07115125,0.122583125,-3.67749375
1403715273282143000,-0.0020943951023931952,0.020943951023931952,0.07888888219014369,9.079323458333333,0.13075533333333333,-3.702010375
1403715273287143000,0.0,0.021642082724729686,0.07958701389094143,9.054806833333332,0.07354987499999999,-3.693838166666666
1403715273292143000,-0.0013962634015954637,0.023038346126325153,0.07400196028455958,9.095667875,0.13892754166666665,-3.6611493333333334
1403715273297143000,-0.003490658503988659,0.02234021442552742,0.08028514559173915,9.062979041666667,0.07354987499999999,-3.6693215416666662
1403715273302143000,-0.0041887902047863905,0.017453292519943295,0.07609635538695278,9.136528916666666,0.14709974999999997,-3.702010375
1403715273307143000,-0.0013962634015954637,0.01815142422074103,0.07958701389094143,9.054806833333332,0.06537766666666667,-3.6366327083333334
1403715273312143000,-0.0020943951023931952,0.02024581932313422,0.07400196028455958,9.087495666666666,0.13892754166666665,-3.6693215416666662
1403715273317143000,-0.003490658503988659,0.021642082724729686,0.08028514559173915,9.046634625,0.11441091666666667,-3.67749375
1403715273322143000,-0.0027925268031909274,0.020943951023931952,0.07888888219014369,9.079323458333333,0.17161637500000002,-3.751043625
1403715273327143000,-0.0020943951023931952,0.023038346126325153,0.07958701389094143,9.054806833333332,0.11441091666666667,-3.702010375
1403715273332143000,-0.0041887902047863905,0.01884955592153876,0.07609635538695278,9.079323458333333,0.07354987499999999,-3.702010375
1403715273337143000,-0.003490658503988659,0.021642082724729686,0.07958701389094143,9.054806833333332,0.13075533333333333,-3.6693215416666662
1403715273342143000,-0.005585053606381855,0.02234021442552742,0.07819075048934597,9.087495666666666,0.10623870833333333,-3.718354791666666
1403715273347143000,-0.0027925268031909274,0.021642082724729686,0.0767944870877505,9.062979041666667,0.13892754166666665,-3.67749375
1403715273352143000,-0.0020943951023931952,0.016057029118347832,0.0767944870877505,9.038462416666666,0.0980665,-3.7346992083333332
1403715273357143000,-0.003490658503988659,0.01884955592153876,0.0747000919853573,9.062979041666667,0.122583125,-3.742871416666666
1403715273362143000,-0.0027925268031909274,0.019547687622336492,0.08028514559173915,9.038462416666666,0.0980665,-3.7346992083333332
1403715273367143000,-0.0013962634015954637,0.01815142422074103,0.0767944870877505,9.087495666666666,0.13075533333333333,-3.67749375
1403715273372143000,-0.0027925268031909274,0.019547687622336492,0.07819075048934597,9.030290208333332,0.11441091666666667,-3.67749375
1403715273377143000,-0.004886921905584123,0.016755160819145562,0.07120943348136866,9.079323458333333,0.17978858333333333,-3.67749375
1403715273382143000,0.0006981317007977319,0.02024581932313422,0.07749261878854824,9.038462416666666,0.0980665,-3.693838166666666
1403715273387143000,0.0006981317007977319,0.019547687622336492,0.07609635538695278,9.095667875,0.15527195833333335,-3.702010375
1403715273392143000,-0.0013962634015954637,0.023038346126325153,0.08098327729253688,9.07115125,0.11441091666666667,-3.693838166666666
1403715273397143000,-0.003490658503988659,0.02024581932313422,0.08028514559173915,9.095667875,0.11441091666666667,-3.7346992083333332
1403715273402143000,-0.0027925268031909274,0.02234021442552742,0.07958701389094143,9.030290208333332,0.11441091666666667,-3.6856659583333333
1403715273407143000,-0.005020156502723694,0.022209586575627327,0.07495065778493881,9.079032897949219,0.09753202646970749,-3.6783041954040527
1403715273412143000,-0.0014887377619743347,0.022891918197274208,0.07705625146627426,9.070762634277344,0.08963179588317871,-3.702848196029663
1403715273417143000,-0.003604583442211151,0.021518269553780556,0.07425491511821747,9.070624351501465,0.0486329048871994,-3.7519288063049316
1403715273422143000,-0.0036448463797569275,0.021482905372977257,0.0763518288731575,9.030076026916504,0.0896942988038063,-3.7030904293060303
1403715273427143000,-0.0015092119574546814,0.022892305627465248,0.07634793967008591,9.087198257446289,0.12220118194818497,-3.7275707721710205
1403715273432143000,0.0005643442273139954,0.020087221637368202,0.07838435471057892,9.046332359313965,0.097927987575531,-3.678123712539673
1403715273437143000,-0.003603018820285797,0.02077111415565014,0.07563167810440063,9.054500579833984,0.08940033614635468,-3.661752700805664
1403715273442143000,-0.0035928860306739807,0.019369250163435936,0.0777033120393753,9.087167739868164,0.1712876558303833,-3.7033660411834717
1403715273447143000,-0.004325017333030701,0.022875340655446053,0.07981067895889282,9.02994441986084,0.11394134908914566,-3.7193984985351562
1403715273452143000,-0.00017292052507400513,0.02008953131735325,0.07845018059015274,9.08714771270752,0.1547268182039261,-3.703350782394409
1403715273457143000,-7.408112287521362e-05,0.020802298560738564,0.08055463433265686,8.997442245483398,0.05675874650478363,-3.702713966369629
1403715273462143000,-0.0035937950015068054,0.02008260227739811,0.07351110875606537,9.070721626281738,0.1217939704656601,-3.735733985900879
1403715273467143000,-0.0015420541167259216,0.022177143022418022,0.07630617171525955,9.030027389526367,0.12225557863712311,-3.686450481414795
1403715273472143000,-0.005035735666751862,0.018000071868300438,0.07843434065580368,9.09546184539795,0.12192313373088837,-3.6540021896362305
1403715273477143000,-0.0008050650358200073,0.023577434942126274,0.0825897827744484,8.989258766174316,0.13034914433956146,-3.7030391693115234
1403715273482143000,-0.0035698488354682922,0.01868184097111225,0.07913133502006531,9.0382080078125,0.14668771624565125,-3.7196991443634033
1403715273487143000,-0.003608502447605133,0.022871563211083412,0.08122045546770096,9.021933555603027,0.1059935912489891,-3.719496011734009
1403715273492143000,-0.00012845546007156372,0.022202225401997566,0.07557451725006104,9.06261157989502,0.13854339718818665,-3.686662435531616
1403715273497143000,-0.0022516027092933655,0.022191742435097694,0.08052012324333191,9.08726978302002,0.1386583298444748,-3.702885389328003
1403715273502143000,-0.0021944642066955566,0.020062880590558052,0.0777440145611763,9.070754051208496,0.1463630199432373,-3.694857597351074
1403715273507143000,-0.002886630594730377,0.019351424649357796,0.07837982475757599,9.062655448913574,0.15507474541664124,-3.703202486038208
1403715273512143000,-0.0022293776273727417,0.022891780361533165,0.08056366443634033,9.0463285446167,0.06473388522863388,-3.678330659866333
1403715273517143000,-0.005029760301113129,0.022189578041434288,0.0812075138092041,9.087193489074707,0.08933053910732269,-3.6702983379364014
1403715273522143000,-0.0036128833889961243,0.020806336775422096,0.07557721436023712,9.054431915283203,0.11403758823871613,-3.6948153972625732
1403715273527143000,-0.0022068843245506287,0.020079070702195168,0.07703275978565216,9.087141990661621,0.15457823872566223,-3.727700710296631
1403715273532143000,-0.0015309527516365051,0.022164566442370415,0.07981054484844208,9.030060768127441,0.08124762773513794,-3.735607147216797
1403715273537143000,-0.003585025668144226,0.02288428507745266,0.07634855061769485,9.070799827575684,0.1223607212305069,-3.78486967086792
1403715273542143000,-0.003620348870754242,0.025024572387337685,0.07573504000902176,9.038143157958984,-0.008292319253087044,-3.73514461517334
1403715273547143000,-0.010569028556346893,0.01929021067917347,0.07618507742881775,8.908197402954102,0.5390260219573975,-3.6883270740509033
1403715273552143000,-0.01616182178258896,0.013715451583266258,0.09301138669252396,9.316202163696289,0.2610062062740326,-3.7696175575256348
1403715273557143000,-0.027981914579868317,0.031247122213244438,0.07918663322925568,8.883163452148438,-0.1315765082836151,-3.6203062534332275
1403715273562143000,-0.0016159266233444214,0.010384036228060722,0.09235074371099472,9.127812385559082,-0.35969483852386475,-3.521406650543213
1403715273567143000,0.02833370864391327,0.038572847843170166,0.06526398658752441,9.216377258300781,-0.8903098106384277,-3.665569305419922
1403715273572143000,0.0577731654047966,0.013298487290740013,0.06099886819720268,8.840740203857422,-0.19585320353507996,-3.5120272636413574
1403715273577143000,0.06066160649061203,0.02008199132978916,0.0505424365401268,9.283002853393555,0.4903373122215271,-3.760718822479248
1403715273582143000,0.02441614866256714,0.023220939561724663,0.06819754838943481,8.826906204223633,1.4956926107406616,-3.6752448081970215
1403715273587143000,-0.04968453198671341,0.012458672747015953,0.08225815743207932,9.061688423156738,1.7245570421218872,-3.978656768798828
1403715273592143000,-0.1068817526102066,0.01976803131401539,0.09710480272769928,9.146265029907227,0.75897216796875,-3.6992647647857666
1403715273597143000,-0.10480581223964691,0.02489507384598255,0.10696583241224289,8.934405326843262,-0.5659825205802917,-3.660597562789917
1403715273602143000,-0.058200426399707794,0.021639620885252953,0.10008123517036438,8.88416862487793,-1.1368749141693115,-3.330482006072998
1403715273607143000,0.015108726918697357,0.006477337330579758,0.10229979455471039,9.68220329284668,-1.251358985900879,-3.672813892364502
1403715273612143000,0.08065728098154068,0.049769140779972076,0.05062229931354523,9.116101264953613,-1.25667405128479,-3.6481101512908936
1403715273617143000,0.12326470762491226,0.014730030670762062,0.05055026710033417,8.70213508605957,0.08236513286828995,-3.4962565898895264
1403715273622143000,0.10614003986120224,0.0359945148229599,0.05239522457122803,9.130749702453613,1.373888611793518,-3.7461187839508057
1403715273627143000,0.0288594588637352,-0.006757142022252083,0.07554116100072861,8.720467567443848,1.9974371194839478,-3.758690595626831
1403715273632143000,-0.05879151076078415,0.016593823209404945,0.07128920406103134,9.863030433654785,1.2661621570587158,-4.1319966316223145
1403715273637143000,-0.08747029304504395,0.056363508105278015,0.0727219209074974,8.62380313873291,-0.18972600996494293,-3.5469391345977783
1403715273642143000,-0.05686008185148239,-0.007168767042458057,0.09921678155660629,8.370077133178711,-0.270484983921051,-3.4317729473114014
1403715273647143000,-0.03721176087856293,0.011956928297877312,0.08147738128900528,9.741000175476074,-0.2447117269039154,-3.7436797618865967
1403715273652143000,-0.03485378623008728,0.026935899630188942,0.06538225710391998,8.82536792755127,-0.03533594310283661,-3.5635790824890137
1403715273657143000,-0.02184244990348816,-0.011722879484295845,0.06110263243317604,9.143667221069336,0.11939467489719391,-3.7140629291534424
1403715273662143000,-0.012806050479412079,0.03211238235235214,0.09172792732715607,8.998003005981445,-0.07572537660598755,-3.627873420715332
1403715273667143000,-0.001207508146762848,0.00928681530058384,0.09799367934465408,8.972627639770508,-0.22969341278076172,-3.749152421951294
1403715273672143000,0.032418251037597656,0.030928896740078926,0.09236159920692444,9.559906959533691,-0.9156717658042908,-3.5759286880493164
1403715273677143000,0.0870131328701973,0.04614479839801788,0.07821709662675858,8.784685134887695,-1.0679768323898315,-3.4174857139587402
1403715273682143000,0.11682278662919998,0.004462486132979393,0.07052961736917496,8.563467979431152,0.3541177809238434,-3.603562593460083
1403715273687143000,0.07651727646589279,0.014119895175099373,0.060156840831041336,9.6514253616333,1.483709454536438,-3.9111790657043457
1403715273692143000,-0.0065504685044288635,0.042604342103004456,0.0398859903216362,8.883641242980957,1.449901819229126,-3.98581862449646
1403715273697143000,-0.06594105064868927,-0.0061857616528868675,0.06617286801338196,8.492581367492676,1.455273985862732,-3.6706690788269043
1403715273702143000,-0.10919716954231262,0.007014181464910507,0.10957056283950806,9.431685447692871,1.1422828435897827,-3.87931752204895
1403715273707143000,-0.15345820784568787,0.02341192401945591,0.10826528817415237,8.891942024230957,0.23137176036834717,-3.761995315551758
1403715273712143000,-0.1402210295200348,0.0072073303163051605,0.1133400946855545,9.40882396697998,-1.0132447481155396,-3.53840708732605
1403715273717143000,-0.06901732087135315,0.03987440466880798,0.11068809032440186,9.138605117797852,-2.053375005722046,-3.360313653945923
1403715273722143000,0.06749985367059708,0.017496848478913307,0.09399446099996567,9.056866645812988,-2.0620312690734863,-3.5464370250701904
1403715273727143000,0.14859476685523987,0.03605993092060089,0.04952820762991905,9.49002456665039,-1.418505311012268,-3.573885917663574
1403715273732143000,0.1921597123146057,0.050597935914993286,0.02468474954366684,8.857999801635742,-0.19388532638549805,-3.6246285438537598
1403715273737143000,0.17876020073890686,0.007022375240921974,0.04560231417417526,8.706210136413574,1.527490258216858,-3.7788267135620117
1403715273742143000,0.07893974334001541,0.03473623842000961,0.040905535221099854,9.627104759216309,2.866591453552246,-4.103825092315674
1403715273747143000,-0.06169568747282028,0.02895180694758892,0.06851553916931152,8.299003601074219,2.947740077972412,-3.846090078353882
1403715273752143000,-0.17000120878219604,-0.01229119673371315,0.07648465782403946,8.696824073791504,1.6441521644592285,-3.8110275268554688
1403715273757143000,-0.1925174593925476,0.0036150794476270676,0.1202813982963562,9.205891609191895,0.15208621323108673,-3.6494834423065186
1403715273762143000,-0.16334423422813416,0.0055666230618953705,0.11013863980770111,9.211461067199707,-1.5295401811599731,-3.6495513916015625
1403715273767143000,-0.07837791740894318,0.017268432304263115,0.1141975075006485,9.267401695251465,-1.6861852407455444,-3.3550221920013428
1403715273772143000,0.015083365142345428,0.04361572861671448,0.0863460898399353,9.369952201843262,-1.9312734603881836,-3.5555732250213623
1403715273777143000,0.11786796897649765,0.034868642687797546,0.07147803902626038,8.683095932006836,-1.201963186264038,-3.3354878425598145
1403715273782143000,0.14683270454406738,0.02386668510735035,0.040688030421733856,9.250006675720215,0.0013093904126435518,-3.7070472240448
1403715273787143000,0.1286531686782837,0.05443043261766434,0.03359784185886383,9.221283912658691,0.9513428211212158,-3.8415658473968506
1403715273792143000,0.06841786950826645,0.005501452833414078,0.05125867947936058,8.079030990600586,1.6981455087661743,-3.593456506729126
1403715273797143000,-0.013729877769947052,0.008874988183379173,0.0647464320063591,9.428894996643066,1.9717156887054443,-4.190597057342529
1403715273802143000,-0.08144360035657883,0.021930580958724022,0.10582580417394638,8.56793212890625,1.2743682861328125,-3.6596055030822754
1403715273807143000,-0.12499591708183289,-0.016188371926546097,0.12647578120231628,9.120930671691895,0.5644689202308655,-3.9779789447784424
1403715273812143000,-0.12417330592870712,0.04375474900007248,0.0991550162434578,9.333298683166504,-0.5009932518005371,-3.3188343048095703
1403715273817143000,-0.07577628642320633,-0.005725196562707424,0.11277464777231216,8.589750289916992,-0.9377870559692383,-3.4618237018585205
1403715273822143000,-0.024017207324504852,0.0022228043526411057,0.06550006568431854,10.226676940917969,-1.6449941396713257,-3.8700833320617676
1403715273827143000,0.07742518931627274,0.07088430225849152,0.031310662627220154,8.984919548034668,-1.706892728805542,-3.563354015350342
1403715273832143000,0.14362990856170654,0.008143724873661995,0.0467655248939991,8.236738204956055,-0.38451865315437317,-3.2976691722869873
1403715273837143000,0.13810384273529053,0.029274648055434227,0.05763750523328781,9.474318504333496,1.331992268562317,-3.8420491218566895
1403715273842143000,0.05283314734697342,0.017023852095007896,0.07603128254413605,8.6557035446167,2.140643358230591,-3.8979573249816895
1403715273847143000,-0.04024016112089157,0.012385549023747444,0.06568191200494766,9.493867874145508,1.6326954364776611,-4.141579627990723
1403715273852143000,-0.08444497734308243,0.047095268964767456,0.08130372315645218,8.576191902160645,0.2140672504901886,-3.393564224243164
1403715273857143000,-0.06916894763708115,-0.0006926264613866806,0.09886515140533447,8.59858512878418,-0.37446996569633484,-3.6924171447753906
1403715273862143000,-0.04508444666862488,0.016721678897738457,0.08943440020084381,9.535419464111328,-0.2649202048778534,-3.596950054168701
1403715273867143000,-0.02612946182489395,0.02177458442747593,0.07561467587947845,8.858880043029785,-0.14286629855632782,-3.6040332317352295
1403715273872143000,-0.010774418711662292,0.003377135843038559,0.06402681022882462,9.061111450195312,-0.30322030186653137,-3.670931100845337
1403715273877143000,0.004922144114971161,0.02091374434530735,0.0778578668832779,9.200602531433105,-0.11542733013629913,-3.692859172821045
1403715273882143000,0.0159807950258255,0.02090773545205593,0.07126675546169281,8.606805801391602,0.17854315042495728,-3.554823637008667
1403715273887143000,0.018924541771411896,0.001276133581995964,0.08952533453702927,9.300278663635254,0.32983502745628357,-3.7528538703918457
1403715273892143000,0.003051668405532837,0.03466171771287918,0.09354593604803085,9.31788444519043,0.3080163300037384,-3.7852628231048584
1403715273897143000,-0.008051745593547821,0.0210063848644495,0.11232861876487732,8.686203002929688,0.5186684727668762,-3.7043395042419434
1403715273902143000,-0.020175501704216003,0.020638758316636086,0.10915185511112213,9.22746467590332,0.1976877897977829,-3.704644203186035
1403715273907143000,-0.0132017582654953,0.035514965653419495,0.09718910604715347,9.121977806091309,-0.5708537101745605,-3.6017680168151855
1403715273912143000,0.03137746453285217,0.018414536491036415,0.06657590717077255,9.01093864440918,-1.210448145866394,-3.6324217319488525
1403715273917143000,0.08535336703062057,0.02159520424902439,0.05340476334095001,9.3464994430542,-0.2531321346759796,-3.700701951980591
1403715273922143000,0.07810232788324356,0.02763448841869831,0.04270962253212929,8.727806091308594,1.090108871459961,-3.8107008934020996
1403715273927143000,0.01842595636844635,0.018907880410552025,0.03362426906824112,9.029840469360352,1.579176902770996,-3.8471829891204834
1403715273932143000,-0.05058588087558746,0.010966688394546509,0.07036332041025162,8.926124572753906,1.6939380168914795,-3.775444507598877
1403715273937143000,-0.12346626818180084,0.005697885528206825,0.08347249031066895,9.063592910766602,1.1308313608169556,-3.790431261062622
1403715273942143000,-0.13878385722637177,0.0149890948086977,0.10818063467741013,9.121756553649902,-0.14298056066036224,-3.5657222270965576
1403715273947143000,-0.10082501918077469,0.02427084557712078,0.08687500655651093,9.007872581481934,-1.6003962755203247,-3.4926648139953613
1403715273952143000,-0.0008358433842658997,0.034701868891716,0.09664836525917053,9.281778335571289,-1.8311160802841187,-3.343662738800049
1403715273957143000,0.07642164081335068,0.02951039932668209,0.10244868695735931,9.061330795288086,-0.7293879389762878,-3.6408841609954834
1403715273962143000,0.09048616141080856,0.038371503353118896,0.07090025395154953,9.192363739013672,0.28241994976997375,-3.6614513397216797
1403715273967143000,0.07508403807878494,0.036323994398117065,0.08035711944103241,8.598435401916504,0.23059698939323425,-3.6438677310943604
1403715273972143000,0.08262161165475845,-0.0007281359285116196,0.07487933337688446,9.055002212524414,-0.29369887709617615,-3.723801612854004
1403715273977143000,0.10379686206579208,0.032405540347099304,0.07612578570842743,9.274534225463867,-0.3589792251586914,-3.780669927597046
1403715273982143000,0.11823571473360062,0.010202057659626007,0.06832718104124069,8.981708526611328,1.092645525932312,-3.8114020824432373
1403715273987143000,0.020716778934001923,0.03246989846229553,0.05889306217432022,9.104424476623535,2.487217426300049,-3.9344756603240967
1403715273992143000,-0.12166355550289154,0.006528019905090332,0.07634634524583817,8.69631576538086,3.3901920318603516,-3.93798828125
1403715273997143000,-0.25547343492507935,0.018812144175171852,0.08328834921121597,9.46567440032959,2.2077083587646484,-4.041792869567871
1403715274002143000,-0.2907508313655853,0.02244255132973194,0.10007019340991974,8.71682071685791,-0.6418164968490601,-3.2800698280334473
1403715274007143000,-0.18951010704040527,-0.0011942088603973389,0.10869202017784119,9.240467071533203,-3.3036370277404785,-3.4912922382354736
1403715274012143000,0.014660765716752367,0.041189770347066175,0.09145525280450287,8.932223708333334,-4.339442625,-2.982856041666666
1403715274017143000,0.2041519582271576,0.01767451874911785,0.0780215710401535,9.34902572631836,-2.890989065170288,-3.6897008419036865
1403715274022143000,0.29180240631103516,0.031832873821258545,0.06516473740339279,9.546104431152344,-0.07151690125465393,-3.855240821838379
1403715274027143000,0.22815659642219543,0.06763579696416855,0.024055995047092438,8.915140151977539,2.168466091156006,-4.016301155090332
1403715274032143000,0.1104554608464241,0.03459574282169342,0.03824868053197861,8.141866683959961,2.9380784034729004,-3.663801431655884
1403715274037143000,-0.014963574707508087,0.0020236875861883163,0.07158245146274567,9.12021255493164,2.127070665359497,-4.059672832489014
1403715274042143000,-0.10728354007005692,0.0005958136171102524,0.12335299700498581,9.024384498596191,1.1618670225143433,-3.9452850818634033
1403715274047143000,-0.1442842334508896,0.009879790246486664,0.12299405038356781,9.05506706237793,0.5117571353912354,-3.87947416305542
1403715274052143000,-0.1401529610157013,0.023185590282082558,0.147957906126976,9.048415184020996,-0.15188676118850708,-3.4853873252868652
1403715274057143000,-0.12063589692115784,0.016713524237275124,0.10768692195415497,9.430824279785156,-0.9244306683540344,-3.7829933166503906
1403715274062143000,-0.05680181086063385,0.04273858666419983,0.08031752705574036,9.379599571228027,-1.465118169784546,-3.5273520946502686
1403715274067143000,0.02461523562669754,0.03344666212797165,0.06216820329427719,9.012392044067383,-1.5513701438903809,-3.4507689476013184
1403715274072143000,0.10301833599805832,0.04239513725042343,0.04635057598352432,9.229961395263672,-1.3991608619689941,-3.6048758029937744
1403715274077143000,0.15634611248970032,0.04108862578868866,0.06097327545285225,8.74264907836914,-0.3517284393310547,-3.6719045639038086
1403715274082143000,0.14134570956230164,0.04533640295267105,0.06331808120012283,9.351990699768066,1.352659821510315,-3.991299629211426
1403715274087143000,0.06392387300729752,0.043579600751399994,0.08356869965791702,8.71362590789795,2.0575428009033203,-3.751065492630005
1403715274092143000,-0.03081601858139038,0.01948126219213009,0.08906613290309906,8.58910083770752,1.8550223112106323,-3.825561046600342
1403715274097143000,-0.11541984975337982,0.007083099335432053,0.09290431439876556,8.998903274536133,0.868617057800293,-3.6593379974365234
1403715274102143000,-0.13273467123508453,0.009103244170546532,0.10566449910402298,8.999772071838379,0.08322642743587494,-3.713754177093506
1403715274107143000,-0.10784142464399338,0.004392215982079506,0.10954327881336212,9.268059730529785,-0.563467264175415,-3.638537883758545
1403715274112143000,-0.06984300911426544,0.0244938712567091,0.106448695063591,8.97289752960205,-0.9849811792373657,-3.389063596725464
1403715274117143000,0.002772293984889984,0.005029864609241486,0.09999918937683105,9.004319190979004,-1.3209037780761719,-3.402940034866333
1403715274122143000,0.06716490536928177,0.011473732069134712,0.07701748609542847,9.614710807800293,-1.1547436714172363,-3.7050821781158447
1403715274127143000,0.10442230850458145,0.04355360567569733,0.051128584891557693,9.217103958129883,-0.3251194953918457,-3.617568016052246
1403715274132143000,0.11297497898340225,0.021929504349827766,0.05055304616689682,8.729065895080566,0.3403792977333069,-3.6770517826080322
1403715274137143000,0.08407162874937057,0.03629468381404877,0.0642615556716919,9.17905044555664,1.1326732635498047,-3.7215802669525146
1403715274142143000,0.03598643094301224,0.02760414592921734,0.09107041358947754,8.583683967590332,1.5714033842086792,-3.6264419555664062
1403715274147143000,-0.03288189321756363,0.0027570966631174088,0.10097216069698334,9.136902809143066,1.2862449884414673,-3.7905092239379883
1403715274152143000,-0.09228430688381195,0.005788784474134445,0.09398443251848221,8.918065071105957,0.5167273879051208,-3.6486258506774902
1403715274157143000,-0.09090181440114975,-0.007963696494698524,0.0840422585606575,9.055238723754883,-0.47964051365852356,-3.6615402698516846
1403715274162143000,-0.04724548012018204,0.017418621107935905,0.07887986302375793,9.437357902526855,-0.8959771990776062,-3.708991765975952
1403715274167143000,0.005764953792095184,0.020137885585427284,0.07881330698728561,8.947996139526367,-0.672812283039093,-3.568720579147339
1403715274172143000,0.03336966037750244,0.015446597710251808,0.0793745368719101,8.996066093444824,-0.20123322308063507,-3.5704002380371094
1403715274177143000,0.0312688872218132,0.01877039112150669,0.08801193535327911,8.867104530334473,0.32517340779304504,-3.678532600402832
1403715274182143000,0.011360593140125275,0.008178824558854103,0.0877269059419632,8.998719215393066,0.42170992493629456,-3.687162160873413
1403715274187143000,-7.478147745132446e-05,0.020948776975274086,0.08932511508464813,9.365470886230469,0.14909949898719788,-3.924434185028076
1403715274192143000,0.00820712000131607,0.03226828575134277,0.07276540249586105,9.014114379882812,-0.49238431453704834,-3.58551025390625
1403715274197143000,0.04349447786808014,0.02746487967669964,0.07852614670991898,9.158943176269531,-0.48842278122901917,-3.6504604816436768
1403715274202143000,0.06989205628633499,0.03487388789653778,0.06680215895175934,8.939077377319336,0.07370678335428238,-3.6193442344665527
1403715274207143000,0.04551338404417038,0.013407999649643898,0.0650448128581047,8.90779972076416,1.1553972959518433,-3.7956457138061523
1403715274212143000,-0.014342047274112701,0.020993715152144432,0.07392307370901108,8.956478118896484,1.4629108905792236,-3.8559818267822266
1403715274217143000,-0.07556392252445221,0.0041899289935827255,0.07245349138975143,9.006940841674805,0.9837318658828735,-3.79758882522583
1403715274222143000,-0.09349553287029266,0.004562230780720711,0.08383868634700775,9.185823440551758,0.09837827831506729,-3.704989433288574
1403715274227143000,-0.07438831031322479,0.012457480654120445,0.07649768143892288,9.047187805175781,-0.7290233373641968,-3.5446555614471436
1403715274232143000,-0.024151675403118134,0.01251663826406002,0.07023061066865921,9.177001953125,-1.003708004951477,-3.6084952354431152
1403715274237143000,0.02173294872045517,0.028029227629303932,0.0668213739991188,9.166901588439941,-0.5739390254020691,-3.4701833724975586
1403715274242143000,0.04236719757318497,0.016710201278328896,0.06247542053461075,8.83343505859375,-0.24187688529491425,-3.610722780227661
1403715274247143000,0.04922977834939957,0.013882597908377647,0.06489851325750351,8.859136581420898,0.28354570269584656,-3.4817683696746826
1403715274252143000,0.03734032064676285,0.0020040664821863174,0.06853681802749634,9.063960075378418,0.43073007464408875,-3.7519445419311523
1403715274257143000,0.013010270893573761,0.004002757370471954,0.07830023765563965,8.859692573547363,0.4297168254852295,-3.687068223953247
1403715274262143000,-0.004424497485160828,-0.0008903220295906067,0.08605916798114777,9.234329223632812,0.5908605456352234,-3.867666244506836
1403715274267143000,-0.021223828196525574,0.010882256552577019,0.09384815394878387,9.080150604248047,0.45638588070869446,-3.7615928649902344
1403715274272143000,-0.044255614280700684,0.008071593940258026,0.08458694815635681,8.989517211914062,0.3806740939617157,-3.688321352005005
1403715274277143000,-0.04617959260940552,0.0010649263858795166,0.09792320430278778,9.055431365966797,0.028328554704785347,-3.6882686614990234
1403715274282143000,-0.03628738969564438,0.0005007684230804443,0.08687099814414978,8.883504867553711,-0.2995724380016327,-3.5468719005584717
1403715274287143000,-0.012565799057483673,-0.004979141056537628,0.08820433169603348,9.249308586120605,-0.41382139921188354,-3.7350828647613525
1403715274292143000,0.012713856995105743,0.006327351555228233,0.07296056300401688,9.273929595947266,-0.3382541835308075,-3.766653060913086
1403715274297143000,0.032865993678569794,0.017597177997231483,0.06514836847782135,9.265841484069824,-0.15581318736076355,-3.750377893447876
1403715274302143000,0.04178638011217117,0.030076803639531136,0.05679113417863846,9.06215763092041,0.19009219110012054,-3.759143590927124
1403715274307143000,0.03334880620241165,0.037593044340610504,0.0554153174161911,9.103889465332031,0.6082959771156311,-3.834066867828369
1403715274312143000,0.00261630117893219,0.03818149119615555,0.07337689399719238,8.827032089233398,0.6892579793930054,-3.6717190742492676
1403715274317143000,-0.024701766669750214,0.01928870938718319,0.06997169554233551,8.819174766540527,0.5180186629295349,-3.7296369075775146
1403715274322143000,-0.04143135994672775,0.008063828572630882,0.07905219495296478,8.957528114318848,0.35266512632369995,-3.7541911602020264
1403715274327143000,-0.04560378938913345,0.015127988532185555,0.07979543507099152,9.144159317016602,0.16304637491703033,-3.802485466003418
1403715274332143000,-0.036465153098106384,0.029151679947972298,0.0743321031332016,9.225528717041016,-0.18157224357128143,-3.793100595474243
1403715274337143000,-0.02107345312833786,0.03764883428812027,0.06815031170845032,9.192676544189453,-0.31290504336357117,-3.701195240020752
1403715274342143000,0.003386683762073517,0.04120627045631409,0.0723155215382576,9.094399452209473,-0.3786315619945526,-3.5692121982574463
1403715274347143000,0.025876939296722412,0.03825676441192627,0.08056224882602692,8.784594535827637,-0.20737989246845245,-3.586015224456787
1403715274352143000,0.033644549548625946,0.020020948722958565,0.07559487223625183,8.997764587402344,0.24270415306091309,-3.6293740272521973
1403715274357143000,0.023814179003238678,0.016538100317120552,0.08518270403146744,8.998283386230469,0.46455371379852295,-3.736823320388794
1403715274362143000,0.0005881115794181824,0.010854421183466911,0.0725233405828476,9.070956230163574,0.695317268371582,-3.8118715286254883
1403715274367143000,-0.03452890366315842,0.02130192704498768,0.0769704282283783,9.430764198303223,0.6325953006744385,-3.87672758102417
1403715274372143000,-0.04779942333698273,0.03535810112953186,0.0799485370516777,8.98176383972168,0.22333616018295288,-3.7278716564178467
1403715274377143000,-0.04079299420118332,0.026375355198979378,0.07431379705667496,8.973167419433594,-0.4478343725204468,-3.463409662246704
1403715274382143000,0.007289417088031769,0.018771888688206673,0.08350170403718948,8.866743087768555,-0.9478162527084351,-3.337658166885376
1403715274387143000,0.052828721702098846,0.00201268307864666,0.0617581307888031,8.815938949584961,-0.8031105995178223,-3.403669595718384
1403715274392143000,0.0843556597828865,-0.007739514112472534,0.06426286697387695,9.281991958618164,0.08732457458972931,-3.702831506729126
1403715274397143000,0.0642833486199379,0.00606776587665081,0.056013330817222595,9.161174774169922,0.9694421291351318,-3.8772170543670654
1403715274402143000,0.0063645318150520325,0.015520179644227028,0.06763656437397003,9.135692596435547,1.624362826347351,-3.9449055194854736
1403715274407143000,-0.06554125994443893,0.023862825706601143,0.09076963365077972,9.275748252868652,1.4050438404083252,-3.903487205505371
1403715274412143000,-0.12146106362342834,0.030401190742850304,0.09661470353603363,8.869175910949707,0.12998129427433014,-3.5973358154296875
1403715274417143000,-0.10003362596035004,0.023551875725388527,0.10973364114761353,8.844756126403809,-0.8906769156455994,-3.4382011890411377
1403715274422143000,-0.026405587792396545,0.00977320410311222,0.0973263680934906,8.924710273742676,-1.517236590385437,-3.4597301483154297
1403715274427143000,0.051157452166080475,0.005057491362094879,0.08337130397558212,8.99536418914795,-1.2723239660263062,-3.4932138919830322
1403715274432143000,0.09405576437711716,0.012142406776547432,0.06040099635720253,9.444023132324219,-0.3498319685459137,-3.873403787612915
1403715274437143000,0.09059082716703415,0.032135143876075745,0.0505974218249321,9.258781433105469,0.6860625147819519,-3.9815781116485596
1403715274442143000,0.052969805896282196,0.04520586133003235,0.06076935678720474,8.95783519744873,1.1591280698776245,-3.785961627960205
1403715274447143000,0.002222694456577301,0.03309305012226105,0.07319238781929016,8.917943000793457,1.2492005825042725,-3.7053840160369873
1403715274452143000,-0.04727918654680252,0.030172334983944893,0.08846781402826309,8.885382652282715,0.9622992873191833,-3.68932843208313
1403715274457143000,-0.08036632090806961,0.024661345407366753,0.09411951899528503,9.13703727722168,0.521589994430542,-3.6166293621063232
1403715274462143000,-0.07573211938142776,0.018608691170811653,0.1000361442565918,8.965439796447754,-0.2377445250749588,-3.581850528717041
1403715274467143000,-0.06601400673389435,0.015290753915905952,0.06675178557634354,9.005208969116211,-0.5155643820762634,-3.6454522609710693
1403715274472143000,-0.021274738013744354,0.023822223767638206,0.06197476387023926,9.46181583404541,-0.5637657046318054,-3.799229145050049
1403715274477143000,0.018075965344905853,0.04187944531440735,0.0613190121948719,9.102322578430176,-0.7850022912025452,-3.5919480323791504
1403715274482143000,0.04954922944307327,0.0467233881354332,0.05752590298652649,9.00435733795166,-0.3032134175300598,-3.5107669830322266
1403715274487143000,0.06987515836954117,0.03148975968360901,0.0748748630285263,8.810019493103027,-0.0014041647082194686,-3.5850157737731934
1403715274492143000,0.06282573193311691,0.026402907446026802,0.05926554650068283,8.940796852111816,0.48959049582481384,-3.7110304832458496
1403715274497143000,0.03689730167388916,0.013024652376770973,0.05989696457982063,8.982475280761719,0.6874474883079529,-3.61521315574646
1403715274502143000,-0.005098991096019745,0.0017261523753404617,0.04499702528119087,9.071616172790527,0.9009755849838257,-3.9104864597320557
1403715274507143000,-0.04223018139600754,0.012932294979691505,0.0525519959628582,8.99742317199707,0.7298210859298706,-3.7384889125823975
1403715274512143000,-0.06121348589658737,0.015772366896271706,0.07234179973602295,9.348653793334961,0.11574367433786392,-3.867311477661133
1403715274517143000,-0.05818396061658859,0.025380825623869896,0.09261749684810638,8.786154747009277,-0.058191534131765366,-3.711332082748413
1403715274522143000,-0.0454588308930397,0.028397249057888985,0.10613184422254562,8.973692893981934,-0.28018662333488464,-3.5218310356140137
1403715274527143000,-0.009834326803684235,0.021642999723553658,0.10767608135938644,9.184819221496582,-0.46937984228134155,-3.685086250305176
1403715274532143000,0.016084127128124237,0.013943364843726158,0.08613072335720062,8.840898513793945,-0.5282177925109863,-3.462985038757324
1403715274537143000,0.037064068019390106,0.006352799013257027,0.07495952397584915,9.176581382751465,-0.23177078366279602,-3.710047960281372
1403715274542143000,0.04763909429311752,0.013457139953970909,0.06680929660797119,8.907692909240723,-0.14865878224372864,-3.651728868484497
1403715274547143000,0.04956858605146408,0.013215174898505211,0.06940792500972748,9.364093780517578,0.31978413462638855,-3.82532000541687
1403715274552143000,0.034044064581394196,0.02700427733361721,0.07895006239414215,9.09601879119873,0.6328219771385193,-3.728376865386963
1403715274557143000,0.0017596185207366943,0.025375092402100563,0.08011429756879807,8.908597946166992,0.8866736888885498,-3.803504705429077
1403715274562143000,-0.026312433183193207,0.01645697094500065,0.07526102662086487,9.01427173614502,0.3800034523010254,-3.5733962059020996
1403715274567143000,-0.03750266134738922,0.02288045920431614,0.06520021706819534,9.095438957214355,0.20583364367485046,-3.7527921199798584
1403715274572143000,-0.038639314472675323,0.015888603404164314,0.05213216692209244,9.005151748657227,0.17811930179595947,-3.7047014236450195
1403715274577143000,-0.04257246106863022,0.020062746480107307,0.06126072257757187,9.23415470123291,0.3545556664466858,-3.7864925861358643
1403715274582143000,-0.04029877483844757,0.03822248429059982,0.0815175399184227,8.989315032958984,0.2632993161678314,-3.786362648010254
1403715274587143000,-0.03824467957019806,0.019397517666220665,0.08114953339099884,8.86716079711914,-0.28357747197151184,-3.4720892906188965
1403715274592143000,-0.01182045042514801,0.03758755326271057,0.09148615598678589,9.2755765914917,-0.3290913701057434,-3.7832601070404053
1403715274597143000,0.02227916568517685,0.030088545754551888,0.083925761282444,8.572319984436035,-0.9960935711860657,-3.287867546081543
1403715274602143000,0.06886453181505203,0.012010427191853523,0.06932040303945541,9.444299697875977,-0.8046055436134338,-3.706843852996826
1403715274607143000,0.10304003208875656,0.03225366026163101,0.07449010759592056,8.752090454101562,-0.003894730005413294,-3.561378240585327
1403715274612143000,0.07711300998926163,0.008186286315321922,0.049007169902324677,9.079631805419922,0.9597787857055664,-3.737097978591919
1403715274617143000,0.02835492044687271,0.025946708396077156,0.0654972493648529,9.275259971618652,1.483044147491455,-3.870748519897461
1403715274622143000,-0.04144841432571411,0.02174435742199421,0.0614338219165802,8.769810676574707,1.1611040830612183,-3.731055974960327
1403715274627143000,-0.08061140030622482,0.012062916532158852,0.0745970830321312,9.316229820251465,0.5443716049194336,-3.8695924282073975
1403715274632143000,-0.08511537313461304,0.02617436833679676,0.1014624759554863,8.705662727355957,-0.1439204216003418,-3.522773504257202
1403715274637143000,-0.069101482629776,0.016612770035862923,0.0799788236618042,9.202020645141602,-0.6668350100517273,-3.488825798034668
1403715274642143000,-0.019572965800762177,0.024641642346978188,0.08130624890327454,9.412694931030273,-0.8558512926101685,-3.7328643798828125
1403715274647143000,0.022323429584503174,0.02163667418062687,0.05999566242098808,8.751007080078125,-0.5746392011642456,-3.5610506534576416
1403715274652143000,0.05020787566900253,0.02602783776819706,0.05334111303091049,9.608233451843262,-0.21172933280467987,-3.857323169708252
1403715274657143000,0.059376247227191925,0.03499693423509598,0.049118492752313614,8.81757926940918,-0.0961005911231041,-3.6340837478637695
1403715274662143000,0.05849707871675491,0.031988710165023804,0.051861945539712906,9.201435089111328,0.3789944350719452,-3.800062417984009
1403715274667143000,0.04164954274892807,0.045364513993263245,0.07533411681652069,9.079895973205566,0.6413853764533997,-3.818286180496216
1403715274672143000,0.0004431530833244324,0.03307770937681198,0.0817975401878357,8.590605735778809,1.0982575416564941,-3.8698153495788574
1403715274677143000,-0.040116146206855774,0.02540217526257038,0.0915767252445221,9.242504119873047,0.8763290047645569,-3.8872368335723877
1403715274682143000,-0.07363877445459366,0.022710809484124184,0.0970931202173233,8.836176872253418,0.31712985038757324,-3.5988337993621826
1403715274687143000,-0.07219675183296204,0.01215149275958538,0.09876807779073715,8.859456062316895,-0.26333174109458923,-3.621732473373413
1403715274692143000,-0.039886459708213806,0.0173786673694849,0.09384313970804214,9.12749195098877,-0.7401876449584961,-3.487403392791748
1403715274697143000,0.006252549588680267,0.02165009267628193,0.08274863660335541,9.274293899536133,-0.9370602965354919,-3.6168015003204346
1403715274702143000,0.05039302259683609,0.03287050127983093,0.08133663237094879,9.0276460647583,-0.4863847494125366,-3.5689754486083984
1403715274707143000,0.06568673998117447,0.03849303722381592,0.0692899078130722,9.536233901977539,0.08795024454593658,-3.7837142944335938
1403715274712143000,0.05166702717542648,0.05164250731468201,0.06706815212965012,8.77756404876709,0.5642563104629517,-3.6374738216400146
1403715274717143000,0.018049068748950958,0.03193412721157074,0.05793546140193939,9.030378341674805,0.8595168590545654,-3.6964330673217773
1403715274722143000,-0.012075670063495636,0.033257342875003815,0.07409051060676575,9.057267189025879,0.6411009430885315,-3.6473169326782227
1403715274727143000,-0.0386362299323082,0.022065693512558937,0.07071465253829956,8.500429153442383,0.45302504301071167,-3.573366403579712
1403715274732143000,-0.045083075761795044,0.0037921424955129623,0.07902435958385468,9.071809768676758,0.21458376944065094,-3.5578200817108154
1403715274737143000,-0.04570107161998749,-0.0017089508473873138,0.08267117291688919,8.933213233947754,-0.12306123226881027,-3.6944704055786133
1403715274742143000,-0.025492332875728607,0.004612362012267113,0.07079049199819565,9.265901565551758,-0.21424001455307007,-3.678572654724121
1403715274747143000,-0.00010374188423156738,0.01941598393023014,0.08275730162858963,9.234044075012207,-0.22387388348579407,-3.7018344402313232
1403715274752143000,0.0064225345849990845,0.03073526732623577,0.06115804985165596,9.004593849182129,-0.14429667592048645,-3.553678035736084
1403715274757143000,0.027435369789600372,0.017550894990563393,0.0888780951499939,8.97252368927002,0.05201499164104462,-3.570578098297119
1403715274762143000,0.025230206549167633,0.023119235411286354,0.06732984632253647,9.201262474060059,-0.1416068822145462,-3.6113839149475098
1403715274767143000,0.03342495113611221,0.01447337307035923,0.09208419173955917,8.858990669250488,0.34312817454338074,-3.548088788986206
1403715274772143000,0.012420542538166046,0.007538961246609688,0.06711399555206299,9.10380744934082,0.3053388297557831,-3.744845390319824
1403715274777143000,0.001013919711112976,0.01160949282348156,0.08389817178249359,9.307965278625488,0.5838453769683838,-3.9258899688720703
1403715274782143000,-0.017184294760227203,0.026338735595345497,0.07774730026721954,9.283090591430664,0.355419784784317,-3.8842458724975586
1403715274787143000,-0.027606479823589325,0.03807297348976135,0.08054067939519882,9.11205768585205,0.5160920023918152,-3.8192756175994873
1403715274792143000,-0.041916295886039734,0.03551536053419113,0.0855216234922409,8.639179229736328,-0.03367147967219353,-3.612328290939331
1403715274797143000,-0.030130498111248016,0.022347519174218178,0.07847478985786438,9.086935997009277,-0.2734212279319763,-3.6116559505462646
1403715274802143000,-0.0028376206755638123,0.026478366926312447,0.09098672866821289,9.1194486618042,-0.5264101028442383,-3.651815176010132
1403715274807143000,0.013301253318786621,0.01588878594338894,0.06869299709796906,8.735605239868164,-0.1345837563276291,-3.5549561977386475
1403715274812143000,0.021048031747341156,0.008353928104043007,0.06930311024188995,9.168641090393066,-0.0018203542567789555,-3.7516603469848633
1403715274817143000,0.03001432865858078,0.021544774994254112,0.07006644457578659,9.331621170043945,0.27683204412460327,-3.817366600036621
1403715274822143000,0.023541800677776337,0.040222860872745514,0.0714627280831337,9.413113594055176,0.5657070875167847,-3.93277907371521
1403715274827143000,-0.003596283495426178,0.04292871803045273,0.06850636750459671,8.713123321533203,0.6722371578216553,-3.6224355697631836
1403715274832143000,-0.028769388794898987,0.031990572810173035,0.06511607766151428,8.875543594360352,0.2563604414463043,-3.6044669151306152
1403715274837143000,-0.02134699374437332,0.02647309936583042,0.09162652492523193,8.989008903503418,-0.15357130765914917,-3.6612374782562256
1403715274842143000,-0.012927480041980743,0.015094725415110588,0.08897626399993896,8.907892227172852,-0.1225147470831871,-3.6047234535217285
1403715274847143000,-0.016121067106723785,-0.00033085234463214874,0.0951712355017662,8.9737548828125,0.2522520422935486,-3.7215685844421387
1403715274852143000,-0.01600411906838417,0.013886036351323128,0.08331272006034851,9.127678871154785,-0.08443760871887207,-3.735067367553711
1403715274857143000,-0.0015625134110450745,0.026436375454068184,0.07773584127426147,9.486281394958496,-0.2082311064004898,-3.734522581100464
1403715274862143000,0.012479081749916077,0.029895441606640816,0.0659884586930275,9.005241394042969,-0.25541844964027405,-3.5367884635925293
1403715274867143000,0.014758959412574768,0.033399373292922974,0.05609462037682533,9.054688453674316,0.1384875476360321,-3.628227472305298
1403715274872143000,0.01957884430885315,0.01954043097794056,0.07977908104658127,8.792778968811035,0.04125320911407471,-3.5706098079681396
1403715274877143000,0.01928715407848358,0.02710951305925846,0.08681558072566986,9.029725074768066,0.04139748588204384,-3.6127898693084717
1403715274882143000,0.014311768114566803,0.014530813321471214,0.10544231534004211,8.966408729553223,0.34431302547454834,-3.6473140716552734
1403715274887143000,-0.015547730028629303,0.011697812005877495,0.08307244628667831,9.112638473510742,0.6234302520751953,-3.680588722229004
1403715274892143000,-0.03300003707408905,0.01650247536599636,0.08037173748016357,9.185240745544434,0.34300872683525085,-3.7452828884124756
1403715274897143000,-0.04067307710647583,0.017837127670645714,0.06877658516168594,9.087363243103027,-0.17336779832839966,-3.6366209983825684
1403715274902143000,-0.014222808182239532,0.016566039994359016,0.06744599342346191,9.201695442199707,-0.16565585136413574,-3.628347635269165
1403715274907143000,0.0020736530423164368,0.018780076876282692,0.07234551012516022,8.874606132507324,-0.18991398811340332,-3.594956398010254
1403715274912143000,0.016080297529697418,0.017453128471970558,0.07847382128238678,9.021062850952148,-0.0681152418255806,-3.6450417041778564
1403715274917143000,0.026512183248996735,0.018160218372941017,0.09919451177120209,9.176969528198242,-0.03442010655999184,-3.751833200454712
1403715274922143000,0.021444283425807953,0.01882837899029255,0.08030393719673157,9.095393180847168,0.3339197337627411,-3.679257392883301
1403715274927143000,0.007580004632472992,0.020751813426613808,0.08167760819196701,9.210111618041992,0.6624988913536072,-3.7701544761657715
1403715274932143000,-0.01954111084342003,0.023380110040307045,0.06584423035383224,8.851195335388184,0.44964244961738586,-3.6791436672210693
1403715274937143000,-0.019045360386371613,0.01790040172636509,0.07022132724523544,9.054736137390137,0.0012958095176145434,-3.7354633808135986
1403715274942143000,-0.012881599366664886,0.010300064459443092,0.07030515372753143,9.079095840454102,-0.08040692657232285,-3.686206579208374
1403715274947143000,-0.0037293657660484314,0.021448032930493355,0.08049781620502472,8.997421264648438,0.16344906389713287,-3.694917678833008
1403715274952143000,-0.004952512681484222,0.015903571620583534,0.09146444499492645,8.989279747009277,0.1372167021036148,-3.695401906967163
1403715274957143000,-0.00154818594455719,0.024431603029370308,0.08741477131843567,9.241771697998047,-0.09932766109704971,-3.7925446033477783
1403715274962143000,0.0033885911107063293,0.02793457917869091,0.08675400912761688,9.184539794921875,-0.0016378149157389998,-3.719062328338623
1403715274967143000,-0.003502167761325836,0.02216862328350544,0.06873531639575958,8.948360443115234,0.12048414349555969,-3.563175678253174
1403715274972143000,-0.004136167466640472,0.011552447453141212,0.07086673378944397,8.916349411010742,0.1535310447216034,-3.6044275760650635
1403715274977143000,0.0012952759861946106,0.007507629692554474,0.06597136706113815,9.086603164672852,-0.13822592794895172,-3.7671260833740234
1403715274982143000,0.013701863586902618,0.020138172432780266,0.07837633043527603,9.258256912231445,0.017412854358553886,-3.76021146774292
1403715274987143000,0.012373678386211395,0.02432229183614254,0.08180607855319977,9.120081901550293,0.180893674492836,-3.7277822494506836
1403715274992143000,0.0026470795273780823,0.022906677797436714,0.09080895781517029,8.956558227539062,0.44125887751579285,-3.85125994682312
1403715274997143000,-0.014848433434963226,0.028514647856354713,0.08674226701259613,9.299427032470703,0.27037307620048523,-3.8427135944366455
1403715275002143000,-0.01903611794114113,0.04169081896543503,0.08131866902112961,8.940327644348145,0.04880799725651741,-3.5471463203430176
1403715275007143000,-0.016855474561452866,0.020755121484398842,0.07505553960800171,8.84268856048584,-0.12398926168680191,-3.5876502990722656
1403715275012143000,-0.008426576852798462,0.00752701610326767,0.0791836827993393,8.793631553649902,-0.08376378566026688,-3.620173692703247
1403715275017143000,0.005515135824680328,0.010405460372567177,0.08052681386470795,9.143754959106445,-0.17223046720027924,-3.6940293312072754
1403715275022143000,0.0187220498919487,0.023548321798443794,0.08046387881040573,9.184757232666016,-0.057518474757671356,-3.735642194747925
1403715275027143000,0.019397981464862823,0.023645145818591118,0.06854967027902603,9.20952033996582,0.17040029168128967,-3.751721143722534
1403715275032143000,0.013184137642383575,0.039050959050655365,0.07274287939071655,9.168596267700195,0.49002939462661743,-3.7606656551361084
1403715275037143000,-0.007727310061454773,0.03470371663570404,0.07149204611778259,8.931985855102539,0.40962132811546326,-3.6952805519104004
1403715275042143000,-0.019026286900043488,0.03318247199058533,0.06662941724061966,8.989908218383789,0.22981242835521698,-3.6461384296417236
1403715275047143000,-0.02180887758731842,0.02220483310520649,0.08265303820371628,8.81865406036377,0.1139882281422615,-3.547816276550293
1403715275052143000,-0.011394120752811432,0.011058134958148003,0.08532929420471191,8.964607238769531,-0.01764592155814171,-3.5557310581207275
1403715275057143000,-0.006413780152797699,0.009563891217112541,0.08460983633995056,9.144099235534668,-0.07410617917776108,-3.661979913711548
1403715275062143000,0.0033694878220558167,0.017970016226172447,0.07146775722503662,9.168694496154785,-0.033339183777570724,-3.653555393218994
1403715275067143000,0.00895313173532486,0.020162241533398628,0.06793355941772461,9.347970008850098,0.06356870383024216,-3.7927443981170654
1403715275072143000,0.00896172970533371,0.03194199502468109,0.07919074594974518,9.021679878234863,0.332638680934906,-3.6536519527435303
1403715275077143000,-0.0007062479853630066,0.029776839539408684,0.07577694952487946,9.062908172607422,0.3589075207710266,-3.703352689743042
1403715275082143000,-0.010504230856895447,0.02427881397306919,0.08039596676826477,8.891914367675781,0.21271368861198425,-3.5478920936584473
1403715275087143000,-0.007167227566242218,0.023711631074547768,0.08111855387687683,9.022054672241211,-0.03287305310368538,-3.5960021018981934
1403715275092143000,0.003264583647251129,0.015292147174477577,0.10061696916818619,8.948575973510742,0.05661271512508392,-3.621462821960449
1403715275097143000,-0.004335261881351471,0.013004327192902565,0.08317378163337708,8.916085243225098,0.20430023968219757,-3.6464664936065674
1403715275102143000,-0.0022330209612846375,0.008839784190058708,0.08473899960517883,9.258916854858398,0.15599489212036133,-3.744647979736328
1403715275107143000,-0.0071425661444664,0.013063589110970497,0.0659915879368782,9.11956787109375,-0.02526627667248249,-3.7511537075042725
1403715275112143000,-0.00020760297775268555,0.022771315649151802,0.07219886779785156,9.160614967346191,0.29303044080734253,-3.818147897720337
1403715275117143000,-0.005593977868556976,0.022934922948479652,0.07088357955217361,8.883350372314453,0.12147116661071777,-3.571423292160034
1403715275122143000,-0.010509021580219269,0.020910555496811867,0.06577738374471664,9.201025009155273,0.13029979169368744,-3.8256750106811523
1403715275127143000,-0.005681760609149933,0.024450460448861122,0.07902412861585617,9.013322830200195,-0.15585805475711823,-3.5956554412841797
1403715275132143000,0.0032895728945732117,0.020852187648415565,0.08471295982599258,9.054452896118164,0.08076857030391693,-3.711435556411743
1403715275137143000,0.0068794190883636475,0.013771036639809608,0.08674421906471252,8.973112106323242,0.11458038538694382,-3.6215295791625977
1403715275142143000,0.0006146281957626343,0.010893033817410469,0.08057592809200287,9.127997398376465,0.33567890524864197,-3.760657787322998
1403715275147143000,-0.0029375776648521423,0.020001234486699104,0.07005296647548676,9.242339134216309,0.18035511672496796,-3.809929609298706
1403715275152143000,-0.0050989314913749695,0.01789643056690693,0.06928304582834244,8.98933219909668,0.17948973178863525,-3.7519640922546387
1403715275157143000,-0.00645841658115387,0.02644488401710987,0.07087957859039307,8.980997085571289,0.13876697421073914,-3.6292057037353516
1403715275162143000,-0.013291478157043457,0.01668974943459034,0.07842697203159332,9.054543495178223,0.19559772312641144,-3.7357068061828613
1403715275167143000,-0.00638628751039505,0.027120215818285942,0.08399665355682373,9.1685152053833,-0.0575057715177536,-3.760073184967041
1403715275172143000,0.003342472016811371,0.029226722195744514,0.0930667519569397,9.013553619384766,-0.08334033191204071,-3.6697540283203125
1403715275177143000,0.008929267525672913,0.025745192542672157,0.0866788849234581,8.98083782196045,-0.025269197300076485,-3.587955951690674
1403715275182143000,0.007613234221935272,0.021493764594197273,0.07767058908939362,9.14413833618164,0.21242929995059967,-3.670057535171509
1403715275187143000,0.007572732865810394,0.01787070743739605,0.07566492259502411,9.062786102294922,0.22898845374584198,-3.7441494464874268
1403715275192143000,-0.0036635622382164,0.022077465429902077,0.06305418163537979,9.046552658081055,0.16324183344841003,-3.6132218837738037
1403715275197143000,-0.0036661773920059204,0.017285821959376335,0.06945090740919113,9.095192909240723,0.18774612247943878,-3.801241874694824
1403715275202143000,-0.009887464344501495,0.025044886395335197,0.06799665093421936,9.046082496643066,0.2042524218559265,-3.5964393615722656
1403715275207143000,-0.011332742869853973,0.02710852213203907,0.08460942655801773,9.193517684936523,0.11444150656461716,-3.7932395935058594
1403715275212143000,-0.010535188019275665,0.031277380883693695,0.08260630816221237,8.801779747009277,0.023829182609915733,-3.4654407501220703
1403715275217143000,-0.0050668492913246155,0.018790526315569878,0.08325545489788055,9.103351593017578,-0.06678066402673721,-3.6284327507019043
1403715275222143000,0.006122231483459473,0.022873716428875923,0.08815421909093857,8.997116088867188,0.03946235403418541,-3.588190793991089
1403715275227143000,0.005474455654621124,0.01022818498313427,0.07359108328819275,8.964982986450195,0.1550605744123459,-3.645660638809204
1403715275232143000,0.0013405755162239075,0.016512325033545494,0.07077290117740631,9.030449867248535,0.13892367482185364,-3.703543186187744
1403715275237143000,-0.00223483145236969,0.014596978202462196,0.06382744759321213,9.029924392700195,0.055684830993413925,-3.677546262741089
1403715275242143000,0.0032804682850837708,0.020849959924817085,0.07841728627681732,9.282745361328125,0.1550464779138565,-3.825979471206665
1403715275247143000,-0.0014728084206581116,0.024261949583888054,0.08397062122821808,8.84276294708252,0.2776184380054474,-3.5557496547698975
1403715275252143000,-0.007071174681186676,0.01867232657968998,0.08814766258001328,9.161142349243164,0.17196428775787354,-3.7773044109344482
1403715275257143000,-0.009874410927295685,0.025048935785889626,0.08672425150871277,8.899248123168945,0.007345232646912336,-3.6289725303649902
1403715275262143000,-0.002364248037338257,0.025709299370646477,0.08748836815357208,9.209586143493652,0.06468146294355392,-3.6870217323303223
1403715275267143000,0.0012611523270606995,0.02289092354476452,0.07980868220329285,8.899609565734863,0.13844285905361176,-3.6298556327819824
1403715275272143000,-0.005608983337879181,0.010272214189171791,0.07142535597085953,8.940442085266113,0.18764835596084595,-3.6703600883483887
1403715275277143000,-9.027868509292603e-05,0.01242646761238575,0.06526578217744827,9.152151107788086,-0.0907692015171051,-3.759396553039551
1403715275282143000,0.006101064383983612,0.01728341169655323,0.07566811144351959,9.176736831665039,0.06405060738325119,-3.7433910369873047
1403715275287143000,0.0005406215786933899,0.03054031915962696,0.07145857810974121,9.193346977233887,0.2119341790676117,-3.736130475997925
1403715275292143000,-0.006269633769989014,0.02504749409854412,0.08812624216079712,8.956794738769531,0.3350651264190674,-3.6626341342926025
1403715275297143000,-0.006380930542945862,0.03273404389619827,0.07695923745632172,9.046189308166504,0.06542045623064041,-3.67828106880188
1403715275302143000,-0.005812652409076691,0.01871129311621189,0.09022107720375061,9.054625511169434,-0.016869910061359406,-3.7027077674865723
1403715275307143000,-0.0036616697907447815,0.0270333681255579,0.07847027480602264,9.005642890930176,0.13060849905014038,-3.6460447311401367
1403715275312143000,-0.002167843282222748,0.010970288887619972,0.07768522948026657,8.850783348083496,0.20437508821487427,-3.613182306289673
1403715275317143000,-0.0071200355887413025,0.008176323026418686,0.07362856715917587,9.070718765258789,-0.06547944992780685,-3.743164539337158
1403715275322143000,0.001938067376613617,0.016603099182248116,0.07149016857147217,9.05447769165039,-0.0666046217083931,-3.7185285091400146
1403715275327143000,0.006850101053714752,0.022883767262101173,0.07489550113677979,9.299400329589844,0.1872691810131073,-3.801525831222534
1403715275332143000,0.000615827739238739,0.029881013557314873,0.07840526103973389,8.997458457946777,0.41625770926475525,-3.605358362197876
1403715275337143000,-0.009803660213947296,0.02641589380800724,0.08117346465587616,9.152307510375977,0.09754399955272675,-3.694511890411377
1403715275342143000,-0.007107093930244446,0.03132560849189758,0.07559861242771149,8.931775093078613,-0.02518668957054615,-3.6207003593444824
1403715275347143000,0.001136593520641327,0.02570188231766224,0.08120588958263397,9.111937522888184,0.12223272025585175,-3.6458466053009033
1403715275352143000,0.001290149986743927,0.022171514108777046,0.08114930987358093,8.86690902709961,0.22872982919216156,-3.6052913665771484
1403715275357143000,-0.004210934042930603,0.011689325794577599,0.06794682145118713,8.915850639343262,0.13887350261211395,-3.621032953262329
1403715275362143000,-0.006484106183052063,0.00461835041642189,0.0687490925192833,9.079118728637695,-0.0576394647359848,-3.718827486038208
1403715275367143000,0.001146174967288971,0.015876779332756996,0.0749572366476059,9.144465446472168,0.048293087631464005,-3.7270584106445312
1403715275372143000,0.005491927266120911,0.02213880605995655,0.08191981911659241,9.234326362609863,0.3344810903072357,-3.8020236492156982
1403715275377143000,-0.006256125867366791,0.030609434470534325,0.0826263502240181,8.997332572937012,0.29381754994392395,-3.678769826889038
1403715275382143000,-0.014026306569576263,0.02783035673201084,0.08109886944293976,9.103386878967285,0.0729864090681076,-3.7194302082061768
1403715275387143000,-0.006490722298622131,0.025731543079018593,0.08534236252307892,9.029952049255371,0.023663144558668137,-3.6537325382232666
1403715275392143000,0.0011741295456886292,0.029195589944720268,0.08336654305458069,8.95669937133789,0.08939668536186218,-3.6375045776367188
1403715275397143000,-0.00283677875995636,0.022177429869771004,0.07418720424175262,9.06267261505127,0.16341452300548553,-3.6461737155914307
1403715275402143000,-0.004907868802547455,0.013800082728266716,0.06868074834346771,8.964515686035156,-0.01592114381492138,-3.60406756401062
1403715275407143000,0.0011631250381469727,0.015848292037844658,0.06805886328220367,9.119606018066406,-0.025358568876981735,-3.768068552017212
1403715275412143000,0.008106254041194916,0.018637528643012047,0.08052193373441696,9.169110298156738,0.2527356445789337,-3.8260719776153564
1403715275417143000,-0.0021318718791007996,0.031244853511452675,0.07281637191772461,9.152710914611816,0.3593137264251709,-3.7116787433624268
1403715275422143000,-0.01602502167224884,0.027796665206551552,0.07976357638835907,9.119670867919922,0.22064371407032013,-3.719752788543701
1403715275427143000,-0.017596304416656494,0.032057955861091614,0.07418954372406006,8.980966567993164,-0.025098048150539398,-3.6286823749542236
1403715275432143000,-0.007237456738948822,0.028491536155343056,0.07633739709854126,9.013644218444824,0.023326249793171883,-3.678122043609619
1403715275437143000,-0.0022167041897773743,0.021511321887373924,0.07920798659324646,8.907636642456055,0.0811207965016365,-3.490320920944214
1403715275442143000,-0.003501392900943756,0.015875937417149544,0.06938484311103821,8.997261047363281,0.02538616769015789,-3.669950008392334
1403715275447143000,0.001985810697078705,0.012348553165793419,0.07213012874126434,8.980916023254395,-0.024840302765369415,-3.6615567207336426
1403715275452143000,0.010906435549259186,0.012357084080576897,0.07917224615812302,9.119994163513184,0.11326318234205246,-3.759979486465454
1403715275457143000,0.0019266679883003235,0.020786063745617867,0.07907790690660477,9.348698616027832,0.23646241426467896,-3.7934911251068115
1403715275462143000,-0.00487440824508667,0.03199511766433716,0.07768422365188599,8.989273071289062,0.34371355175971985,-3.6457486152648926
1403715275467143000,-0.01400967687368393,0.025011619552969933,0.07842205464839935,9.062679290771484,0.14691902697086334,-3.7114315032958984
1403715275472143000,-0.012070544064044952,0.0271023977547884,0.08740066736936569,8.932093620300293,0.06386536359786987,-3.645551919937134
1403715275477143000,-0.008544757962226868,0.027860449627041817,0.08269725739955902,9.013785362243652,0.007555590942502022,-3.637554883956909
1403715275482143000,-0.0029223188757896423,0.014508949592709541,0.08403000235557556,9.08725357055664,-0.03275885432958603,-3.5884082317352295
1403715275487143000,0.0006103590130805969,0.01307620294392109,0.07693936675786972,8.899401664733887,-0.05704730376601219,-3.6285572052001953
1403715275492143000,0.008908219635486603,0.0046780891716480255,0.07496518641710281,9.135869026184082,0.007336251437664032,-3.7025580406188965
1403715275497143000,0.012414522469043732,0.019327929243445396,0.0805521160364151,9.209860801696777,0.27644243836402893,-3.760561227798462
1403715275502143000,-0.0001200065016746521,0.02148335613310337,0.06930165737867355,9.177206993103027,0.28569966554641724,-3.7032744884490967
1403715275507143000,-0.009106718003749847,0.029903417453169823,0.07631983608007431,9.103354454040527,0.3761156499385834,-3.810115098953247
1403715275512143000,-0.013345308601856232,0.03205094486474991,0.072842538356781,8.891300201416016,0.1707983762025833,-3.629565715789795
1403715275517143000,-0.00928129255771637,0.03059392236173153,0.07835374772548676,8.989245414733887,0.0807342529296875,-3.727566957473755
1403715275522143000,-0.006391175091266632,0.02224496193230152,0.08127454668283463,8.826336860656738,0.02392497844994068,-3.563730001449585
1403715275527143000,-0.0022158101201057434,0.02010180987417698,0.0756465271115303,9.046420097351074,-0.048805367201566696,-3.6778383255004883
1403715275532143000,0.002649657428264618,0.01168358325958252,0.079087033867836,8.866519927978516,-0.04913744330406189,-3.6125552654266357
1403715275537143000,0.010986141860485077,0.007407471537590027,0.07295873016119003,9.10354232788086,0.06433814018964767,-3.767993927001953
1403715275542143000,0.01246710866689682,0.021433891728520393,0.08467424660921097,9.210055351257324,0.3097647726535797,-3.7527148723602295
1403715275547143000,0.0006449595093727112,0.024295637384057045,0.07557477056980133,9.06270980834961,0.34298157691955566,-3.719564199447632
1403715275552143000,-0.0133124440908432,0.029814889654517174,0.07696209102869034,9.119675636291504,0.3514162600040436,-3.736722230911255
1403715275557143000,-0.016179122030735016,0.02924335189163685,0.084634929895401,8.948402404785156,0.1622825562953949,-3.637396812438965
1403715275562143000,-0.014155887067317963,0.025703279301524162,0.07774578034877777,8.997446060180664,-0.008681857958436012,-3.7193541526794434
1403715275567143000,-0.004304073750972748,0.019377747550606728,0.08195500075817108,8.883265495300293,-0.024151619523763657,-3.5962350368499756
1403715275572143000,0.0013118460774421692,0.013768410310149193,0.07914503663778305,9.030131340026855,-0.04078459367156029,-3.6698436737060547
1403715275577143000,0.009593389928340912,0.0109720379114151,0.07906461507081985,9.005330085754395,-0.0005148336640559137,-3.6779775619506836
1403715275582143000,0.009593822062015533,0.010219588875770569,0.07570436596870422,9.03010082244873,0.09741731733083725,-3.768066167831421
1403715275587143000,0.008945785462856293,0.018678689375519753,0.07911360263824463,9.283576965332031,0.27711784839630127,-3.7934608459472656
1403715275592143000,-0.002809368073940277,0.024289103224873543,0.07342652231454849,9.111557006835938,0.3102908432483673,-3.7113914489746094
1403715275597143000,-0.01612045243382454,0.028473177924752235,0.07567217200994492,9.095093727111816,0.28556910157203674,-3.736466646194458
1403715275602143000,-0.01340463012456894,0.030654223635792732,0.07772934436798096,9.09518051147461,0.08911937475204468,-3.686500310897827
1403715275607143000,-0.011368326842784882,0.013118261471390724,0.07558421790599823,8.89123249053955,0.007884161546826363,-3.6291537284851074
1403715275612143000,-0.004336252808570862,0.015872897580266,0.08061647415161133,9.02192497253418,-0.032153334468603134,-3.6045548915863037
1403715275617143000,-6.943941116333008e-05,0.012386327609419823,0.07912315428256989,8.972981452941895,-0.09808234125375748,-3.628392219543457
1403715275622143000,0.006792642176151276,0.010277526453137398,0.07487872987985611,9.02987289428711,-0.08225663006305695,-3.6693387031555176
1403715275627143000,0.015150152146816254,0.011065790429711342,0.0757303386926651,9.217622756958008,0.0814330130815506,-3.7601053714752197
1403715275632143000,0.00481521338224411,0.024979988113045692,0.08045229315757751,9.112236022949219,0.37513598799705505,-3.7198805809020996
1403715275637143000,-0.004890069365501404,0.027083249762654305,0.078354112803936,9.046441078186035,0.30996403098106384,-3.6870365142822266
1403715275642143000,-0.011955402791500092,0.02851277031004429,0.07567107677459717,9.054535865783691,0.26069238781929016,-3.711651086807251
1403715275647143000,-0.012759558856487274,0.03491678833961487,0.07907353341579437,9.005461692810059,0.07280883938074112,-3.7193081378936768
1403715275652143000,-0.009919844567775726,0.02431499771773815,0.07978913187980652,8.850462913513184,0.0078733554109931,-3.506389617919922
1403715275657143000,-0.0022200942039489746,0.022846030071377754,0.08337058871984482,8.940716743469238,0.0002877548395190388,-3.5717294216156006
1403715275662143000,0.005431510508060455,0.01385151781141758,0.07772500813007355,9.005229949951172,-0.155690997838974,-3.619934320449829
1403715275667143000,0.013050295412540436,0.005363794043660164,0.07140901684761047,9.15211296081543,-0.009018460288643837,-3.6778926849365234
1403715275672143000,0.011047594249248505,0.017897790297865868,0.0728960931301117,9.144514083862305,0.24490799009799957,-3.777130365371704
1403715275677143000,0.004809722304344177,0.024250982329249382,0.07768432796001434,9.103775978088379,0.36682915687561035,-3.6868910789489746
1403715275682143000,-0.005646802484989166,0.025761069729924202,0.07628853619098663,9.152548789978027,0.30960026383399963,-3.7442753314971924
1403715275687143000,-0.015456248074769974,0.02712775208055973,0.07424023747444153,9.176855087280273,0.2117307484149933,-3.703521490097046
1403715275692143000,-0.013413973152637482,0.033389680087566376,0.07977749407291412,8.90758991241455,0.03177701309323311,-3.6454973220825195
1403715275697143000,-0.010617785155773163,0.023546451702713966,0.07703268527984619,8.883148193359375,0.008251430466771126,-3.563778877258301
1403715275702143000,-0.0015571489930152893,0.01665703020989895,0.07712956517934799,9.054489135742188,-0.10598880797624588,-3.6204357147216797
1403715275707143000,0.010311640799045563,0.014529230073094368,0.07704614102840424,9.005386352539062,-0.07409070432186127,-3.6695361137390137
1403715275712143000,0.013776957988739014,0.010898476466536522,0.0735006257891655,9.136072158813477,0.06507363170385361,-3.7765588760375977
1403715275717143000,0.013161979615688324,0.020739486441016197,0.0833253562450409,8.989651679992676,0.30159780383110046,-3.7360148429870605
1403715275722143000,-4.8898160457611084e-05,0.024333806708455086,0.07699794322252274,9.095463752746582,0.32600492238998413,-3.73579740524292
1403715275727143000,-0.011264875531196594,0.02289597876369953,0.07972335815429688,9.266945838928223,0.3343657851219177,-3.8020544052124023
1403715275732143000,-0.017558511346578598,0.031239422038197517,0.07981148362159729,9.119879722595215,0.2686460614204407,-3.6546449661254883
1403715275737143000,-0.017578262835741043,0.02776019088923931,0.0776902288198471,8.874565124511719,0.031973499804735184,-3.637629270553589
1403715275742143000,-0.01129770278930664,0.01591753400862217,0.07985541224479675,8.883122444152832,-0.04872256889939308,-3.596229076385498
1403715275747143000,-0.0008816644549369812,0.013137983158230782,0.07855395972728729,9.119828224182129,-0.19590134918689728,-3.6773452758789062
1403715275752143000,0.0075311362743377686,0.013036025688052177,0.07906103134155273,9.01358699798584,0.024333136156201363,-3.72739315032959
1403715275757143000,0.011023961007595062,0.020720740780234337,0.06934444606304169,9.07085132598877,0.15482445061206818,-3.7682902812957764
1403715275762143000,0.011086158454418182,0.021526461467146873,0.07490366697311401,9.038442611694336,0.31820449233055115,-3.686642646789551
1403715275767143000,-0.0028490349650382996,0.020822538062930107,0.07766301929950714,9.136381149291992,0.32632705569267273,-3.727903127670288
1403715275772143000,-0.011264480650424957,0.028422007337212563,0.08053348958492279,9.258901596069336,0.3180851936340332,-3.728419780731201
1403715275777143000,-0.01754237338900566,0.027769872918725014,0.08050611615180969,8.883095741271973,0.17077238857746124,-3.5968291759490967
1403715275782143000,-0.015526603907346725,0.02151920087635517,0.08534802496433258,8.980643272399902,0.02408028207719326,-3.736109733581543
1403715275787143000,-0.01479235291481018,0.013844938948750496,0.07632781565189362,8.964861869812012,-0.05676422268152237,-3.53048038482666
1403715275792143000,-0.002272762358188629,0.015158211812376976,0.07847792655229568,9.177123069763184,-0.09001600742340088,-3.6941704750061035
1403715275797143000,0.006811000406742096,0.013027263805270195,0.07428181171417236,9.037826538085938,-0.09014466404914856,-3.735024929046631
1403715275802143000,0.011718221008777618,0.017991481348872185,0.07214123010635376,9.054299354553223,0.1629556119441986,-3.743413209915161
1403715275807143000,0.01462768018245697,0.027147972956299782,0.07775478065013885,9.087318420410156,0.2855808734893799,-3.69503116607666
1403715275812143000,-0.004239670932292938,0.023513318970799446,0.08598438650369644,9.17773723602295,0.4893740117549896,-3.728756904602051
1403715275817143000,-0.014768809080123901,0.03688181936740875,0.08319899439811707,9.201789855957031,0.2934131920337677,-3.736619710922241
1403715275822143000,-0.020349107682704926,0.02995818294584751,0.07493793219327927,8.96426773071289,0.0562608540058136,-3.5966992378234863
1403715275827143000,-0.012750871479511261,0.029178278520703316,0.07770252227783203,8.923526763916016,-0.01585535705089569,-3.7029261589050293
1403715275832143000,-0.005012765526771545,0.02009056694805622,0.07218357175588608,8.940425872802734,-0.0487932451069355,-3.546552896499634
1403715275837143000,0.0054320767521858215,0.020771922543644905,0.07444251328706741,9.201333045959473,-0.12252653390169144,-3.8167924880981445
1403715275842143000,0.014461539685726166,0.023603642359375954,0.07358153909444809,9.159945487976074,-0.07392013818025589,-3.7515177726745605
1403715275847143000,0.015851788222789764,0.03478427976369858,0.0741487368941307,9.176462173461914,0.0816713348031044,-3.8169538974761963
1403715275852143000,0.01256454735994339,0.03474673628807068,0.08532349020242691,8.965343475341797,0.47342294454574585,-3.6794567108154297
1403715275857143000,-0.008409805595874786,0.03054572455585003,0.07556223124265671,9.283562660217285,0.383335143327713,-3.8180785179138184
1403715275862143000,-0.016834311187267303,0.037523068487644196,0.08181120455265045,8.956713676452637,0.2929666340351105,-3.5976076126098633
1403715275867143000,-0.021077364683151245,0.02706100232899189,0.07855936139822006,8.899139404296875,-0.1312296837568283,-3.6124966144561768
1403715275872143000,-0.014861278235912323,0.0186657402664423,0.07703272253274918,8.980982780456543,-0.10578462481498718,-3.6044762134552
1403715275877143000,0.005439653992652893,0.018046541139483452,0.07987461984157562,9.054481506347656,-0.1469542682170868,-3.6278254985809326
1403715275882143000,0.01239650696516037,0.020070308819413185,0.07500230520963669,9.372370719909668,-0.09820796549320221,-3.8010811805725098
1403715275887143000,0.01938232034444809,0.0340241864323616,0.08108019828796387,9.054266929626465,0.2120702713727951,-3.7109053134918213
1403715275892143000,0.007572568953037262,0.02985505945980549,0.0762988030910492,9.013692855834961,0.3913942575454712,-3.711604595184326
1403715275897143000,-0.008478261530399323,0.03407515585422516,0.07697313278913498,9.210037231445312,0.39966416358947754,-3.7773420810699463
1403715275902143000,-0.018169768154621124,0.027717189863324165,0.07351355999708176,8.883915901184082,0.276592493057251,-3.6381421089172363
1403715275907143000,-0.016876481473445892,0.022902922704815865,0.07644712924957275,9.111480712890625,-0.1480329930782318,-3.7109031677246094
1403715275912143000,-0.00853053480386734,0.02019229717552662,0.07355305552482605,9.029452323913574,-0.2703337073326111,-3.6527011394500732
1403715275917143000,0.008843623101711273,0.026443837210536003,0.0693814754486084,9.412612915039062,-0.07267142087221146,-3.882678270339966
1403715275922143000,0.017976082861423492,0.05226324498653412,0.07707563787698746,9.633883476257324,0.27021172642707825,-3.916968584060669
1403715275927143000,0.0019659921526908875,0.08648791909217834,0.07005522400140762,9.209078788757324,0.4170056879520416,-4.00651216506958
1403715275932143000,-0.018179338425397873,0.07262428104877472,0.06309443712234497,8.597314834594727,0.23665253818035126,-3.563891887664795
1403715275937143000,-0.020325012505054474,0.05157431215047836,0.07427014410495758,8.712837219238281,0.21937790513038635,-3.5389394760131836
1403715275942143000,-0.015497293323278427,0.03679545968770981,0.07634755969047546,8.720853805541992,-0.13096733391284943,-3.5955371856689453
1403715275947143000,-0.0007405579090118408,0.024085363373160362,0.09307391196489334,9.071046829223633,0.1628347784280777,-3.736820697784424
1403715275952143000,0.004171989858150482,0.04239606112241745,0.08887901902198792,9.087316513061523,0.09687452018260956,-3.662940740585327
1403715275957143000,0.00048020482063293457,0.036240942776203156,0.07614409178495407,8.939631462097168,0.00731215626001358,-3.5302319526672363
1403715275962143000,0.0025422200560569763,0.022803308442234993,0.06656475365161896,8.858683586120605,0.09854701161384583,-3.349686861038208
1403715275967143000,0.00609935075044632,0.007336068898439407,0.07296808063983917,9.103838920593262,-0.12245786190032959,-3.520735502243042
1403715275972143000,0.013163231313228607,0.013593839481472969,0.08258949220180511,9.208813667297363,0.19583815336227417,-3.6375701427459717
1403715275977143000,0.004121065139770508,0.03190578520298004,0.08544458448886871,9.462252616882324,0.40727537870407104,-3.7208194732666016
1403715275982143000,-0.014102362096309662,0.04962453991174698,0.07624003291130066,9.364470481872559,0.13792912662029266,-3.810324192047119
1403715275987143000,-0.016958467662334442,0.03017515130341053,0.07126325368881226,8.557206153869629,0.06408828496932983,-3.3833518028259277
1403715275992143000,-0.004441834986209869,0.01881314627826214,0.07714512199163437,9.24284839630127,-0.17972403764724731,-3.5543770790100098
1403715275997143000,0.009746521711349487,0.03256792575120926,0.09312061965465546,8.92396354675293,0.12098006159067154,-3.669787645339966
1403715276002143000,0.006264232099056244,0.021166829392313957,0.10554011166095734,9.267265319824219,0.5874435901641846,-3.8199148178100586
1403715276007143000,-0.02451878786087036,0.03814537823200226,0.0887875109910965,9.10517692565918,0.5387311577796936,-3.681323528289795
1403715276012143000,-0.04063498228788376,-0.004896685481071472,0.07490432262420654,8.419580459594727,-0.16551941633224487,-3.5468387603759766
1403715276017143000,-0.028178125619888306,-0.002199014648795128,0.06312055140733719,9.380765914916992,-0.3183375597000122,-3.70194935798645
1403715276022143000,0.006862945854663849,0.014708181843161583,0.0722518116235733,9.331040382385254,-0.5149943232536316,-3.6585988998413086
1403715276027143000,0.03352040797472,0.043973080813884735,0.05549515038728714,9.101455688476562,-0.17203015089035034,-3.7013068199157715
1403715276032143000,0.03272288292646408,0.02243264950811863,0.047017406672239304,8.646187782287598,0.18003617227077484,-3.4644927978515625
1403715276037143000,0.023465387523174286,0.010993847623467445,0.06365455687046051,8.746382713317871,0.6525467038154602,-3.622635841369629
1403715276042143000,0.005344994366168976,0.002376025542616844,0.07958319783210754,8.778620719909668,0.9154670238494873,-3.5924196243286133
1403715276047143000,-0.027283668518066406,0.024688998237252235,0.0852733924984932,9.38996696472168,0.49854543805122375,-3.8689916133880615
1403715276052143000,-0.043174296617507935,0.017472030594944954,0.08105240017175674,8.426621437072754,-0.0016186118591576815,-3.260446786880493
1403715276057143000,-0.021170929074287415,-0.030687691643834114,0.09367676079273224,8.736993789672852,-0.21434956789016724,-3.2914700508117676
1403715276062143000,-0.00028993934392929077,-0.013446438126266003,0.09750974923372269,8.811097145080566,-0.1569332480430603,-3.4638123512268066
1403715276067143000,0.011085890233516693,-0.03597496077418327,0.10656507313251495,9.340112686157227,0.1211266815662384,-3.7774300575256348
1403715276072143000,0.009825773537158966,0.006732700392603874,0.07411174476146698,9.338754653930664,0.006891950964927673,-3.769345998764038
1403715276077143000,0.005460180342197418,-0.0013571642339229584,0.0613866001367569,8.825491905212402,0.1786305457353592,-3.612013578414917
1403715276082143000,-0.0016421452164649963,0.0034785475581884384,0.07560372352600098,9.39795970916748,0.29443585872650146,-3.809095621109009
1403715276087143000,-0.0014484971761703491,0.0138834398239851,0.08755306154489517,9.162100791931152,0.31853657960891724,-3.809230327606201
1403715276092143000,-0.00700841099023819,0.05512203276157379,0.06606420874595642,8.97240924835205,-0.1293715387582779,-3.743384599685669
1403715276097143000,0.005447790026664734,0.011245042085647583,0.07560080289840698,8.645964622497559,-0.008009164594113827,-3.5141780376434326
1403715276102143000,-0.005157053470611572,0.0011353082954883575,0.057943761348724365,9.201441764831543,0.14797981083393097,-3.989579677581787
1403715276107143000,-0.012856684625148773,0.01088782399892807,0.0797891914844513,8.737826347351074,0.6216016411781311,-3.7548394203186035
1403715276112143000,-0.025996044278144836,0.023472407832741737,0.07807657122612,9.349872589111328,0.17941825091838837,-3.982534170150757
1403715276117143000,-0.018885403871536255,0.03288235515356064,0.08042872697114944,8.506932258605957,-0.4189237058162689,-3.2497289180755615
1403715276122143000,0.008324407041072845,-0.01183844543993473,0.08203441649675369,9.150078773498535,-0.3111402988433838,-3.9863243103027344
1403715276127143000,0.019489802420139313,0.024058932438492775,0.07913054525852203,9.038810729980469,0.3499426543712616,-3.6461422443389893
1403715276132143000,0.012518562376499176,0.020549090579152107,0.09009705483913422,9.316277503967285,0.49762222170829773,-4.023326873779297
1403715276137143000,-0.00567878782749176,0.06141737848520279,0.08269727230072021,8.890565872192383,0.033224403858184814,-3.5404341220855713
1403715276142143000,-0.0002405121922492981,0.013407701626420021,0.08037825673818588,8.776493072509766,-0.08250334858894348,-3.454916477203369
1403715276147143000,0.002601541578769684,0.020685674622654915,0.08529789000749588,9.511425018310547,0.0993681475520134,-3.826510190963745
1403715276152143000,0.0014182105660438538,0.02470809407532215,0.09385175257921219,8.688450813293457,0.4509388506412506,-3.6298437118530273
1403715276157143000,-0.012671329081058502,0.04648168385028839,0.07634720206260681,9.691288948059082,0.22113627195358276,-4.048768043518066
1403715276162143000,-0.01773552969098091,0.0378679558634758,0.0733901634812355,8.564265251159668,0.178338423371315,-3.2681736946105957
1403715276167143000,-0.017088960856199265,-0.0031128451228141785,0.05604996532201767,9.23415470123291,0.023996606469154358,-3.7353603839874268
1403715276172143000,-0.008434124290943146,0.01501447893679142,0.06731002777814865,8.834614753723145,0.06548667699098587,-3.5305519104003906
1403715276177143000,0.0021099522709846497,-0.00230499729514122,0.07455863058567047,9.503402709960938,-0.033688198775053024,-3.9969937801361084
1403715276182143000,0.0034769251942634583,0.04465373605489731,0.061018578708171844,9.2078857421875,-0.01863798499107361,-3.776709794998169
1403715276187143000,0.004754312336444855,0.010428624227643013,0.0538107268512249,8.776945114135742,0.2348109483718872,-3.456578254699707
1403715276192143000,-0.0029874294996261597,0.007288217544555664,0.05956752598285675,8.998488426208496,0.22070416808128357,-3.629798650741577
1403715276197143000,-0.00013580918312072754,-0.004438428208231926,0.08042319118976593,8.981420516967773,0.23055705428123474,-3.669985055923462
1403715276202143000,0.0005573704838752747,0.0255704615265131,0.09049105644226074,9.617466926574707,0.21274735033512115,-3.9258615970611572
1403715276207143000,0.0005508288741111755,0.03632603585720062,0.09314174950122833,8.817302703857422,-0.0013264029985293746,-3.5059053897857666
1403715276212143000,-0.007182426750659943,0.01735723949968815,0.09006664156913757,9.014145851135254,0.0888366550207138,-3.7277605533599854
1403715276217143000,-0.014095626771450043,0.019678695127367973,0.07143746316432953,8.712594032287598,0.11488471180200577,-3.4485623836517334
1403715276222143000,-0.00010962039232254028,-0.0009038150310516357,0.09660814702510834,9.079392433166504,0.08867084234952927,-3.646091938018799
1403715276227143000,0.006180666387081146,0.03332814574241638,0.10564769804477692,9.625515937805176,0.023232351988554,-3.7858526706695557
1403715276232143000,0.0027481690049171448,0.02995397336781025,0.0915653258562088,8.735782623291016,0.13641951978206635,-3.5629422664642334
1403715276237143000,0.006868131458759308,0.015223721042275429,0.08184444904327393,9.038653373718262,0.1466735601425171,-3.621561050415039
1403715276242143000,0.002645522356033325,0.023125572130084038,0.06647749990224838,8.761819839477539,0.04221059009432793,-3.620177745819092
1403715276247143000,0.004052110016345978,-0.002408275380730629,0.06863100081682205,9.054436683654785,0.244196817278862,-3.638125419616699
1403715276252143000,0.0013429298996925354,0.033256031572818756,0.07999379187822342,9.62546157836914,0.40669330954551697,-3.9174373149871826
1403715276257143000,-0.016140706837177277,0.03748714178800583,0.07401333004236221,8.687280654907227,0.38411328196525574,-3.6216702461242676
1403715276262143000,-0.023933641612529755,0.004764389246702194,0.06092651188373566,8.607290267944336,0.18896563351154327,-3.539567708969116
1403715276267143000,-0.01767323538661003,0.01679377071559429,0.06196483597159386,9.259528160095215,-0.18835817277431488,-3.661115884780884
1403715276272143000,-0.0008348450064659119,0.0012044478207826614,0.06027631834149361,8.963772773742676,-0.1077461913228035,-3.6361794471740723
1403715276277143000,0.003404267132282257,0.01651867665350437,0.06522475183010101,9.705879211425781,0.06428439915180206,-3.9087347984313965
1403715276282143000,0.0007113143801689148,0.05713048577308655,0.07566900551319122,8.93220329284668,0.2698560059070587,-3.547154664993286
1403715276287143000,-0.0078330859541893,0.011292757466435432,0.07406538724899292,8.565917015075684,0.10530870407819748,-3.4564907550811768
1403715276292143000,-0.00863397866487503,0.006866227835416794,0.08280199766159058,9.112478256225586,-0.024981660768389702,-3.6696484088897705
1403715276297143000,0.006223909556865692,-0.0072965845465660095,0.09182773530483246,9.038776397705078,-0.02531125396490097,-3.6860320568084717
1403715276302143000,0.013869151473045349,0.018586071208119392,0.09420373290777206,9.672516822814941,0.1476321816444397,-4.015437602996826
1403715276307143000,0.003432817757129669,0.04938335716724396,0.08662976324558258,8.777530670166016,0.3187861442565918,-3.63788104057312
1403715276312143000,-0.012052752077579498,0.010563023388385773,0.09233436733484268,8.983015060424805,0.3498310148715973,-3.646348476409912
1403715276317143000,-0.01773114502429962,0.02163652516901493,0.08617305755615234,9.063138961791992,-0.057384271174669266,-3.6123950481414795
1403715276322143000,-0.010590143501758575,-0.004018425941467285,0.09187836199998856,8.63044261932373,-0.01712604984641075,-3.5961711406707764
1403715276327143000,0.002773381769657135,-0.007964483462274075,0.09718654304742813,9.649102210998535,-0.0662875846028328,-3.85927152633667
1403715276332143000,0.014625854790210724,0.053846023976802826,0.08646249026060104,9.642202377319336,0.01563682220876217,-3.9812309741973877
1403715276337143000,0.008197076618671417,0.03223520517349243,0.06651610881090164,8.703417778015137,0.13722379505634308,-3.473552703857422
1403715276342143000,-0.0030006691813468933,0.016076380386948586,0.04992939531803131,9.161118507385254,0.236174076795578,-3.621154308319092
1403715276347143000,-0.005618862807750702,0.01577208749949932,0.06876824796199799,8.687582969665527,0.16401740908622742,-3.7183144092559814
1403715276352143000,-0.004345588386058807,-0.005203453823924065,0.06886343657970428,9.419788360595703,0.10689898580312729,-3.8503828048706055
1403715276357143000,-0.0008040964603424072,0.033122435212135315,0.074135422706604,9.422980308532715,0.30188944935798645,-3.8764076232910156
1403715276362143000,-0.009843073785305023,0.041907086968421936,0.07401735335588455,8.6966552734375,0.24455218017101288,-3.703275442123413
1403715276367143000,-0.018408894538879395,0.0289402324706316,0.056091826409101486,9.110751152038574,-0.04046770557761192,-3.4568936824798584
1403715276372143000,-0.01132415235042572,0.015123309567570686,0.0653582364320755,8.720081329345703,-0.03340518847107887,-3.537916421890259
1403715276377143000,-0.004979349672794342,-0.0017826594412326813,0.06676354259252548,8.849559783935547,0.0074346037581563,-3.72696590423584
1403715276382143000,-0.0007889494299888611,0.013707580044865608,0.09168346226215363,9.520212173461914,-0.0009213850134983659,-3.8502628803253174
1403715276387143000,0.004813544452190399,0.0354633629322052,0.08963920176029205,9.193707466125488,0.14593902230262756,-3.744276523590088
1403715276392143000,0.0033362731337547302,0.032303132116794586,0.08733473718166351,8.964066505432129,0.12979306280612946,-3.53934645652771
1403715276397143000,0.003350883722305298,0.02993660233914852,0.08868250250816345,8.925042152404785,0.10543984174728394,-3.464808702468872
1403715276402143000,0.0006626993417739868,0.002587186172604561,0.0735635906457901,8.694580078125,-0.04106249287724495,-3.5704967975616455
1403715276407143000,0.005421631038188934,-0.0038469620048999786,0.07699299603700638,9.05385684967041,0.13819818198680878,-3.7111494541168213
1403715276412143000,0.0074256062507629395,0.022051000967621803,0.08901834487915039,9.456114768981934,0.22905613481998444,-3.8922243118286133
1403715276417143000,0.0005256012082099915,0.030762629583477974,0.08899549394845963,9.087019920349121,0.179705411195755,-3.8433773517608643
1403715276422143000,-0.014740772545337677,0.03485974669456482,0.07831759750843048,9.030244827270508,0.27687308192253113,-3.581149101257324
1403715276427143000,-0.01476045697927475,0.030613156035542488,0.07264553755521774,9.005648612976074,0.15444615483283997,-3.57936692237854
1403715276432143000,-0.007098175585269928,0.010320080444216728,0.07477797567844391,8.64588451385498,-0.28760501742362976,-3.3811283111572266
1403715276437143000,-0.00019247829914093018,0.00039576180279254913,0.05558691546320915,9.331786155700684,-0.2378496378660202,-3.824526786804199
1403715276442143000,0.019445516169071198,0.02016592212021351,0.07172726094722748,9.193076133728027,0.15548406541347504,-3.8346786499023438
1403715276447143000,0.018738925457000732,0.027125412598252296,0.08476659655570984,9.225686073303223,0.4974384605884552,-3.942517042160034
1403715276452143000,-0.004969753324985504,0.04240956902503967,0.07203631103038788,9.128305435180664,0.4902157485485077,-3.688194990158081
1403715276457143000,-0.025830663740634918,0.026452960446476936,0.07405561208724976,8.67956829071045,0.3182334899902344,-3.5630693435668945
1403715276462143000,-0.021159254014492035,0.016551347449421883,0.07544547319412231,8.86719036102295,-0.29450783133506775,-3.5042078495025635
1403715276467143000,-0.002377919852733612,0.006774513050913811,0.07571755349636078,9.331990242004395,-0.32652243971824646,-3.7914159297943115
1403715276472143000,0.016674689948558807,0.01587664522230625,0.08093230426311493,9.217166900634766,0.06548412144184113,-3.851504325866699
1403715276477143000,0.01458699256181717,0.04952171444892883,0.08548536151647568,9.894658088684082,0.39989978075027466,-4.155834674835205
1403715276482143000,-0.0036489591002464294,0.06358279287815094,0.06988111138343811,8.898694038391113,0.3094242811203003,-3.7363364696502686
1403715276487143000,-0.013455979526042938,0.04322853684425354,0.06726916134357452,9.07052993774414,0.16233205795288086,-3.66090726852417
1403715276492143000,-0.002234838902950287,0.048793867230415344,0.06851732730865479,9.15235424041748,-0.24483421444892883,-3.651008367538452
1403715276497143000,0.02018887549638748,0.02902461774647236,0.08816692233085632,8.96446418762207,-0.0577608160674572,-3.6932084560394287
1403715276502143000,0.02654965966939926,0.047733865678310394,0.10165313631296158,9.209613800048828,0.6039369702339172,-3.820998430252075
1403715276507143000,-0.0014510378241539001,0.05003666132688522,0.08442302793264389,8.941195487976074,0.7592505216598511,-3.7389261722564697
1403715276512143000,-0.024036236107349396,0.032034359872341156,0.08106037974357605,9.070691108703613,0.20418713986873627,-3.7696704864501953
1403715276517143000,-0.026785925030708313,0.03331289440393448,0.06737397611141205,8.981019973754883,-0.21232393383979797,-3.5454933643341064
1403715276522143000,0.0026508793234825134,0.026277510449290276,0.07905406504869461,8.8506498336792,-0.35161980986595154,-3.363539457321167
1403715276527143000,0.030714266002178192,0.01090359129011631,0.08970655500888824,9.200453758239746,-0.18811193108558655,-3.569720506668091
1403715276532143000,0.02506796270608902,0.03739980608224869,0.07907240092754364,9.144267082214355,0.407380610704422,-3.5647623538970947
1403715276537143000,-0.0071325525641441345,0.005256492644548416,0.06759535521268845,8.753461837768555,0.8727473020553589,-3.4618589878082275
1403715276542143000,-0.04213444143533707,0.0003911461681127548,0.05534004792571068,8.941287994384766,0.4826340973377228,-3.5253217220306396
1403715276547143000,-0.042709700763225555,-0.001546679064631462,0.07623327523469925,8.66374397277832,0.007832393050193787,-3.2926344871520996
1403715276552143000,-0.017562538385391235,-0.005536558106541634,0.08623230457305908,9.470515251159668,-0.7369849681854248,-3.707379102706909
1403715276557143000,0.0118337944149971,0.03414195775985718,0.09180569648742676,8.932625770568848,-0.4411088824272156,-3.5445396900177
1403715276562143000,0.032630808651447296,0.0063798688352108,0.07139712572097778,8.687418937683105,-0.06565198302268982,-3.496819257736206
1403715276567143000,0.038780130445957184,0.01678461767733097,0.07074647396802902,9.038102149963379,0.35011059045791626,-3.6630895137786865
1403715276572143000,0.022148095071315765,0.01098395511507988,0.07483825087547302,8.83536434173584,0.5961477756500244,-3.605919122695923
1403715276577143000,-0.01124311238527298,0.025616439059376717,0.0691995620727539,9.054929733276367,0.6044785976409912,-3.8689143657684326
1403715276582143000,-0.02093622088432312,0.017429186031222343,0.08740401268005371,8.648469924926758,0.3576048016548157,-3.5568130016326904
1403715276587143000,-0.02667173743247986,-0.00850609689950943,0.08269703388214111,8.802573204040527,-0.10761556029319763,-3.611910820007324
1403715276592143000,-0.013407878577709198,0.0019222162663936615,0.09935864806175232,9.014016151428223,0.113100066781044,-3.613643169403076
1403715276597143000,-0.015383504331111908,0.015675855800509453,0.08126984536647797,9.259209632873535,-0.009563668631017208,-3.719886302947998
1403715276602143000,-0.01342853158712387,0.019533520564436913,0.06144830957055092,9.085967063903809,-0.11389728635549545,-3.563607692718506
1403715276607143000,-0.007173843681812286,0.01055048406124115,0.06862825900316238,8.809374809265137,-0.14637412130832672,-3.5214004516601562
1403715276612143000,0.008859328925609589,0.010439015924930573,0.07938113808631897,9.136687278747559,-0.008503480814397335,-3.710179090499878
1403715276617143000,0.01951802521944046,0.02512732334434986,0.08137159049510956,9.323841094970703,0.08231905847787857,-3.735133647918701
1403715276622143000,0.014004923403263092,0.04600340127944946,0.06319795548915863,9.192580223083496,0.10609165579080582,-3.7848761081695557
1403715276627143000,0.0027334019541740417,0.035706788301467896,0.05509285256266594,9.053749084472656,0.2602284252643585,-3.604551076889038
1403715276632143000,-0.0045006126165390015,0.01654033176600933,0.07957019656896591,8.940906524658203,0.35158056020736694,-3.8015503883361816
1403715276637143000,-0.014267511665821075,0.020501410588622093,0.08970914781093597,9.02337646484375,0.4428873360157013,-3.7046782970428467
1403715276642143000,-0.016870886087417603,0.044523127377033234,0.08624924719333649,9.054952621459961,-0.07424038648605347,-3.817361354827881
1403715276647143000,-0.007018528878688812,0.0019775070250034332,0.07851090282201767,8.77684497833252,-0.26380375027656555,-3.5298819541931152
1403715276652143000,-0.002985931932926178,-0.00297592394053936,0.07002360373735428,9.420747756958008,0.07306818664073944,-3.9074134826660156
1403715276657143000,-0.005657210946083069,0.00798308290541172,0.09500283002853394,8.729019165039062,0.41480258107185364,-3.630425214767456
1403715276662143000,-0.010580293834209442,0.0066248513758182526,0.09591236710548401,9.5695161819458,-0.04261692240834236,-3.833974599838257
1403715276667143000,-0.0021938160061836243,0.025882309302687645,0.08529986441135406,8.735496520996094,-0.32764747738838196,-3.340198516845703
1403715276672143000,0.019389472901821136,-0.004103340208530426,0.06521590054035187,9.640268325805664,-0.2775878310203552,-4.020287990570068
1403715276677143000,0.020223073661327362,0.03674878925085068,0.06875894963741302,9.233305931091309,0.38549041748046875,-3.835177421569824
1403715276682143000,0.005547665059566498,0.024042176082730293,0.07977230846881866,9.022672653198242,0.6698614954948425,-3.8519086837768555
1403715276687143000,-0.012049049139022827,0.06501779705286026,0.07633759081363678,9.136303901672363,0.1712937206029892,-3.7368178367614746
1403715276692143000,-0.012864597141742706,0.010589506477117538,0.07464951276779175,8.581124305725098,0.049659065902233124,-3.3243117332458496
1403715276697143000,-0.007303908467292786,0.01923343725502491,0.06582657992839813,9.55173397064209,0.07556036114692688,-4.08027982711792
1403715276702143000,-0.011880837380886078,0.02278384007513523,0.0675065815448761,8.7365083694458,0.20349553227424622,-3.6788628101348877
1403715276707143000,-0.00985746830701828,0.04028058797121048,0.06888020038604736,9.45463752746582,0.13714879751205444,-3.9659483432769775
1403715276712143000,-0.005037546157836914,0.04698420315980911,0.0706992968916893,8.775897026062012,-0.09246838837862015,-3.2346465587615967
1403715276717143000,0.0067839547991752625,-0.0030370522290468216,0.0790150836110115,9.429543495178223,0.07883409410715103,-3.9230337142944336
1403715276722143000,7.919222116470337e-05,0.03587466478347778,0.08532558381557465,8.809707641601562,0.44147834181785583,-3.663496494293213
1403715276727143000,-0.004193060100078583,0.04165171831846237,0.09028472006320953,9.16086196899414,0.245501309633255,-3.6949362754821777
1403715276732143000,-0.007830977439880371,0.04464586079120636,0.08612365275621414,8.826117515563965,-0.008896961808204651,-3.3344311714172363
1403715276737143000,-0.00588410347700119,0.01472155936062336,0.08034810423851013,8.801596641540527,0.05702737346291542,-3.431246757507324
1403715276742143000,0.004701234400272369,0.03183087706565857,0.09156253933906555,9.259132385253906,0.13164743781089783,-3.770052433013916
1403715276747143000,0.012466907501220703,0.03750035911798477,0.09242621064186096,9.168610572814941,0.23843660950660706,-3.6458306312561035
1403715276752143000,0.008915886282920837,0.05148933827877045,0.07644549012184143,8.88256549835205,-0.024677185341715813,-3.55505633354187
1403715276757143000,0.0025968626141548157,0.02457696758210659,0.06295082718133926,8.62294864654541,0.33261311054229736,-3.2682912349700928
1403715276762143000,0.003233976662158966,0.016444334760308266,0.07896532118320465,9.30825424194336,0.3254088759422302,-3.801748037338257
1403715276767143000,-0.009154535830020905,0.025442926213145256,0.08535520732402802,9.046002388000488,0.29381296038627625,-3.909144163131714
1403715276772143000,-0.018802285194396973,0.03617645800113678,0.08264735341072083,8.883373260498047,0.11328011751174927,-3.4257800579071045
1403715276777143000,-0.0217323899269104,-0.0006219502538442612,0.06448834389448166,8.679170608520508,-0.2564055919647217,-2.914395570755005
1403715276782143000,0.0024222061038017273,-0.016248516738414764,0.08537591248750687,9.65854263305664,-0.09148745983839035,-3.693464517593384
1403715276787143000,0.0025672540068626404,0.01989259384572506,0.08764122426509857,9.379969596862793,0.1649145483970642,-3.990677833557129
1403715276792143000,-0.011154480278491974,0.020080482587218285,0.07556290179491043,8.753448486328125,0.04960079863667488,-3.392822504043579
1403715276797143000,-0.003579743206501007,0.0008521247655153275,0.06789177656173706,8.989188194274902,-0.21287180483341217,-3.365680456161499
1403715276802143000,0.011481612920761108,-0.009681731462478638,0.07283194363117218,9.413471221923828,0.015057734213769436,-3.5612294673919678
1403715276807143000,0.015100054442882538,0.03177959471940994,0.08552952110767365,9.601140022277832,0.6611658930778503,-4.130650997161865
1403715276812143000,-0.003361828625202179,0.04042234271764755,0.08756469935178757,8.468304634094238,0.33585217595100403,-3.5005545616149902
1403715276817143000,-0.014019370079040527,-0.007567202672362328,0.06917288154363632,8.71202564239502,0.03952259197831154,-3.751760959625244
1403715276822143000,-0.005271591246128082,0.009871920570731163,0.07962846755981445,9.691145896911621,0.1611674576997757,-3.809654474258423
1403715276827143000,-0.00862390547990799,0.03233955800533295,0.0750589594244957,9.463133811950684,0.3830384314060211,-4.007246494293213
1403715276832143000,-0.016633857041597366,0.052885979413986206,0.07232223451137543,8.320613861083984,-0.3433853089809418,-3.415846109390259
1403715276837143000,0.006241172552108765,-0.010206454433500767,0.07999201118946075,8.850171089172363,-0.2703329920768738,-3.6022486686706543
1403715276842143000,0.02062792330980301,0.031628601253032684,0.07900981605052948,10.017046928405762,0.12191963195800781,-3.899251937866211
1403715276847143000,-0.0015026554465293884,0.048371993005275726,0.07055341452360153,8.426602363586426,0.3009621500968933,-3.5558133125305176
1403715276852143000,-0.01948348432779312,0.006608480587601662,0.06811539828777313,8.746548652648926,-0.007236439269036055,-3.49135684967041
1403715276857143000,0.0033175870776176453,0.004646066576242447,0.10210974514484406,9.06236457824707,-0.1552751660346985,-3.4460675716400146
1403715276862143000,0.0031486526131629944,0.032094746828079224,0.0797680914402008,9.697219848632812,0.08170945197343826,-3.9560813903808594
1403715276867143000,-0.014629073441028595,0.035682372748851776,0.06589790433645248,8.623825073242188,0.17994731664657593,-3.5236082077026367
1403715276872143000,-0.015352267771959305,0.007591698318719864,0.06372407078742981,8.844223022460938,-0.0496416874229908,-3.473029136657715
1403715276877143000,0.008569024503231049,0.029911568388342857,0.10500715672969818,9.884652137756348,-0.4004347026348114,-3.8892619609832764
1403715276882143000,-0.002972908318042755,0.08715246617794037,0.05700135603547096,8.677387237548828,0.24468572437763214,-3.931809663772583
1403715276887143000,-0.011731952428817749,0.03374751657247543,0.06644509732723236,8.454273223876953,0.10454167425632477,-3.3931148052215576
1403715276892143000,0.013094387948513031,0.0031872298568487167,0.10208210349082947,9.268036842346191,-0.4027692377567291,-3.5937387943267822
1403715276897143000,0.01841966062784195,0.0762973502278328,0.08267638087272644,9.573328018188477,-0.03306654468178749,-4.110877990722656
1403715276902143000,-0.003440678119659424,0.040740638971328735,0.06808863580226898,8.109333992004395,0.29206523299217224,-3.3927011489868164
1403715276907143000,-0.002034910023212433,-0.0032078158110380173,0.08660242706537247,8.813834190368652,0.19493846595287323,-3.254178524017334
1403715276912143000,0.012203112244606018,0.026157768443226814,0.12272615730762482,9.494945526123047,0.007476295810192823,-3.5869643688201904
1403715276917143000,-0.00519668310880661,0.04658257216215134,0.07521131634712219,9.239073753356934,-0.008577664382755756,-3.8655245304107666
1403715276922143000,-0.02292541414499283,-0.00011024810373783112,0.055908892303705215,8.323052406311035,0.4663793444633484,-3.2723371982574463
1403715276927143000,-0.012053139507770538,-0.012532737106084824,0.08931049704551697,9.456121444702148,0.15530860424041748,-3.6217098236083984
1403715276932143000,0.010058380663394928,0.05694384127855301,0.09342868626117706,9.606562614440918,-0.10126034915447235,-4.028745174407959
1403715276937143000,-0.009018637239933014,0.048342615365982056,0.03522107005119324,8.532110214233398,0.14651000499725342,-3.563516616821289
1403715276942143000,5.231797695159912e-05,0.01166796125471592,0.07739532738924026,9.441291809082031,0.6215340495109558,-3.6162326335906982
1403715276947143000,0.008091025054454803,0.06898476928472519,0.09315516799688339,9.730814933776855,-0.01902635581791401,-3.915079355239868
1403715276952143000,-0.004405029118061066,0.06533382833003998,0.06043262034654617,8.578449249267578,0.03802182525396347,-3.759737730026245
1403715276957143000,-0.004132799804210663,0.007071172818541527,0.0618063285946846,9.138992309570312,0.06644946336746216,-3.9334044456481934
1403715276962143000,-0.0008358657360076904,0.05886915326118469,0.08092337101697922,9.570191383361816,0.130604550242424,-3.653899669647217
1403715276967143000,-0.0036916956305503845,0.042800068855285645,0.0792800784111023,8.406389236450195,-0.32706016302108765,-3.601855516433716
1403715276972143000,-0.011250250041484833,-0.005610408261418343,0.045368485152721405,8.680685043334961,0.07222646474838257,-3.5963525772094727
1403715276977143000,-0.001611366868019104,0.008005304262042046,0.08430697023868561,9.646020889282227,0.5897013545036316,-3.8512027263641357
1403715276982143000,-0.009244255721569061,0.051780544221401215,0.089487224817276,8.595691680908203,0.3518369793891907,-3.4751813411712646
1403715276987143000,-0.020907364785671234,5.329214036464691e-05,0.06949859112501144,8.86665153503418,0.4392242133617401,-3.6559789180755615
1403715276992143000,0.004149980843067169,0.015764305368065834,0.09686983376741409,9.791974067687988,0.3573712706565857,-3.8341894149780273
1403715276997143000,0.006719373166561127,0.06579336524009705,0.0887632817029953,8.954569816589355,0.27828332781791687,-3.6784517765045166
1403715277002143000,0.006229586899280548,0.01849268563091755,0.07372695207595825,8.490840911865234,0.34301427006721497,-3.2548608779907227
1403715277007143000,0.021063320338726044,0.010785497725009918,0.10835118591785431,9.506033897399902,0.617711067199707,-3.752382278442383
1403715277012143000,0.008066318929195404,0.05589921027421951,0.09335428476333618,9.167834281921387,0.3094821870326996,-3.6870248317718506
1403715277017143000,-0.008535027503967285,0.0067171696573495865,0.0715457871556282,8.140141487121582,0.1074514240026474,-3.3036952018737793
1403715277022143000,-0.0028007254004478455,-0.036063700914382935,0.07511106878519058,9.334936141967773,0.27707475423812866,-3.57323956489563
1403715277027143000,-0.0030833259224891663,0.026501817628741264,0.09051888436079025,9.626500129699707,0.17061080038547516,-3.9470510482788086
1403715277032143000,-0.02532147243618965,0.01875886879861355,0.0403091162443161,8.4076509475708,0.00938806589692831,-3.1703085899353027
1403715277037143000,-0.013873107731342316,-0.05984515696763992,0.04405604302883148,8.770899772644043,-0.18695054948329926,-3.652858257293701
1403715277042143000,0.017167218029499054,0.015594324097037315,0.08146320283412933,9.749005317687988,-0.11332987993955612,-3.8319408893585205
1403715277047143000,0.009516008198261261,0.03216481953859329,0.06310329586267471,8.278182983398438,0.29376059770584106,-3.571424961090088
1403715277052143000,-0.008822418749332428,-0.03405580297112465,0.08440935611724854,8.828484535217285,0.36012572050094604,-3.5673420429229736
1403715277057143000,0.003385104238986969,0.052011437714099884,0.11785875260829926,10.208239555358887,0.19690367579460144,-4.219238758087158
1403715277062143000,-0.007418014109134674,0.08068319410085678,0.10468299686908722,8.93747615814209,-0.10749033838510513,-3.7920479774475098
1403715277067143000,-0.011848218739032745,0.013545887544751167,0.08575160056352615,8.223957061767578,0.38920992612838745,-3.443580389022827
1403715277072143000,0.0029065757989883423,0.03289023041725159,0.11393488943576813,9.79273796081543,0.05050181224942207,-3.9730687141418457
1403715277077143000,0.0018065646290779114,0.07084377110004425,0.09221640974283218,8.424516677856445,-0.38496917486190796,-3.6095259189605713
1403715277082143000,0.009511612355709076,-0.017293862998485565,0.0494791604578495,8.417487144470215,0.07902437448501587,-3.5085630416870117
1403715277087143000,0.02787904441356659,-0.0003329012542963028,0.09780417382717133,9.515409469604492,0.39187243580818176,-3.85914945602417
1403715277092143000,0.0012843385338783264,0.055449508130550385,0.06260282546281815,8.653761863708496,0.23941947519779205,-3.7344346046447754
1403715277097143000,-0.024505332112312317,-0.008929697796702385,0.0367572121322155,8.6295747756958,0.3430887460708618,-3.2715721130371094
1403715277102143000,-0.003517553210258484,0.002477157860994339,0.08834666013717651,9.726685523986816,0.16210271418094635,-3.5466010570526123
1403715277107143000,-0.015024293214082718,0.06933020055294037,0.056332480162382126,9.50136947631836,-0.12770061194896698,-4.044739723205566
1403715277112143000,-0.01340232789516449,0.02630307711660862,0.03491290286183357,8.782638549804688,-0.08060720562934875,-3.4495949745178223
1403715277117143000,0.0022923871874809265,0.01992448978126049,0.08229361474514008,9.375030517578125,0.5138641595840454,-3.442885160446167
1403715277122143000,-0.0031196847558021545,0.08123749494552612,0.08961836993694305,9.086792945861816,0.04955487325787544,-3.905804395675659
1403715277127143000,-0.017707467079162598,0.018056651577353477,0.05790458619594574,8.449816703796387,-0.18950504064559937,-3.5142154693603516
1403715277132143000,-0.0020964518189430237,-0.004612855613231659,0.08161948621273041,9.456230163574219,0.1935678869485855,-3.639115571975708
1403715277137143000,0.01236877590417862,0.0601680651307106,0.09993711113929749,9.283308029174805,-0.12237842381000519,-3.8564608097076416
1403715277142143000,0.001968972384929657,0.019355541095137596,0.06074784696102142,8.238608360290527,-0.2048983871936798,-3.5866472721099854
1403715277147143000,0.006334826350212097,-0.024134613573551178,0.0711897537112236,9.50551700592041,0.3813632130622864,-3.6072564125061035
1403715277152143000,0.010897748172283173,0.015350135043263435,0.08950110524892807,9.0299711227417,0.1295872926712036,-3.9552743434906006
1403715277157143000,-0.0059467703104019165,-0.013762777671217918,0.05845949426293373,8.806449890136719,-0.04779278486967087,-4.234681606292725
1403715277162143000,-0.008974604308605194,0.007773632183670998,0.08096274733543396,9.659918785095215,0.760715663433075,-4.0091938972473145
1403715277167143000,-0.01738022267818451,0.04906009882688522,0.0953497439622879,8.761240005493164,0.039439499378204346,-3.7668707370758057
1403715277172143000,-0.016359101980924606,0.01379714347422123,0.054847877472639084,8.742066383361816,-0.4490777552127838,-4.233030319213867
1403715277177143000,0.011088632047176361,-0.00038940273225307465,0.08245056867599487,9.267765045166016,0.35999706387519836,-4.016169548034668
1403715277182143000,0.016094617545604706,0.05787772685289383,0.10879668593406677,8.573323249816895,0.05654576048254967,-3.726881265640259
1403715277187143000,-0.0006262585520744324,-0.009342411532998085,0.06918783485889435,8.149633407592773,0.28681841492652893,-3.998873233795166
1403715277192143000,0.01036042720079422,-0.015012466348707676,0.11035779118537903,9.456842422485352,0.7581551671028137,-4.294404029846191
1403715277197143000,-0.013381116092205048,0.06442698836326599,0.1100720539689064,8.82564640045166,-0.1737329214811325,-3.5707852840423584
1403715277202143000,-0.011996954679489136,-0.02223937027156353,0.08230417966842651,8.44897174835205,-0.03676756098866463,-4.3084259033203125
1403715277207143000,0.023799605667591095,0.021429700776934624,0.09246645867824554,9.699888229370117,0.16487987339496613,-4.15299654006958
1403715277212143000,0.004822127521038055,0.04976163059473038,0.08293179422616959,8.391669273376465,-0.1991683393716812,-3.313971757888794
1403715277217143000,0.003984630107879639,-0.030150216072797775,0.05507214367389679,8.890938758850098,0.32150378823280334,-3.6966030597686768
1403715277222143000,0.01801646500825882,0.023977482691407204,0.09451135993003845,9.971328735351562,0.6866421103477478,-3.8350398540496826
1403715277227143000,-0.028756722807884216,0.051314011216163635,0.04923372343182564,7.934997081756592,0.18441492319107056,-3.146217107772827
1403715277232143000,-0.03206488490104675,-0.05007407069206238,0.04469509422779083,8.540973663330078,0.10036656260490417,-3.6723318099975586
1403715277237143000,-0.012546546757221222,0.0016733761876821518,0.09032499045133591,10.389999389648438,0.4398886561393738,-3.9736526012420654
1403715277242143000,-0.04141753166913986,0.04913441091775894,0.04373772442340851,8.24521541595459,-0.11950387060642242,-3.282181739807129
1403715277247143000,-0.025254540145397186,-0.041021037846803665,0.053556736558675766,9.079339027404785,-0.34976181387901306,-3.6216301918029785
1403715277252143000,0.014617793262004852,0.04420293867588043,0.11541055142879486,10.618158340454102,0.0404030866920948,-3.6935503482818604
1403715277257143000,-0.0044360533356666565,0.09299390017986298,0.0762309581041336,7.428220272064209,-0.1590341329574585,-3.150662422180176
1403715277262143000,0.011072121560573578,-0.014543648809194565,0.07661469280719757,9.332695960998535,0.2635856866836548,-3.8543269634246826
1403715277267143000,0.031438328325748444,0.08971060812473297,0.1116706132888794,9.719874382019043,0.34386616945266724,-4.373779773712158
1403715277272143000,-0.0030433759093284607,0.023663895204663277,0.05720778927206993,7.161657810211182,-0.013678248040378094,-3.390183925628662
1403715277277143000,0.001962922513484955,-0.05349704623222351,0.08129090815782547,9.097867965698242,0.42752140760421753,-4.099379539489746
1403715277282143000,-0.0040132030844688416,0.05706043541431427,0.10801022499799728,9.59949779510498,0.3114800453186035,-3.7747859954833984
1403715277287143000,-0.029645182192325592,-0.02155117690563202,0.06764227151870728,7.853205680847168,-0.046627454459667206,-3.3657164573669434
1403715277292143000,-0.011308208107948303,-0.05793849378824234,0.08203825354576111,9.961884498596191,0.2138129472732544,-4.003316879272461
1403715277297143000,-0.008920155465602875,0.07477793842554092,0.10484355688095093,9.718099594116211,0.26267898082733154,-3.890549659729004
1403715277302143000,-0.020413506776094437,0.0077370814979076385,0.07056175917387009,8.088698387145996,-0.12769338488578796,-3.3911428451538086
1403715277307143000,-0.0028040632605552673,-0.024879125878214836,0.08170296251773834,9.978052139282227,-0.18607781827449799,-4.195827007293701
1403715277312143000,0.012666426599025726,0.0969213992357254,0.09786109626293182,8.753838539123535,-0.04137536510825157,-3.633395195007324
1403715277317143000,0.01578572392463684,-0.0013518966734409332,0.07007075846195221,8.171330451965332,-0.24774613976478577,-3.5362424850463867
1403715277322143000,0.03067454695701599,0.01826498843729496,0.07316296547651291,10.446318626403809,0.3463135063648224,-3.9029767513275146
1403715277327143000,0.012586601078510284,0.08589771389961243,0.06827858090400696,8.982160568237305,0.25230324268341064,-3.749722957611084
1403715277332143000,-0.008695892989635468,-0.03662742301821709,0.038710903376340866,8.034456253051758,0.09506358206272125,-3.442694902420044
1403715277337143000,-0.00931345671415329,-0.0003158561885356903,0.05774315819144249,10.266422271728516,0.8129487633705139,-4.32003927230835
1403715277342143000,-0.03563112020492554,0.07228292524814606,0.058014877140522,8.524079322814941,0.2837933599948883,-3.585998058319092
1403715277347143000,-0.04624456912279129,-0.0561927855014801,0.04535290226340294,8.24643611907959,-0.04463529586791992,-3.309831380844116
1403715277352143000,-0.015474550426006317,0.016493836417794228,0.07078984379768372,10.561243057250977,0.15667130053043365,-4.122357368469238
1403715277357143000,-0.009229771792888641,0.06129679083824158,0.08576711267232895,8.293381690979004,-0.4524548351764679,-3.287490129470825
1403715277362143000,0.00752577930688858,-0.04822953790426254,0.09284980595111847,9.14220142364502,-0.06929313391447067,-3.7707455158233643
1403715277367143000,0.030907325446605682,0.09216850250959396,0.11251195520162582,9.932172775268555,0.1407855749130249,-3.9577085971832275
1403715277372143000,0.027096539735794067,0.04746951907873154,0.09688228368759155,8.009442329406738,-0.3371543288230896,-3.443554162979126
1403715277377143000,0.04583153873682022,-0.018930239602923393,0.12011905759572983,9.32320785522461,0.43247032165527344,-3.714289903640747
1403715277382143000,0.0293734148144722,0.11735355854034424,0.12129592895507812,9.255464553833008,0.6076521277427673,-3.8504722118377686
1403715277387143000,-0.00777745246887207,0.01737045682966709,0.07702486962080002,7.4163007736206055,0.39682552218437195,-3.3258907794952393
1403715277392143000,-0.01220141351222992,-0.03933794051408768,0.08451870083808899,9.936746597290039,0.8512220978736877,-3.7576682567596436
1403715277397143000,-0.03579070419073105,0.0900716632604599,0.07799436897039413,9.122147560119629,0.10703625530004501,-3.8337159156799316
1403715277402143000,-0.048215560615062714,-0.025744473561644554,0.019569173455238342,7.4871015548706055,-0.18497970700263977,-3.1775624752044678
1403715277407143000,-0.020362205803394318,-0.03088781237602234,0.04812713712453842,10.167947769165039,0.36860042810440063,-3.7795886993408203
1403715277412143000,-0.021605584770441055,0.09763655811548233,0.054192136973142624,8.916118621826172,-0.3528750240802765,-3.583442211151123
1403715277417143000,-0.0036916211247444153,-0.02675754949450493,0.04736173152923584,8.798799514770508,0.05264080688357353,-3.3672566413879395
1403715277422143000,0.02306400239467621,0.03847673535346985,0.09793458133935928,10.781564712524414,0.23697367310523987,-3.927607774734497
1403715277427143000,0.009275771677494049,0.1058105081319809,0.08585426956415176,7.480467319488525,-0.09178736805915833,-3.6584253311157227
1403715277432143000,0.02282143384218216,-0.04583544284105301,0.10728870332241058,9.054064750671387,0.5153645277023315,-3.8610782623291016
1403715277437143000,0.010423079133033752,0.11976952850818634,0.11125296354293823,10.302204132080078,0.23856964707374573,-3.9587481021881104
1403715277442143000,-0.0030675753951072693,0.051845960319042206,0.08348650485277176,7.110053062438965,-0.24794209003448486,-2.7163753509521484
1403715277447143000,0.003075815737247467,-0.07392270117998123,0.09992814809083939,9.838834762573242,0.515528678894043,-3.4041383266448975
1403715277452143000,-0.020408369600772858,0.08141959458589554,0.08511163294315338,9.531641960144043,0.22199946641921997,-3.456946611404419
1403715277457143000,-0.028187572956085205,-0.018746696412563324,0.05198989063501358,8.22855281829834,-0.3871602416038513,-3.1858608722686768
1403715277462143000,0.0003802180290222168,-0.041215475648641586,0.07303480803966522,10.419722557067871,0.3818247616291046,-3.625653028488159
1403715277467143000,-0.006434217095375061,0.08234400302171707,0.07931716740131378,9.413745880126953,-0.6246451735496521,-3.1397314071655273
1403715277472143000,0.011046938598155975,-0.043728575110435486,0.06322263926267624,8.716238021850586,0.06165671348571777,-3.2594127655029297
1403715277477143000,0.023050226271152496,0.02568075992166996,0.07815296947956085,10.429723739624023,0.5467976331710815,-3.4763240814208984
1403715277482143000,-0.010564543306827545,0.061323925852775574,0.05664721876382828,8.459850311279297,0.24999776482582092,-3.2835521697998047
1403715277487143000,-0.00801127403974533,-0.048144277185201645,0.06424611806869507,9.615001678466797,0.5058808922767639,-3.862058639526367
1403715277492143000,-0.022509828209877014,0.05242238938808441,0.07762213051319122,9.70224380493164,0.12385206669569016,-3.614474058151245
1403715277497143000,-0.016912255436182022,0.01737339235842228,0.08163603395223618,7.881340026855469,-0.13998086750507355,-3.447458028793335
1403715277502143000,-0.004452340304851532,-0.01621820032596588,0.08467186987400055,9.863530158996582,0.2708488702774048,-4.122691631317139
1403715277507143000,-0.0071888267993927,0.04052016884088516,0.10187198221683502,9.971006393432617,-0.2051081657409668,-4.1354756355285645
1403715277512143000,0.004754327237606049,-0.0018593799322843552,0.10309536010026932,7.870763778686523,0.003559587989002466,-3.645174264907837
1403715277517143000,0.006871424615383148,0.02301732636988163,0.07895074784755707,8.616437911987305,0.5235512852668762,-3.427034378051758
1403715277522143000,0.003532819449901581,0.0331934317946434,0.06394791603088379,8.998210906982422,-0.28719982504844666,-3.5515761375427246
1403715277527143000,0.0249655619263649,-0.04515616223216057,0.07950752973556519,9.639320373535156,0.3978644609451294,-3.9018826484680176
1403715277532143000,0.005404151976108551,0.006804481148719788,0.07811196893453598,10.304046630859375,0.21981015801429749,-4.369458198547363
1403715277537143000,-0.001288481056690216,0.05444542318582535,0.06171156466007233,8.04995059967041,0.47223082184791565,-3.3755385875701904
1403715277542143000,-0.012676551938056946,0.04180365055799484,0.05130092054605484,8.744452476501465,0.8275437355041504,-3.3271775245666504
1403715277547143000,-0.04362452030181885,0.07998618483543396,0.03932041674852371,10.329792976379395,-0.4004385769367218,-4.102529048919678
1403715277552143000,-0.010604359209537506,0.032447449862957,0.07180263102054596,8.515204429626465,-0.19746750593185425,-3.6607909202575684
1403715277557143000,-0.00223589688539505,0.04811941087245941,0.07504403591156006,8.361128807067871,0.17193618416786194,-3.4676425457000732
1403715277562143000,0.0012737736105918884,0.0978926494717598,0.05745073780417442,8.466541290283203,-0.3104586899280548,-3.247795820236206
1403715277567143000,0.03555191308259964,0.028474146500229836,0.12237206101417542,8.745733261108398,0.19522300362586975,-3.7504944801330566
