#timestamp [ns],w_RS_S_x [rad s^-1],w_RS_S_y [rad s^-1],w_RS_S_z [rad s^-1],a_RS_S_x [m s^-2],a_RS_S_y [m s^-2],a_RS_S_z [m s^-2]
1403715273262143000,-0.0020943951023931952,0.017453292519943295,0.07749261878854824,9.087495666666666,0.13075533333333333,-3.693838166666666
1403715273267143000,-0.0013962634015954637,0.019547687622336492,0.07819075048934597,9.079323458333333,0.122583125,-3.693838166666666
1403715273272143000,-0.0020943951023931952,0.016755160819145562,0.0747000919853573,9.038462416666666,0.14709974999999997,-3.6693215416666662
1403715273277143000,-0.0027925268031909274,0.020943951023931952,0.07819075048934597,9.07115125,0.122583125,-3.67749375
1403715273282143000,-0.0020943951023931952,0.020943951023931952,0.07888888219014369,9.079323458333333,0.13075533333333333,-3.702010375
1403715273287143000,0.0,0.021642082724729686,0.07958701389094143,9.054806833333332,0.07354987499999999,-3.693838166666666
1403715273292143000,-0.0013962634015954637,0.023038346126325153,0.07400196028455958,9.095667875,0.13892754166666665,-3.6611493333333334
1403715273297143000,-0.003490658503988659,0.02234021442552742,0.08028514559173915,9.062979041666667,0.07354987499999999,-3.6693215416666662
1403715273302143000,-0.0041887902047863905,0.017453292519943295,0.07609635538695278,9.136528916666666,0.14709974999999997,-3.702010375
1403715273307143000,-0.0013962634015954637,0.01815142422074103,0.07958701389094143,9.054806833333332,0.06537766666666667,-3.6366327083333334
1403715273312143000,-0.0020943951023931952,0.02024581932313422,0.07400196028455958,9.087495666666666,0.13892754166666665,-3.6693215416666662
1403715273317143000,-0.003490658503988659,0.021642082724729686,0.08028514559173915,9.046634625,0.11441091666666667,-3.67749375
1403715273322143000,-0.0027925268031909274,0.020943951023931952,0.07888888219014369,9.079323458333333,0.17161637500000002,-3.751043625
1403715273327143000,-0.0020943951023931952,0.023038346126325153,0.07958701389094143,9.054806833333332,0.11441091666666667,-3.702010375
1403715273332143000,-0.0041887902047863905,0.01884955592153876,0.07609635538695278,9.079323458333333,0.07354987499999999,-3.702010375
1403715273337143000,-0.003490658503988659,0.021642082724729686,0.07958701389094143,9.054806833333332,0.13075533333333333,-3.6693215416666662
1403715273342143000,-0.005585053606381855,0.02234021442552742,0.07819075048934597,9.087495666666666,0.10623870833333333,-3.718354791666666
1403715273347143000,-0.0027925268031909274,0.021642082724729686,0.0767944870877505,9.062979041666667,0.13892754166666665,-3.67749375
1403715273352143000,-0.0020943951023931952,0.016057029118347832,0.0767944870877505,9.038462416666666,0.0980665,-3.7346992083333332
1403715273357143000,-0.003490658503988659,0.01884955592153876,0.0747000919853573,9.062979041666667,0.122583125,-3.742871416666666
1403715273362143000,-0.0027925268031909274,0.019547687622336492,0.08028514559173915,9.038462416666666,0.0980665,-3.7346992083333332
1403715273367143000,-0.0013962634015954637,0.01815142422074103,0.0767944870877505,9.087495666666666,0.13075533333333333,-3.67749375
1403715273372143000,-0.0027925268031909274,0.019547687622336492,0.07819075048934597,9.030290208333332,0.11441091666666667,-3.67749375
1403715273377143000,-0.004886921905584123,0.016755160819145562,0.07120943348136866,9.079323458333333,0.17978858333333333,-3.67749375
1403715273382143000,0.0006981317007977319,0.02024581932313422,0.07749261878854824,9.038462416666666,0.0980665,-3.693838166666666
1403715273387143000,0.0006981317007977319,0.019547687622336492,0.07609635538695278,9.095667875,0.15527195833333335,-3.702010375
1403715273392143000,-0.0013962634015954637,0.023038346126325153,0.08098327729253688,9.07115125,0.11441091666666667,-3.693838166666666
1403715273397143000,-0.003490658503988659,0.02024581932313422,0.08028514559173915,9.095667875,0.11441091666666667,-3.7346992083333332
1403715273402143000,-0.0027925268031909274,0.02234021442552742,0.07958701389094143,9.030290208333332,0.11441091666666667,-3.6856659583333333
1403715273407143000,-0.004312045872211456,0.021510541439056396,0.07475237548351288,9.090190887451172,0.09717641025781631,-3.679225444793701
1403715273412143000,-0.0007976256310939789,0.022232402116060257,0.07691656053066254,9.081894874572754,0.08910717815160751,-3.703939199447632
1403715273417143000,-0.002903468906879425,0.02086060121655464,0.07421527802944183,9.081887245178223,0.04813219979405403,-3.7531635761260986
1403715273422143000,-0.002906329929828644,0.020852308720350266,0.07630915939807892,9.041264533996582,0.08908362686634064,-3.7046291828155518
1403715273427143000,-0.0007996484637260437,0.022231750190258026,0.07624750584363937,9.098283767700195,0.12193652242422104,-3.7285616397857666
1403715273432143000,0.0013098903000354767,0.019419465214014053,0.07831712067127228,9.05734920501709,0.0974675714969635,-3.6799402236938477
1403715273437143000,-0.0029215924441814423,0.020132921636104584,0.07551420480012894,9.06566047668457,0.08887737989425659,-3.6629421710968018
1403715273442143000,-0.002916615456342697,0.01875157654285431,0.07761290669441223,9.098302841186523,0.1706809252500534,-3.7039437294006348
1403715273447143000,-0.0036148838698863983,0.02226186916232109,0.07979977875947952,9.0410795211792,0.11402379721403122,-3.7204225063323975
1403715273452143000,0.0006343349814414978,0.01944197714328766,0.07836005836725235,9.098228454589844,0.15395207703113556,-3.7043228149414062
1403715273457143000,0.000573284924030304,0.02015075832605362,0.08044035732746124,9.00857162475586,0.056041400879621506,-3.704045534133911
1403715273462143000,-0.00293615460395813,0.019461415708065033,0.0734122097492218,9.082058906555176,0.1213739663362503,-3.736783027648926
1403715273467143000,-0.0008141249418258667,0.021544404327869415,0.07620303332805634,9.041324615478516,0.12178707122802734,-3.687912940979004
1403715273472143000,-0.004337560385465622,0.01733291894197464,0.07837092876434326,9.1063871383667,0.12160294502973557,-3.6549246311187744
1403715273477143000,-8.865445852279663e-05,0.022961415350437164,0.08259011059999466,9.000377655029297,0.12950243055820465,-3.7035796642303467
1403715273482143000,-0.002915777266025543,0.01807774230837822,0.07906332612037659,9.049443244934082,0.1460658460855484,-3.72049617767334
1403715273487143000,-0.002901170402765274,0.02223547175526619,0.0811062902212143,9.033089637756348,0.1056162640452385,-3.720616579055786
1403715273492143000,0.0006016865372657776,0.02153349667787552,0.075470469892025,9.07379150390625,0.13772927224636078,-3.688042640686035
1403715273497143000,-0.001511886715888977,0.02154020220041275,0.08039788156747818,9.098224639892578,0.13803686201572418,-3.7039144039154053
1403715273502143000,-0.0015048012137413025,0.01944258064031601,0.07769231498241425,9.081841468811035,0.14623142778873444,-3.696033477783203
1403715273507143000,-0.002214968204498291,0.018720220774412155,0.07839273661375046,9.07360553741455,0.15427660942077637,-3.7040231227874756
1403715273512143000,-0.0014971233904361725,0.022245272994041443,0.08046998083591461,9.057403564453125,0.06447355449199677,-3.6796488761901855
1403715273517143000,-0.004330433905124664,0.02155466377735138,0.08109436929225922,9.09814167022705,0.08873508125543594,-3.67121958732605
1403715273522143000,-0.0029182061553001404,0.020148754119873047,0.07546886056661606,9.065571784973145,0.1136249378323555,-3.695707321166992
1403715273527143000,-0.0014758743345737457,0.01943439245223999,0.07692145556211472,9.098196029663086,0.1547071635723114,-3.728684186935425
1403715273532143000,-0.0007866434752941132,0.02153371274471283,0.07981274276971817,9.04111385345459,0.0808594599366188,-3.737133502960205
1403715273537143000,-0.0029143765568733215,0.02224823832511902,0.07625196874141693,9.081872940063477,0.12135452777147293,-3.7861554622650146
1403715273542143000,-0.002924364060163498,0.02437516301870346,0.07552435249090195,9.049416542053223,-0.008555961772799492,-3.737481117248535
1403715273547143000,-0.0099387988448143,0.01878928393125534,0.07618975639343262,8.918795585632324,0.5380609631538391,-3.6870176792144775
1403715273552143000,-0.015484679490327835,0.013063415884971619,0.09307392686605453,9.326421737670898,0.2622884213924408,-3.7694828510284424
1403715273557143000,-0.02752969041466713,0.03066364675760269,0.07911185175180435,8.894037246704102,-0.13256262242794037,-3.6230640411376953
1403715273562143000,-0.0006745047867298126,0.009607471525669098,0.09233056753873825,9.139277458190918,-0.3629720211029053,-3.524867534637451
1403715273567143000,0.029507994651794434,0.03753930330276489,0.06509504467248917,9.230058670043945,-0.8909191489219666,-3.671386957168579
1403715273572143000,0.05887019634246826,0.012443102896213531,0.06064267456531525,8.852911949157715,-0.197213277220726,-3.516653299331665
1403715273577143000,0.0614883154630661,0.019247110933065414,0.050120700150728226,9.294547080993652,0.4911843538284302,-3.7599129676818848
1403715273582143000,0.02471432089805603,0.022629350423812866,0.06836646795272827,8.836577415466309,1.4959712028503418,-3.6720943450927734
1403715273587143000,-0.049774833023548126,0.012040890753269196,0.08243617415428162,9.072461128234863,1.7222440242767334,-3.9723927974700928
1403715273592143000,-0.10713168233633041,0.019546065479516983,0.09733650833368301,9.155016899108887,0.7581340670585632,-3.6973557472229004
1403715273597143000,-0.10450377315282822,0.02450762316584587,0.10712185502052307,8.943042755126953,-0.568977415561676,-3.6614160537719727
1403715273602143000,-0.0571022666990757,0.02083291858434677,0.10005345940589905,8.89589786529541,-1.1419212818145752,-3.337425947189331
1403715273607143000,0.01674296334385872,0.005061604082584381,0.1019536703824997,9.695728302001953,-1.2519397735595703,-3.679136037826538
1403715273612143000,0.08243347704410553,0.048608362674713135,0.050312578678131104,9.129857063293457,-1.2604517936706543,-3.6588616371154785
1403715273617143000,0.12491855025291443,0.01391654834151268,0.05022093653678894,8.71462345123291,0.07932423055171967,-3.500479221343994
1403715273622143000,0.10705401003360748,0.03516058623790741,0.052265994250774384,9.14014720916748,1.3774476051330566,-3.744969606399536
1403715273627143000,0.028663888573646545,-0.007781175896525383,0.07595418393611908,8.730175018310547,1.9985640048980713,-3.7546141147613525
1403715273632143000,-0.05899130553007126,0.016243793070316315,0.07104738056659698,9.870283126831055,1.2663251161575317,-4.129420280456543
1403715273637143000,-0.08770982176065445,0.05615653842687607,0.07284362614154816,8.633813858032227,-0.19148418307304382,-3.5511488914489746
1403715273642143000,-0.056438855826854706,-0.007614638656377792,0.09950973093509674,8.381656646728516,-0.2744092047214508,-3.4291720390319824
1403715273647143000,-0.036437034606933594,0.010924100875854492,0.08103650063276291,9.753945350646973,-0.24538001418113708,-3.7432210445404053
1403715273652143000,-0.03446121886372566,0.026500433683395386,0.06501401960849762,8.834497451782227,-0.03497723862528801,-3.5650784969329834
1403715273657143000,-0.02084720879793167,-0.012152278795838356,0.061236731708049774,9.155162811279297,0.11558738350868225,-3.7140591144561768
1403715273662143000,-0.011379396542906761,0.031337372958660126,0.09204089641571045,9.01116943359375,-0.07590660452842712,-3.6334683895111084
1403715273667143000,-9.853020310401917e-05,0.008594125509262085,0.09790285676717758,8.981983184814453,-0.22759680449962616,-3.75309681892395
1403715273672143000,0.03342144936323166,0.029933810234069824,0.09204104542732239,9.571248054504395,-0.913751482963562,-3.5862576961517334
1403715273677143000,0.08856165409088135,0.04493286460638046,0.07835417240858078,8.795464515686035,-1.0710561275482178,-3.4256529808044434
1403715273682143000,0.1181039810180664,0.0030141733586788177,0.07024207711219788,8.577091217041016,0.35277220606803894,-3.6026978492736816
1403715273687143000,0.07686758041381836,0.013478651642799377,0.059324998408555984,9.661218643188477,1.4871920347213745,-3.9093596935272217
1403715273692143000,-0.007104501128196716,0.04236864298582077,0.03952508792281151,8.892265319824219,1.4486902952194214,-3.9838638305664062
1403715273697143000,-0.06639167666435242,-0.0065811313688755035,0.06684789806604385,8.503935813903809,1.4462659358978271,-3.663404703140259
1403715273702143000,-0.10892952978610992,0.0066792406141757965,0.11020416766405106,9.441761016845703,1.139599323272705,-3.872708559036255
1403715273707143000,-0.1536179929971695,0.023219484835863113,0.10838527977466583,8.90030288696289,0.23610174655914307,-3.761523485183716
1403715273712143000,-0.13998280465602875,0.00692237913608551,0.11310086399316788,9.416387557983398,-1.01318359375,-3.5437111854553223
1403715273717143000,-0.067314513027668,0.03874518722295761,0.11094965785741806,9.150518417358398,-2.0597829818725586,-3.3735435009002686
1403715273722143000,0.07073371112346649,0.015547126531600952,0.09408493340015411,9.074740409851074,-2.0727427005767822,-3.559360980987549
1403715273727143000,0.1509997546672821,0.03472396731376648,0.04866574704647064,9.507346153259277,-1.420012354850769,-3.586663007736206
1403715273732143000,0.19380640983581543,0.04932740330696106,0.024353500455617905,8.868921279907227,-0.19069992005825043,-3.6312718391418457
1403715273737143000,0.1797173023223877,0.005523063242435455,0.046092383563518524,8.715703010559082,1.5256189107894897,-3.7796826362609863
1403715273742143000,0.0791727676987648,0.03409949690103531,0.040740691125392914,9.647313117980957,2.8529438972473145,-4.104297161102295
1403715273747143000,-0.06294786930084229,0.028745446354150772,0.06893610954284668,8.3286771774292,2.92275071144104,-3.8309905529022217
1403715273752143000,-0.1715892255306244,-0.012499380856752396,0.0769646167755127,8.708910942077637,1.6370890140533447,-3.797683000564575
1403715273757143000,-0.19266609847545624,0.00341666117310524,0.12079503387212753,9.215391159057617,0.14574410021305084,-3.644860029220581
1403715273762143000,-0.16268587112426758,0.004936426877975464,0.10999636352062225,9.221501350402832,-1.5299072265625,-3.654043197631836
1403715273767143000,-0.07716557383537292,0.01671919971704483,0.11419661343097687,9.279519081115723,-1.6860945224761963,-3.3662304878234863
1403715273772143000,0.017377272248268127,0.0422394797205925,0.08659153431653976,9.386415481567383,-1.9356248378753662,-3.5683717727661133
1403715273777143000,0.12071974575519562,0.0333438515663147,0.07135085761547089,8.696420669555664,-1.205551266670227,-3.348933696746826
1403715273782143000,0.1488533914089203,0.022806089371442795,0.039946213364601135,9.261143684387207,0.00285000610165298,-3.712876319885254
1403715273787143000,0.1298309564590454,0.05322301387786865,0.03301957994699478,9.22817611694336,0.9581053256988525,-3.846540689468384
1403715273792143000,0.0684061199426651,0.004439745098352432,0.05171510577201843,8.08818531036377,1.6989225149154663,-3.5884907245635986
1403715273797143000,-0.013792850077152252,0.008378695696592331,0.06467268615961075,9.442994117736816,1.9643316268920898,-4.18560791015625
1403715273802143000,-0.08230555802583694,0.021511126309633255,0.10621300339698792,8.575884819030762,1.2689111232757568,-3.655602216720581
1403715273807143000,-0.12539023160934448,-0.016181092709302902,0.12684562802314758,9.129110336303711,0.5599909424781799,-3.969088315963745
1403715273812143000,-0.12387589365243912,0.04319555312395096,0.09936843812465668,9.345575332641602,-0.5050506591796875,-3.3246145248413086
1403715273817143000,-0.07476480305194855,-0.006329365074634552,0.11258520931005478,8.599239349365234,-0.9408004879951477,-3.462170124053955
1403715273822143000,-0.022425901144742966,0.0007958114147186279,0.06508857756853104,10.243663787841797,-1.642565131187439,-3.8833398818969727
1403715273827143000,0.07973120361566544,0.06971853971481323,0.030881468206644058,8.999028205871582,-1.7068761587142944,-3.579038381576538
1403715273832143000,0.14526301622390747,0.006924044340848923,0.046469997614622116,8.247947692871094,-0.37683019042015076,-3.303727149963379
1403715273837143000,0.13920068740844727,0.028158828616142273,0.057957977056503296,9.484480857849121,1.339705467224121,-3.842439889907837
1403715273842143000,0.052435338497161865,0.015986409038305283,0.0764656513929367,8.664196014404297,2.139010190963745,-3.895911931991577
1403715273847143000,-0.040560051798820496,0.011888466775417328,0.06497129797935486,9.503744125366211,1.6269216537475586,-4.1387763023376465
1403715273852143000,-0.08463097363710403,0.0468955934047699,0.08184085786342621,8.587517738342285,0.20314618945121765,-3.3950634002685547
1403715273857143000,-0.06860926747322083,-0.0013982094824314117,0.09895875304937363,8.609288215637207,-0.38711243867874146,-3.688051462173462
1403715273862143000,-0.04423638433218002,0.016000710427761078,0.08889685571193695,9.548544883728027,-0.27173545956611633,-3.5991077423095703
1403715273867143000,-0.02520979754626751,0.021487679332494736,0.07580190151929855,8.867575645446777,-0.14257632195949554,-3.604525327682495
1403715273872143000,-0.009657569229602814,0.0023309439420700073,0.06395107507705688,9.074310302734375,-0.30135494470596313,-3.6756083965301514
1403715273877143000,0.006051298230886459,0.020296946167945862,0.07743429392576218,9.214035034179688,-0.11164256185293198,-3.6985762119293213
1403715273882143000,0.016642101109027863,0.02054101973772049,0.07108563184738159,8.615264892578125,0.18977481126785278,-3.556765556335449
1403715273887143000,0.01947595179080963,0.000503048300743103,0.08952652662992477,9.310263633728027,0.3380868136882782,-3.752850294113159
1403715273892143000,0.00365389883518219,0.03390881419181824,0.0940018743276596,9.325777053833008,0.31091442704200745,-3.7866599559783936
1403715273897143000,-0.007488403469324112,0.020172789692878723,0.11251454055309296,8.696788787841797,0.51486736536026,-3.7029104232788086
1403715273902143000,-0.01955369859933853,0.020263876765966415,0.10882396250963211,9.238099098205566,0.19098468124866486,-3.7036523818969727
1403715273907143000,-0.012425564229488373,0.03475552052259445,0.09716673195362091,9.130645751953125,-0.5798441171646118,-3.605722665786743
1403715273912143000,0.03276965022087097,0.01707851141691208,0.06659230589866638,9.024251937866211,-1.2220008373260498,-3.6392056941986084
1403715273917143000,0.08716367185115814,0.020655933767557144,0.05292067304253578,9.360302925109863,-0.25678199529647827,-3.7064297199249268
1403715273922143000,0.07902473211288452,0.026952974498271942,0.04220815747976303,8.739324569702148,1.098201870918274,-3.8103604316711426
1403715273927143000,0.01818688213825226,0.018484365195035934,0.03316528722643852,9.041454315185547,1.5868502855300903,-3.845240831375122
1403715273932143000,-0.051296114921569824,0.010739907622337341,0.07059299200773239,8.934626579284668,1.693206548690796,-3.7697317600250244
1403715273937143000,-0.12390032410621643,0.005243316292762756,0.08413630723953247,9.072477340698242,1.131996989250183,-3.783799648284912
1403715273942143000,-0.13882610201835632,0.014728125184774399,0.10860393196344376,9.131871223449707,-0.1396966427564621,-3.5650830268859863
1403715273947143000,-0.10000587999820709,0.02376367896795273,0.08690346777439117,9.018921852111816,-1.6074365377426147,-3.4996285438537598
1403715273952143000,0.0015153959393501282,0.03321829438209534,0.09671476483345032,9.296100616455078,-1.8463128805160522,-3.3558995723724365
1403715273957143000,0.07865554094314575,0.028410084545612335,0.10229514539241791,9.072630882263184,-0.7363848686218262,-3.6459388732910156
1403715273962143000,0.09207065403461456,0.037404872477054596,0.07041533291339874,9.203067779541016,0.28360527753829956,-3.666147470474243
1403715273967143000,0.07609321177005768,0.03531172126531601,0.08034776151180267,8.608687400817871,0.23243312537670135,-3.647240400314331
1403715273972143000,0.08388066291809082,-0.0017861351370811462,0.07492917031049728,9.066251754760742,-0.29475483298301697,-3.730574131011963
1403715273977143000,0.10491690039634705,0.03116878867149353,0.07582065463066101,9.286457061767578,-0.35769152641296387,-3.786250591278076
1403715273982143000,0.1185368150472641,0.009536560624837875,0.06782640516757965,8.990805625915527,1.099810242652893,-3.809623956680298
1403715273987143000,0.019742213189601898,0.032025352120399475,0.05889495834708214,9.123944282531738,2.482807159423828,-3.9276199340820312
1403715273992143000,-0.12302076816558838,0.006532780826091766,0.07745549082756042,8.741971015930176,3.346447229385376,-3.9118003845214844
1403715273997143000,-0.25670793652534485,0.018686316907405853,0.08295510709285736,9.478206634521484,2.191021680831909,-4.028445720672607
1403715274002143000,-0.29104113578796387,0.022755149751901627,0.10067743808031082,8.722846031188965,-0.6475660800933838,-3.2823855876922607
1403715274007143000,-0.18594184517860413,-0.002704828977584839,0.1101207360625267,9.260184288024902,-3.329023599624634,-3.521104574203491
1403715274012143000,0.017031878232955933,0.03967256844043732,0.09320144355297089,8.939925193786621,-4.338220119476318,-3.0307130813598633
1403715274017143000,0.21005383133888245,0.015087857842445374,0.07768383622169495,9.378520011901855,-2.924422025680542,-3.7096540927886963
1403715274022143000,0.29477250576019287,0.03019632399082184,0.06452279537916183,9.553536415100098,-0.06579799205064774,-3.8694732189178467
1403715274027143000,0.2286781668663025,0.06631216406822205,0.023682720959186554,8.92693042755127,2.1693832874298096,-4.023395538330078
1403715274032143000,0.1099645346403122,0.03376138210296631,0.03921903297305107,8.168378829956055,2.916043758392334,-3.6551432609558105
1403715274037143000,-0.015749752521514893,0.0010514073073863983,0.07193291932344437,9.133431434631348,2.1198837757110596,-4.052934646606445
1403715274042143000,-0.10823183506727219,0.00014497339725494385,0.12404536455869675,9.03120231628418,1.1609638929367065,-3.9402432441711426
1403715274047143000,-0.14511190354824066,0.009865052998065948,0.12317781150341034,9.065225601196289,0.5114191174507141,-3.8728110790252686
1403715274052143000,-0.14043621718883514,0.023319967091083527,0.1482090950012207,9.059893608093262,-0.15509860217571259,-3.4843199253082275
1403715274057143000,-0.12009859085083008,0.01609981432557106,0.10753278434276581,9.441183090209961,-0.9281538724899292,-3.78466796875
1403715274062143000,-0.05541538447141647,0.04182036221027374,0.07938229292631149,9.390522003173828,-1.4676332473754883,-3.5395665168762207
1403715274067143000,0.02686530351638794,0.03239162266254425,0.06187155470252037,9.023957252502441,-1.5521143674850464,-3.4627490043640137
1403715274072143000,0.10571642220020294,0.040473729372024536,0.046842046082019806,9.246760368347168,-1.399161458015442,-3.618642807006836
1403715274077143000,0.1582196205854416,0.039706312119960785,0.0611012764275074,8.754837036132812,-0.3491876721382141,-3.6801977157592773
1403715274082143000,0.14236517250537872,0.04455578327178955,0.06295052170753479,9.357925415039062,1.3558666706085205,-3.9922783374786377
1403715274087143000,0.06395236402750015,0.042637601494789124,0.08383630961179733,8.722585678100586,2.051544427871704,-3.748414993286133
1403715274092143000,-0.03147541731595993,0.01869111880660057,0.08906474709510803,8.601770401000977,1.8404669761657715,-3.8152267932891846
1403715274097143000,-0.11597809195518494,0.006625298410654068,0.09297399967908859,9.010262489318848,0.8559154272079468,-3.652614116668701
1403715274102143000,-0.1325567662715912,0.009060122072696686,0.10605742782354355,9.008671760559082,0.07718247175216675,-3.7083218097686768
1403715274107143000,-0.10722695291042328,0.0041301921010017395,0.10963977128267288,9.278214454650879,-0.5620983839035034,-3.64009952545166
1403715274112143000,-0.06894950568675995,0.023804590106010437,0.10652323067188263,8.98503303527832,-0.9810234308242798,-3.3954763412475586
1403715274117143000,0.00429849699139595,0.004063509404659271,0.1000247448682785,9.016666412353516,-1.31602942943573,-3.412472724914551
1403715274122143000,0.06901435554027557,0.010004870593547821,0.07658954709768295,9.628812789916992,-1.1489994525909424,-3.716538190841675
1403715274127143000,0.10598959028720856,0.042367979884147644,0.05057908222079277,9.226810455322266,-0.3170035779476166,-3.625774383544922
1403715274132143000,0.1136772632598877,0.020908813923597336,0.05013320967555046,8.73928451538086,0.34899240732192993,-3.6784868240356445
1403715274137143000,0.08440923690795898,0.03541836142539978,0.06433039903640747,9.18898868560791,1.1315884590148926,-3.7200334072113037
1403715274142143000,0.03609320521354675,0.02689535915851593,0.09170497208833694,8.591180801391602,1.5627162456512451,-3.6189892292022705
1403715274147143000,-0.03296799957752228,0.0022521018981933594,0.101309634745121,9.145975112915039,1.277235984802246,-3.7830145359039307
1403715274152143000,-0.092477947473526,0.005308292806148529,0.09424667060375214,8.928156852722168,0.5050455331802368,-3.64616060256958
1403715274157143000,-0.090333953499794,-0.008457183837890625,0.08374437689781189,9.066263198852539,-0.48829907178878784,-3.6623523235321045
1403715274162143000,-0.046053797006607056,0.016840364784002304,0.07824590057134628,9.450262069702148,-0.8983898758888245,-3.7147305011749268
1403715274167143000,0.006923135370016098,0.019570622593164444,0.0786636546254158,8.958292007446289,-0.6678248047828674,-3.5750010013580322
1403715274172143000,0.03420291841030121,0.014414407312870026,0.07946965098381042,9.008273124694824,-0.19076484441757202,-3.5744080543518066
1403715274177143000,0.031874172389507294,0.018000539392232895,0.08823734521865845,8.878467559814453,0.33367010951042175,-3.679924488067627
1403715274182143000,0.012012436985969543,0.007465563714504242,0.08782792091369629,9.007989883422852,0.4256962239742279,-3.6882684230804443
1403715274187143000,0.0007475316524505615,0.02012079954147339,0.0890573188662529,9.37547779083252,0.14912860095500946,-3.925515651702881
1403715274192143000,0.00896807387471199,0.03154750168323517,0.07261204719543457,9.024916648864746,-0.49668458104133606,-3.59234619140625
1403715274197143000,0.04473331570625305,0.026497263461351395,0.07845263928174973,9.171931266784668,-0.4986364543437958,-3.653474807739258
1403715274202143000,0.07109765708446503,0.03398207575082779,0.06659812480211258,8.951587677001953,0.06662560254335403,-3.6217267513275146
1403715274207143000,0.04614172875881195,0.012691669166088104,0.06472232937812805,8.917644500732422,1.1533713340759277,-3.792344808578491
1403715274212143000,-0.014287248253822327,0.020359251648187637,0.07381561398506165,8.967681884765625,1.4617459774017334,-3.8527135848999023
1403715274217143000,-0.0757148414850235,0.004063088446855545,0.072635218501091,9.016622543334961,0.9844996333122253,-3.7945165634155273
1403715274222143000,-0.09322641044855118,0.004261665046215057,0.08399205654859543,9.196248054504395,0.1004268005490303,-3.704925775527954
1403715274227143000,-0.073942631483078,0.011961713433265686,0.07641024887561798,9.058072090148926,-0.7237415909767151,-3.5492708683013916
1403715274232143000,-0.023278243839740753,0.01171642541885376,0.07005462795495987,9.188629150390625,-1.000707983970642,-3.6143903732299805
1403715274237143000,0.022891435772180557,0.027042288333177567,0.06653333455324173,9.180005073547363,-0.574739396572113,-3.4765255451202393
1403715274242143000,0.043566323816776276,0.01594378799200058,0.06232108175754547,8.844950675964355,-0.24459370970726013,-3.6127731800079346
1403715274247143000,0.05036017298698425,0.013099297881126404,0.06509126722812653,8.870894432067871,0.27893465757369995,-3.4840543270111084
1403715274252143000,0.0384211465716362,0.0011984296143054962,0.06854405254125595,9.074417114257812,0.4276629090309143,-3.7511255741119385
1403715274257143000,0.013749349862337112,0.003385983407497406,0.07827833294868469,8.869523048400879,0.4277716279029846,-3.688924551010132
1403715274262143000,-0.0038622021675109863,-0.0014528688043355942,0.08584773540496826,9.244719505310059,0.5893089771270752,-3.8666884899139404
1403715274267143000,-0.02087201178073883,0.010499298572540283,0.09360270202159882,9.089387893676758,0.45830854773521423,-3.762275218963623
1403715274272143000,-0.04410211369395256,0.007690582424402237,0.0845949649810791,8.99937629699707,0.38279423117637634,-3.686276912689209
1403715274277143000,-0.04599301517009735,0.0005534663796424866,0.09803072363138199,9.065723419189453,0.029423650354146957,-3.6873719692230225
1403715274282143000,-0.03583884611725807,-0.0001704096794128418,0.08691295981407166,8.894603729248047,-0.29811325669288635,-3.548818826675415
1403715274287143000,-0.011549610644578934,-0.005740925669670105,0.08811619132757187,9.261775016784668,-0.41281428933143616,-3.7373671531677246
1403715274292143000,0.013756252825260162,0.005574796348810196,0.07270772010087967,9.28573989868164,-0.337708443403244,-3.772632360458374
1403715274297143000,0.03397800028324127,0.016795143485069275,0.06490024924278259,9.276695251464844,-0.15611904859542847,-3.7555654048919678
1403715274302143000,0.04286181181669235,0.02937694638967514,0.05648549646139145,9.07326889038086,0.18801097571849823,-3.762753486633301
1403715274307143000,0.03415563702583313,0.03689856082201004,0.05506732314825058,9.113900184631348,0.6062459349632263,-3.835022211074829
1403715274312143000,0.0029601678252220154,0.03748006373643875,0.07356183975934982,8.836992263793945,0.688416600227356,-3.6707863807678223
1403715274317143000,-0.0244397334754467,0.018644947558641434,0.07013506442308426,8.83015251159668,0.5147686004638672,-3.726318120956421
1403715274322143000,-0.041090287268161774,0.007498379796743393,0.07899725437164307,8.969239234924316,0.3494744896888733,-3.752568483352661
1403715274327143000,-0.04503608122467995,0.014605402946472168,0.07972006499767303,9.155830383300781,0.16179348528385162,-3.801868438720703
1403715274332143000,-0.03572748973965645,0.02870999649167061,0.07411476969718933,9.236769676208496,-0.18199849128723145,-3.7960128784179688
1403715274337143000,-0.020159944891929626,0.03704312443733215,0.06786131113767624,9.20404052734375,-0.3142440915107727,-3.7060725688934326
1403715274342143000,0.004476416856050491,0.04033783823251724,0.07222248613834381,9.106005668640137,-0.3781379461288452,-3.5741939544677734
1403715274347143000,0.02685980498790741,0.03741816431283951,0.08068221807479858,8.796126365661621,-0.20492170751094818,-3.588505506515503
1403715274352143000,0.03446059674024582,0.019130326807498932,0.07546272873878479,9.009196281433105,0.24540655314922333,-3.6297805309295654
1403715274357143000,0.024410180747509003,0.015780869871377945,0.0850859135389328,9.008785247802734,0.46729403734207153,-3.73576283454895
1403715274362143000,0.001049436628818512,0.010490711778402328,0.07250913977622986,9.08174991607666,0.6952332258224487,-3.8106303215026855
1403715274367143000,-0.034059830009937286,0.021014507859945297,0.07670871168375015,9.440105438232422,0.6293466091156006,-3.876229763031006
1403715274372143000,-0.04735643416643143,0.034988150000572205,0.07984097301959991,8.991094589233398,0.22062624990940094,-3.728797435760498
1403715274377143000,-0.040195971727371216,0.025679729878902435,0.0744478777050972,8.98415470123291,-0.45174267888069153,-3.4669535160064697
1403715274382143000,0.008453652262687683,0.01777803525328636,0.0835249274969101,8.879095077514648,-0.9518700242042542,-3.3429601192474365
1403715274387143000,0.05405998229980469,0.0009915269911289215,0.061575762927532196,8.829843521118164,-0.8035447001457214,-3.408109426498413
1403715274392143000,0.08562891185283661,-0.008690116927027702,0.0639892965555191,9.295010566711426,0.08953888714313507,-3.704012393951416
1403715274397143000,0.06491219997406006,0.005511157214641571,0.05561349540948868,9.171079635620117,0.9742627739906311,-3.8778393268585205
1403715274402143000,0.006441906094551086,0.015199698507785797,0.06747394055128098,9.145533561706543,1.6254870891571045,-3.943943500518799
1403715274407143000,-0.06581570953130722,0.02357659861445427,0.09093920141458511,9.283442497253418,1.4039748907089233,-3.901064157485962
1403715274412143000,-0.12184271961450577,0.030047941952943802,0.09692071378231049,8.8768892288208,0.12955062091350555,-3.596923589706421
1403715274417143000,-0.09960280358791351,0.022819779813289642,0.10996590554714203,8.854534149169922,-0.8958882093429565,-3.4405510425567627
1403715274422143000,-0.024881048128008842,0.008675135672092438,0.09731514006853104,8.93809700012207,-1.5243120193481445,-3.4659461975097656
1403715274427143000,0.053109265863895416,0.003851480782032013,0.08307839184999466,9.009922981262207,-1.2773569822311401,-3.5007777214050293
1403715274432143000,0.09570232033729553,0.011062640696763992,0.05989847332239151,9.457596778869629,-0.35247400403022766,-3.8785839080810547
1403715274437143000,0.09182359278202057,0.03141440451145172,0.05009915679693222,9.26801586151123,0.6882920265197754,-3.9873204231262207
1403715274442143000,0.0536285862326622,0.0445200577378273,0.06074576824903488,8.966217041015625,1.1632181406021118,-3.7888641357421875
1403715274447143000,0.002251356840133667,0.0324472114443779,0.07336313277482986,8.926379203796387,1.2508152723312378,-3.7031893730163574
1403715274452143000,-0.04759036749601364,0.029641788452863693,0.08871626853942871,8.893854141235352,0.9644283652305603,-3.6844911575317383
1403715274457143000,-0.08045778423547745,0.024151667952537537,0.09440149366855621,9.147284507751465,0.521837055683136,-3.61106538772583
1403715274462143000,-0.07546445727348328,0.018114537000656128,0.10003626346588135,8.977116584777832,-0.24050870537757874,-3.579869031906128
1403715274467143000,-0.06543686240911484,0.014801505953073502,0.0664144903421402,9.01826000213623,-0.521079421043396,-3.6465563774108887
1403715274472143000,-0.019959688186645508,0.023035742342472076,0.06153464689850807,9.474242210388184,-0.5684184432029724,-3.803985595703125
1403715274477143000,0.019510511308908463,0.041062816977500916,0.06126799061894417,9.113110542297363,-0.7869793176651001,-3.601552724838257
1403715274482143000,0.051146574318408966,0.04581014811992645,0.05758335441350937,9.016255378723145,-0.3050890266895294,-3.517103910446167
1403715274487143000,0.07112528383731842,0.03039783611893654,0.07484336197376251,8.821762084960938,0.001620805123820901,-3.5884504318237305
1403715274492143000,0.06366363912820816,0.025594990700483322,0.059183306992053986,8.95181655883789,0.4941384792327881,-3.7109181880950928
1403715274497143000,0.03726302832365036,0.012320637702941895,0.05968175828456879,8.992698669433594,0.6894013285636902,-3.613539218902588
1403715274502143000,-0.005131702870130539,0.0011708885431289673,0.04430045187473297,9.082666397094727,0.9006660580635071,-3.906557559967041
1403715274507143000,-0.04225526005029678,0.01262502372264862,0.05244903266429901,9.009354591369629,0.728014349937439,-3.737565755844116
1403715274512143000,-0.060824453830718994,0.01552150771021843,0.07265438139438629,9.35908317565918,0.11198301613330841,-3.866453170776367
1403715274517143000,-0.05769384279847145,0.025199368596076965,0.09288989752531052,8.795450210571289,-0.06238633021712303,-3.7137773036956787
1403715274522143000,-0.044735781848430634,0.02770932763814926,0.10645582526922226,8.984545707702637,-0.2815845310688019,-3.5240206718444824
1403715274527143000,-0.008627263829112053,0.020674895495176315,0.107487753033638,9.196576118469238,-0.4687804877758026,-3.6881823539733887
1403715274532143000,0.017230205237865448,0.01310562714934349,0.08564764261245728,8.852724075317383,-0.5266899466514587,-3.4695076942443848
1403715274537143000,0.03823399543762207,0.005389902740716934,0.07452601194381714,9.188655853271484,-0.23009644448757172,-3.7121939659118652
1403715274542143000,0.04842586815357208,0.012538004666566849,0.06657062470912933,8.919337272644043,-0.14473021030426025,-3.657381057739258
1403715274547143000,0.050400204956531525,0.012501455843448639,0.06940697878599167,9.374486923217773,0.31980791687965393,-3.8267335891723633
1403715274552143000,0.03463339805603027,0.026396922767162323,0.07912226766347885,9.105175971984863,0.6309946775436401,-3.7295525074005127
1403715274557143000,0.0020525194704532623,0.024961628019809723,0.08019673824310303,8.917945861816406,0.8838015198707581,-3.8002824783325195
1403715274562143000,-0.02600153535604477,0.0158408023416996,0.07526487112045288,9.025752067565918,0.3758702874183655,-3.5731070041656494
1403715274567143000,-0.03690674155950546,0.022192876785993576,0.06480710208415985,9.106441497802734,0.20050010085105896,-3.7501142024993896
1403715274572143000,-0.03802618756890297,0.01538502424955368,0.051752977073192596,9.016838073730469,0.1770884245634079,-3.7047572135925293
1403715274577143000,-0.041973698884248734,0.01960097998380661,0.061147671192884445,9.245619773864746,0.3572535514831543,-3.7852632999420166
1403715274582143000,-0.03971942886710167,0.03782138228416443,0.08164076507091522,8.999897956848145,0.2666027843952179,-3.7872660160064697
1403715274587143000,-0.03764622285962105,0.01880783587694168,0.08148033916950226,8.878059387207031,-0.28184038400650024,-3.4766812324523926
1403715274592143000,-0.010722458362579346,0.0367332324385643,0.09151241183280945,9.28620719909668,-0.33018988370895386,-3.784745216369629
1403715274597143000,0.02333589270710945,0.029050014913082123,0.08387695997953415,8.584148406982422,-0.9961097240447998,-3.2977294921875
1403715274602143000,0.07042389363050461,0.010739367455244064,0.06888310611248016,9.45899486541748,-0.8093687295913696,-3.710895538330078
1403715274607143000,0.10440447926521301,0.031234130263328552,0.07403841614723206,8.763982772827148,-0.007168568205088377,-3.5670535564422607
1403715274612143000,0.07786276191473007,0.007437579333782196,0.04882097989320755,9.089618682861328,0.9610186815261841,-3.734421491622925
1403715274617143000,0.02852727472782135,0.02541375905275345,0.06546945869922638,9.285037994384766,1.4817519187927246,-3.869800329208374
1403715274622143000,-0.04183446615934372,0.021484941244125366,0.06141107529401779,8.778937339782715,1.159069299697876,-3.727790117263794
1403715274627143000,-0.08050128072500229,0.011730603873729706,0.07469571381807327,9.32652759552002,0.5444356799125671,-3.8664796352386475
1403715274632143000,-0.08508097380399704,0.02590338885784149,0.10173982381820679,8.715547561645508,-0.14263445138931274,-3.5241544246673584
1403715274637143000,-0.06859363615512848,0.015933237969875336,0.07991983741521835,9.213231086730957,-0.6662489175796509,-3.490083694458008
1403715274642143000,-0.018441254273056984,0.023583609610795975,0.08101066201925278,9.425721168518066,-0.8553791046142578,-3.7376272678375244
1403715274647143000,0.023586183786392212,0.020930256694555283,0.059530533850193024,8.762520790100098,-0.575907826423645,-3.5671544075012207
1403715274652143000,0.051723331212997437,0.024886634200811386,0.052982620894908905,9.621232032775879,-0.21271288394927979,-3.8615574836730957
1403715274657143000,0.0604572594165802,0.03413854539394379,0.04910455271601677,8.828428268432617,-0.09603936225175858,-3.6415512561798096
1403715274662143000,0.05964074283838272,0.03121592104434967,0.05179089307785034,9.21129035949707,0.37694182991981506,-3.8013076782226562
1403715274667143000,0.042485617101192474,0.0445108488202095,0.0755387619137764,9.090761184692383,0.640599250793457,-3.819331407546997
1403715274672143000,0.0005467124283313751,0.03267446160316467,0.08157560974359512,8.600265502929688,1.0970957279205322,-3.866400718688965
1403715274677143000,-0.040103062987327576,0.02479642629623413,0.0912255346775055,9.253800392150879,0.8746281862258911,-3.884192943572998
1403715274682143000,-0.0736875832080841,0.02221730723977089,0.09734461456537247,8.845710754394531,0.3159322440624237,-3.5973362922668457
1403715274687143000,-0.07180076092481613,0.011821050196886063,0.09887109696865082,8.869998931884766,-0.26669979095458984,-3.6210522651672363
1403715274692143000,-0.039083708077669144,0.016622401773929596,0.09385022521018982,9.14149284362793,-0.7400931715965271,-3.493272304534912
1403715274697143000,0.007550276815891266,0.020757898688316345,0.08259017020463943,9.28570556640625,-0.9355703592300415,-3.6233043670654297
1403715274702143000,0.05175391584634781,0.03198367357254028,0.0811339020729065,9.040181159973145,-0.4856094717979431,-3.576000690460205
1403715274707143000,0.06693851202726364,0.037476763129234314,0.06900370866060257,9.546677589416504,0.09056965261697769,-3.7867512702941895
1403715274712143000,0.05239100754261017,0.050832346081733704,0.06683634221553802,8.787177085876465,0.5663937330245972,-3.6392791271209717
1403715274717143000,0.01845775544643402,0.03122030198574066,0.05783060938119888,9.040940284729004,0.859796941280365,-3.6936566829681396
1403715274722143000,-0.01174594834446907,0.03259875625371933,0.0742037445306778,9.066202163696289,0.6388834118843079,-3.645097017288208
1403715274727143000,-0.03852984681725502,0.021610938012599945,0.07081422209739685,8.511585235595703,0.4492690861225128,-3.5694210529327393
1403715274732143000,-0.044607698917388916,0.003340926021337509,0.07912710309028625,9.084203720092773,0.21074263751506805,-3.5551137924194336
1403715274737143000,-0.04517252370715141,-0.002190280705690384,0.08273809403181076,8.944271087646484,-0.12486468255519867,-3.694403886795044
1403715274742143000,-0.024477627128362656,0.004067778587341309,0.0706605315208435,9.277274131774902,-0.21687063574790955,-3.6817026138305664
1403715274747143000,0.0010081864893436432,0.01881488412618637,0.08247802406549454,9.2449369430542,-0.22427572309970856,-3.705873489379883
1403715274752143000,0.0072858817875385284,0.03002835437655449,0.060914598405361176,9.01612663269043,-0.14048443734645844,-3.5585286617279053
1403715274757143000,0.028332188725471497,0.016621794551610947,0.08891409635543823,8.983777046203613,0.055928152054548264,-3.572429656982422
1403715274762143000,0.025993503630161285,0.02216576412320137,0.0672491267323494,9.212698936462402,-0.1385248601436615,-3.6142868995666504
1403715274767143000,0.0342307910323143,0.013750515878200531,0.0921495258808136,8.869105339050293,0.3428913950920105,-3.547705888748169
1403715274772143000,0.012841306626796722,0.006839986890554428,0.06703321635723114,9.115555763244629,0.3049045205116272,-3.7436087131500244
1403715274777143000,0.0016861632466316223,0.011157464236021042,0.0836426392197609,9.317822456359863,0.5807150602340698,-3.9256913661956787
1403715274782143000,-0.016549505293369293,0.025909405201673508,0.07763397693634033,9.292089462280273,0.35061800479888916,-3.88559627532959
1403715274787143000,-0.02692905068397522,0.03766321390867233,0.08042918890714645,9.121382713317871,0.5123944282531738,-3.819256067276001
1403715274792143000,-0.04166898503899574,0.03478824347257614,0.08556100726127625,8.65007209777832,-0.03338055685162544,-3.6138079166412354
1403715274797143000,-0.029398679733276367,0.021372955292463303,0.07845231145620346,9.09945011138916,-0.2734801769256592,-3.6133861541748047
1403715274802143000,-0.0018185041844844818,0.02558465674519539,0.09089454263448715,9.131070137023926,-0.5259984731674194,-3.655776262283325
1403715274807143000,0.014197096228599548,0.01524575799703598,0.06851641833782196,8.747849464416504,-0.13222117722034454,-3.557429075241089
1403715274812143000,0.021812811493873596,0.0075511634349823,0.06909459829330444,9.1818208694458,0.0011439487570896745,-3.753715991973877
1403715274817143000,0.03088405728340149,0.020921163260936737,0.0699731856584549,9.342308044433594,0.27719852328300476,-3.820695400238037
1403715274822143000,0.02452695369720459,0.03974522650241852,0.07124816626310349,9.42151165008545,0.5637665390968323,-3.9342041015625
1403715274827143000,-0.0032661594450473785,0.042499177157878876,0.06847427785396576,8.722975730895996,0.6711418628692627,-3.622797727584839
1403715274832143000,-0.028576187789440155,0.031221233308315277,0.0651116669178009,8.8878755569458,0.2541016638278961,-3.6028757095336914
1403715274837143000,-0.020547181367874146,0.02562796324491501,0.09178648889064789,9.00111198425293,-0.1583714485168457,-3.6616058349609375
1403715274842143000,-0.012020662426948547,0.014494270086288452,0.08895095437765121,8.918586730957031,-0.12517644464969635,-3.6051130294799805
1403715274847143000,-0.01558244600892067,-0.000889090821146965,0.09502208232879639,8.985125541687012,0.2526804804801941,-3.7200748920440674
1403715274852143000,-0.015529641881585121,0.013279978185892105,0.08329789340496063,9.14001178741455,-0.0818336009979248,-3.7385263442993164
1403715274857143000,-0.0005230382084846497,0.0259263776242733,0.07751772552728653,9.496659278869629,-0.20872993767261505,-3.7390823364257812
1403715274862143000,0.013442840427160263,0.029244452714920044,0.06559569388628006,9.015292167663574,-0.25517281889915466,-3.5418665409088135
1403715274867143000,0.01542990654706955,0.032541900873184204,0.05590370297431946,9.065926551818848,0.14065085351467133,-3.6286728382110596
1403715274872143000,0.020203717052936554,0.01861981302499771,0.08008774369955063,8.805359840393066,0.042913999408483505,-3.572225332260132
1403715274877143000,0.02015797048807144,0.026359446346759796,0.08701096475124359,9.041264533996582,0.03905200958251953,-3.612720489501953
1403715274882143000,0.015071652829647064,0.013832934200763702,0.10545966029167175,8.976037979125977,0.3419194519519806,-3.646188735961914
1403715274887143000,-0.015232022851705551,0.011126391589641571,0.08292070776224136,9.122859001159668,0.6225837469100952,-3.6783077716827393
1403715274892143000,-0.03257505223155022,0.016097232699394226,0.0801689624786377,9.195879936218262,0.3435822129249573,-3.744845151901245
1403715274897143000,-0.04013148695230484,0.017354533076286316,0.06859157979488373,9.097786903381348,-0.17598338425159454,-3.639664888381958
1403715274902143000,-0.013171989470720291,0.01580796390771866,0.06728861480951309,9.212112426757812,-0.16767294704914093,-3.630276679992676
1403715274907143000,0.002901807427406311,0.018021367490291595,0.07243786752223969,8.886232376098633,-0.1879727840423584,-3.597052812576294
1403715274912143000,0.016923218965530396,0.016683053225278854,0.07860106974840164,9.03346061706543,-0.06614989042282104,-3.646444320678711
1403715274917143000,0.02737722545862198,0.01731906086206436,0.09921165555715561,9.188149452209473,-0.03552941605448723,-3.753950834274292
1403715274922143000,0.022323474287986755,0.018018968403339386,0.08003510534763336,9.105704307556152,0.3336058557033539,-3.680544853210449
1403715274927143000,0.00823858380317688,0.020139180123806,0.08139299601316452,9.219844818115234,0.6629630327224731,-3.7690954208374023
1403715274932143000,-0.019321788102388382,0.023069728165864944,0.06580464541912079,8.861908912658691,0.45050105452537537,-3.679471492767334
1403715274937143000,-0.01842990517616272,0.01732608675956726,0.07011689990758896,9.065835952758789,-0.0024625060614198446,-3.7361841201782227
1403715274942143000,-0.012073278427124023,0.009587638080120087,0.07016566395759583,9.090470314025879,-0.08488110452890396,-3.6883983612060547
1403715274947143000,-0.0029192157089710236,0.020851559937000275,0.08060658723115921,9.008343696594238,0.1634664386510849,-3.695178508758545
1403715274952143000,-0.004378087818622589,0.015304800122976303,0.09171018749475479,9.001039505004883,0.13909485936164856,-3.6962575912475586
1403715274957143000,-0.0007135048508644104,0.023644424974918365,0.0872219130396843,9.253396987915039,-0.1012033224105835,-3.795098304748535
1403715274962143000,0.0042729564011096954,0.027146674692630768,0.086434505879879,9.194934844970703,-0.0033148364163935184,-3.7223191261291504
1403715274967143000,-0.002878692001104355,0.021547138690948486,0.06852264702320099,8.959314346313477,0.12365362793207169,-3.564971446990967
1403715274972143000,-0.003597669303417206,0.010968301445245743,0.07074478268623352,8.927762031555176,0.15660394728183746,-3.604555130004883
1403715274977143000,0.00203913077712059,0.006768912076950073,0.06593811511993408,9.098819732666016,-0.14008179306983948,-3.7692291736602783
1403715274982143000,0.014702919870615005,0.019491638988256454,0.07844769209623337,9.268951416015625,0.014179357327520847,-3.762737512588501
1403715274987143000,0.013095855712890625,0.023770932108163834,0.08189254254102707,9.130410194396973,0.18079055845737457,-3.729055643081665
1403715274992143000,0.003206975758075714,0.022292710840702057,0.09076756983995438,8.967567443847656,0.44208934903144836,-3.850808620452881
1403715274997143000,-0.014227943494915962,0.0277816504240036,0.08650904893875122,9.309883117675781,0.2683826684951782,-3.8441076278686523
1403715275002143000,-0.018402166664600372,0.041075199842453,0.08105695992708206,8.950480461120605,0.046174801886081696,-3.5490705966949463
1403715275007143000,-0.016248326748609543,0.020079486072063446,0.0749443918466568,8.853988647460938,-0.12425439804792404,-3.5877673625946045
1403715275012143000,-0.007746484130620956,0.0068190135061740875,0.07926170527935028,8.806556701660156,-0.08237983286380768,-3.621410608291626
1403715275017143000,0.006346970796585083,0.009665794670581818,0.08059824258089066,9.156072616577148,-0.17240886390209198,-3.696012496948242
1403715275022143000,0.019636616110801697,0.022977329790592194,0.08041974902153015,9.195722579956055,-0.059657491743564606,-3.7385241985321045
1403715275027143000,0.02023693174123764,0.022932477295398712,0.06833866983652115,9.220264434814453,0.1706928014755249,-3.754286289215088
1403715275032143000,0.013875499367713928,0.0383341982960701,0.07247645407915115,9.179327011108398,0.49073830246925354,-3.7613680362701416
1403715275037143000,-0.007283968850970268,0.034211017191410065,0.07130317389965057,8.942639350891113,0.4089621305465698,-3.6952970027923584
1403715275042143000,-0.01844905875623226,0.032567836344242096,0.0665329247713089,9.000521659851074,0.22680912911891937,-3.6456105709075928
1403715275047143000,-0.021250126883387566,0.02136346325278282,0.08282430469989777,8.829916954040527,0.11252999305725098,-3.547128200531006
1403715275052143000,-0.010612789541482925,0.010401181876659393,0.08557702600955963,8.976975440979004,-0.017152702435851097,-3.555453300476074
1403715275057143000,-0.005668845027685165,0.009083673357963562,0.08451694995164871,9.156129837036133,-0.07509014755487442,-3.6630258560180664
1403715275062143000,0.004169713705778122,0.01734631136059761,0.07111608237028122,9.179606437683105,-0.035096097737550735,-3.656054735183716
1403715275067143000,0.009843405336141586,0.01940304785966873,0.06771059334278107,9.358478546142578,0.06399359554052353,-3.794956922531128
1403715275072143000,0.009802475571632385,0.03133945167064667,0.07913956791162491,9.03184700012207,0.33444830775260925,-3.6559903621673584
1403715275077143000,-9.362027049064636e-05,0.02919890359044075,0.07561582326889038,9.073199272155762,0.3597011864185333,-3.702515125274658
1403715275082143000,-0.010011212900280952,0.023571498692035675,0.0805279091000557,8.9028902053833,0.21184518933296204,-3.5482161045074463
1403715275087143000,-0.006445612758398056,0.022883571684360504,0.0812339335680008,9.033514022827148,-0.03406785801053047,-3.595726251602173
1403715275092143000,0.004085205495357513,0.014567039906978607,0.10063329339027405,8.960175514221191,0.05610394850373268,-3.6217963695526123
1403715275097143000,-0.0037443414330482483,0.012557249516248703,0.08306548744440079,8.927694320678711,0.2045375406742096,-3.64597225189209
1403715275102143000,-0.00155659019947052,0.00823146104812622,0.08452686667442322,9.269652366638184,0.1545194536447525,-3.7456419467926025
1403715275107143000,-0.006459150463342667,0.012446075677871704,0.06587102264165878,9.130163192749023,-0.02661087177693844,-3.7545278072357178
1403715275112143000,0.0007396936416625977,0.022252090275287628,0.07195593416690826,9.170719146728516,0.2921437621116638,-3.8192992210388184
1403715275117143000,-0.005038280040025711,0.02229396253824234,0.07068285346031189,8.894871711730957,0.12403704226016998,-3.5739543437957764
1403715275122143000,-0.00985671952366829,0.02017194777727127,0.06579730659723282,9.212481498718262,0.12963461875915527,-3.825131416320801
1403715275127143000,-0.004989825189113617,0.02364680916070938,0.07923603057861328,9.024795532226562,-0.15706680715084076,-3.599848508834839
1403715275132143000,0.004161112010478973,0.020125262439250946,0.08465610444545746,9.065539360046387,0.08048888295888901,-3.710655450820923
1403715275137143000,0.0075861141085624695,0.013131216168403625,0.08657187968492508,8.984708786010742,0.11535651981830597,-3.6236727237701416
1403715275142143000,0.001249454915523529,0.010357402265071869,0.08034387975931168,9.138656616210938,0.3343253433704376,-3.7601726055145264
1403715275147143000,-0.0022058896720409393,0.019486229866743088,0.06992596387863159,9.252480506896973,0.17880307137966156,-3.812130928039551
1403715275152143000,-0.004347741603851318,0.017400026321411133,0.069237619638443,8.999839782714844,0.17804840207099915,-3.753936767578125
1403715275157143000,-0.005751937627792358,0.02572588250041008,0.07068350911140442,8.992782592773438,0.13854815065860748,-3.6305813789367676
1403715275162143000,-0.012752607464790344,0.015977129340171814,0.07844535261392593,9.065947532653809,0.1954655796289444,-3.735316514968872
1403715275167143000,-0.005628544837236404,0.026405908167362213,0.08409101516008377,9.179370880126953,-0.058210086077451706,-3.7620363235473633
1403715275172143000,0.004172768443822861,0.028491005301475525,0.09300504624843597,9.024642944335938,-0.08441013842821121,-3.6720166206359863
1403715275177143000,0.009710036218166351,0.025025583803653717,0.08656226843595505,8.992819786071777,-0.02527010813355446,-3.5896525382995605
1403715275182143000,0.008286938071250916,0.02084997296333313,0.07742800563573837,9.155473709106445,0.21248699724674225,-3.670351028442383
1403715275187143000,0.008295048028230667,0.017292294651269913,0.07552418857812881,9.073047637939453,0.22874724864959717,-3.744824171066284
1403715275192143000,-0.0029990002512931824,0.021473478525877,0.06305944919586182,9.057558059692383,0.162103071808815,-3.6149940490722656
1403715275197143000,-0.0029602013528347015,0.01663586124777794,0.06928451359272003,9.106792449951172,0.18697021901607513,-3.8012003898620605
1403715275202143000,-0.009291425347328186,0.0244041308760643,0.06795279681682587,9.057531356811523,0.20434653759002686,-3.5985333919525146
1403715275207143000,-0.0105776097625494,0.026507548987865448,0.08467981964349747,9.203876495361328,0.11390400677919388,-3.7920773029327393
1403715275212143000,-0.00999768078327179,0.030627619475126266,0.0825979933142662,8.813035011291504,0.022502977401018143,-3.4681942462921143
1403715275217143000,-0.004292204976081848,0.017920300364494324,0.08312659710645676,9.115253448486328,-0.06703877449035645,-3.6277308464050293
1403715275222143000,0.0070136599242687225,0.02217315137386322,0.08815493434667587,9.008784294128418,0.03989318758249283,-3.5901660919189453
1403715275227143000,0.006229579448699951,0.00969056785106659,0.07344624400138855,8.975777626037598,0.154916450381279,-3.6454715728759766
1403715275232143000,0.001982215791940689,0.015961725264787674,0.07056874781847,9.042054176330566,0.1382792890071869,-3.7046687602996826
1403715275237143000,-0.0015717968344688416,0.013926312327384949,0.06373293697834015,9.041543960571289,0.05605589225888252,-3.67989444732666
1403715275242143000,0.004179410636425018,0.020177148282527924,0.07839631289243698,9.293362617492676,0.15413925051689148,-3.8268988132476807
1403715275247143000,-0.0008927099406719208,0.02368154376745224,0.08402504771947861,8.853248596191406,0.27808547019958496,-3.5574655532836914
1403715275252143000,-0.006483212113380432,0.017963293939828873,0.08805648237466812,9.17174243927002,0.17114493250846863,-3.77571177482605
1403715275257143000,-0.009328421205282211,0.024337418377399445,0.08671815693378448,8.910892486572266,0.006147819105535746,-3.631751775741577
1403715275262143000,-0.001445125788450241,0.025042299181222916,0.0873386487364769,9.220088958740234,0.06332356482744217,-3.686744213104248
1403715275267143000,0.0020120814442634583,0.02229614183306694,0.07963724434375763,8.910923957824707,0.13877706229686737,-3.631136894226074
1403715275272143000,-0.005064025521278381,0.009675320237874985,0.07136710733175278,8.951903343200684,0.18738967180252075,-3.670640230178833
1403715275277143000,0.000642385333776474,0.011697519570589066,0.06518089026212692,9.164095878601074,-0.09152179211378098,-3.7624526023864746
1403715275282143000,0.007000327110290527,0.016618140041828156,0.07562051713466644,9.187137603759766,0.06306920945644379,-3.7463083267211914
1403715275287143000,0.0013195723295211792,0.02996978536248207,0.07128027826547623,9.203656196594238,0.21274112164974213,-3.737257957458496
1403715275292143000,-0.0058181434869766235,0.024426981806755066,0.0880839079618454,8.967625617980957,0.3354908525943756,-3.662865400314331
1403715275297143000,-0.00573468953371048,0.03205227106809616,0.07700122892856598,9.057584762573242,0.0641079992055893,-3.6788413524627686
1403715275302143000,-0.004983223974704742,0.017923422157764435,0.09019188582897186,9.065333366394043,-0.018947957083582878,-3.704073429107666
1403715275307143000,-0.0029253102838993073,0.026295550167560577,0.07830899208784103,9.016676902770996,0.1303333044052124,-3.6466832160949707
1403715275312143000,-0.0015737339854240417,0.010415606200695038,0.07761023938655853,8.86255168914795,0.20489844679832458,-3.6133832931518555
1403715275317143000,-0.0064202286303043365,0.007652111351490021,0.07357066124677658,9.082853317260742,-0.06646205484867096,-3.744926691055298
1403715275322143000,0.002738494426012039,0.016014087945222855,0.071395643055439,9.06551456451416,-0.0685325339436531,-3.721747875213623
1403715275327143000,0.007700785994529724,0.022196590900421143,0.07474576681852341,9.309688568115234,0.18741635978221893,-3.802722930908203
1403715275332143000,0.001303199678659439,0.029233213514089584,0.07831030339002609,9.008085250854492,0.41799870133399963,-3.606505870819092
1403715275337143000,-0.009296303614974022,0.025730062276124954,0.0811505988240242,9.163323402404785,0.09746527671813965,-3.694467306137085
1403715275342143000,-0.006478089839220047,0.03063620626926422,0.07555779814720154,8.943353652954102,-0.027924226596951485,-3.6224746704101562
1403715275347143000,0.002079576253890991,0.02495817095041275,0.0810873880982399,9.122567176818848,0.12150628864765167,-3.6456618309020996
1403715275352143000,0.001973658800125122,0.0215022973716259,0.08119718730449677,8.878520965576172,0.2300567477941513,-3.605285167694092
1403715275357143000,-0.0037274137139320374,0.011127106845378876,0.06785853207111359,8.927916526794434,0.13805890083312988,-3.621436595916748
1403715275362143000,-0.005773968994617462,0.00409124419093132,0.0685429722070694,9.090919494628906,-0.060191575437784195,-3.7206788063049316
1403715275367143000,0.0020619407296180725,0.015195991843938828,0.07492636889219284,9.154979705810547,0.04749195650219917,-3.7295167446136475
1403715275372143000,0.006308399140834808,0.021530024707317352,0.0818147361278534,9.244180679321289,0.3354354500770569,-3.8024895191192627
1403715275377143000,-0.005747392773628235,0.030039314180612564,0.08250468969345093,9.008187294006348,0.2945939898490906,-3.680030584335327
1403715275382143000,-0.013469832018017769,0.027182888239622116,0.08114349097013474,9.114347457885742,0.07124163955450058,-3.719764471054077
1403715275387143000,-0.0056901611387729645,0.024951141327619553,0.08533938974142075,9.04090404510498,0.022127849981188774,-3.655313491821289
1403715275392143000,0.0020592734217643738,0.02844846248626709,0.08315359055995941,8.967737197875977,0.09017865359783173,-3.6376430988311768
1403715275397143000,-0.0022105872631073,0.021543491631746292,0.07407145202159882,9.07458209991455,0.16369320452213287,-3.6467981338500977
1403715275402143000,-0.004384137690067291,0.01323612779378891,0.06868590414524078,8.976447105407715,-0.017778625711798668,-3.605985641479492
1403715275407143000,0.002048756927251816,0.015276197344064713,0.06791257858276367,9.13090991973877,-0.026752125471830368,-3.7695977687835693
1403715275412143000,0.009111933410167694,0.017973240464925766,0.08035808801651001,9.179326057434082,0.25283312797546387,-3.8281192779541016
1403715275417143000,-0.0015435963869094849,0.030581034719944,0.07268806546926498,9.162727355957031,0.36074110865592957,-3.712946891784668
1403715275422143000,-0.01561022736132145,0.02717016637325287,0.07975947856903076,9.130433082580566,0.21978312730789185,-3.7201015949249268
1403715275427143000,-0.016957499086856842,0.03138629347085953,0.07422856986522675,8.99232292175293,-0.026961103081703186,-3.6303017139434814
1403715275432143000,-0.0063296034932136536,0.0278027281165123,0.07615194469690323,9.02514934539795,0.023260775953531265,-3.6782188415527344
1403715275437143000,-0.0014919005334377289,0.02073332667350769,0.07909698039293289,8.919464111328125,0.08226285129785538,-3.4913883209228516
1403715275442143000,-0.0029160939157009125,0.015248563140630722,0.06938456743955612,9.009289741516113,0.023905910551548004,-3.6694960594177246
1403715275447143000,0.002716831862926483,0.011827163398265839,0.07212226837873459,8.992960929870605,-0.02670680545270443,-3.664376974105835
1403715275452143000,0.01188793033361435,0.011770281940698624,0.07901397347450256,9.130816459655762,0.11309639364480972,-3.7614333629608154
1403715275457143000,0.002712476998567581,0.02008555829524994,0.07890855520963669,9.358525276184082,0.23750422894954681,-3.795628786087036
1403715275462143000,-0.004389327019453049,0.03137090057134628,0.07759525626897812,8.999406814575195,0.34300729632377625,-3.64670729637146
1403715275467143000,-0.01348043791949749,0.024389106780290604,0.0783805325627327,9.073752403259277,0.14590561389923096,-3.711134910583496
1403715275472143000,-0.011331290006637573,0.02639913558959961,0.08750654757022858,8.943596839904785,0.0635436475276947,-3.646552562713623
1403715275477143000,-0.007848847657442093,0.027086276561021805,0.0825440064072609,9.024877548217773,0.007411072496324778,-3.6375837326049805
1403715275482143000,-0.002202380448579788,0.013811565935611725,0.08392348885536194,9.09884262084961,-0.03324663266539574,-3.589884042739868
1403715275487143000,0.0013108029961585999,0.012468677014112473,0.07704300433397293,8.911123275756836,-0.0586613230407238,-3.629952907562256
1403715275492143000,0.009761106222867966,0.004067927598953247,0.07476967573165894,9.147567749023438,0.006454717833548784,-3.704864740371704
1403715275497143000,0.013285793364048004,0.018749285489320755,0.08029372990131378,9.219863891601562,0.27726560831069946,-3.76202392578125
1403715275502143000,0.0005501396954059601,0.020845208317041397,0.06923109292984009,9.186800956726074,0.2863888144493103,-3.704878330230713
1403715275507143000,-0.008564246818423271,0.02925633266568184,0.07625503838062286,9.114145278930664,0.37476494908332825,-3.8097853660583496
1403715275512143000,-0.012811224907636642,0.03143560141324997,0.07282258570194244,8.902867317199707,0.1705811768770218,-3.6306915283203125
1403715275517143000,-0.008492760360240936,0.029905229806900024,0.07829057425260544,9.000798225402832,0.08034610003232956,-3.726771354675293
1403715275522143000,-0.0057687461376190186,0.02146884799003601,0.08123096823692322,8.837995529174805,0.023300355300307274,-3.5653536319732666
1403715275527143000,-0.001503918319940567,0.019422784447669983,0.07560831308364868,9.058427810668945,-0.05025097355246544,-3.6781861782073975
1403715275532143000,0.0033887624740600586,0.011121630668640137,0.07908808439970016,8.878862380981445,-0.050581738352775574,-3.615288496017456
1403715275537143000,0.01187395304441452,0.006847009062767029,0.0726851224899292,9.114782333374023,0.06394987553358078,-3.7694504261016846
1403715275542143000,0.013290256261825562,0.02077816054224968,0.08453957736492157,9.220017433166504,0.31025633215904236,-3.7549562454223633
1403715275547143000,0.0012436285614967346,0.02368568629026413,0.07557276636362076,9.072732925415039,0.3433588743209839,-3.720472812652588
1403715275552143000,-0.012813087552785873,0.029262833297252655,0.0768704041838646,9.130518913269043,0.3504135012626648,-3.736867904663086
1403715275557143000,-0.015621164813637733,0.028529886156320572,0.08467785269021988,8.95962142944336,0.16249525547027588,-3.6381046772003174
1403715275562143000,-0.013428203761577606,0.025026962161064148,0.07763825356960297,9.00858211517334,-0.009130769409239292,-3.719310998916626
1403715275567143000,-0.003582306206226349,0.018721647560596466,0.08182160556316376,8.894991874694824,-0.025838498026132584,-3.5981574058532715
1403715275572143000,0.002040356397628784,0.013121291995048523,0.07913706451654434,9.041747093200684,-0.04186859354376793,-3.670522451400757
1403715275577143000,0.010459735989570618,0.010410364717245102,0.07906509935855865,9.016914367675781,-0.0011989421909675002,-3.680572986602783
1403715275582143000,0.010403376072645187,0.009708687663078308,0.07546939700841904,9.04095458984375,0.09691246598958969,-3.769845485687256
1403715275587143000,0.009752586483955383,0.01797560229897499,0.07892891764640808,9.293451309204102,0.2775038480758667,-3.7956490516662598
1403715275592143000,-0.0022518709301948547,0.023652561008930206,0.07345691323280334,9.12170696258545,0.31073829531669617,-3.712705612182617
1403715275597143000,-0.015600685030221939,0.027888089418411255,0.07552798837423325,9.105712890625,0.28532540798187256,-3.736358165740967
1403715275602143000,-0.012751411646604538,0.029940403997898102,0.0776459351181984,9.106592178344727,0.08890186995267868,-3.6876425743103027
1403715275607143000,-0.010675815865397453,0.012443497776985168,0.07561884820461273,8.902372360229492,0.006973717827349901,-3.6296937465667725
1403715275612143000,-0.003591671586036682,0.015184096992015839,0.08050210773944855,9.033592224121094,-0.03370126709342003,-3.6056480407714844
1403715275617143000,0.0005779005587100983,0.011783108115196228,0.07909906655550003,8.984731674194336,-0.09905533492565155,-3.6301021575927734
1403715275622143000,0.0076580531895160675,0.009719446301460266,0.07483000308275223,9.041375160217285,-0.08324068039655685,-3.671839714050293
1403715275627143000,0.01613134890794754,0.010362841188907623,0.07546578347682953,9.22876262664795,0.08058955520391464,-3.7622039318084717
1403715275632143000,0.005494937300682068,0.024334996938705444,0.08040270209312439,9.121759414672852,0.37603673338890076,-3.7211153507232666
1403715275637143000,-0.004394195973873138,0.026449505239725113,0.07835841923952103,9.056999206542969,0.3109167814254761,-3.687265157699585
1403715275642143000,-0.011395880952477455,0.02780142053961754,0.0754990428686142,9.065730094909668,0.2600678503513336,-3.7116103172302246
1403715275647143000,-0.012048324570059776,0.03416059911251068,0.07904522866010666,9.016708374023438,0.07228074967861176,-3.719703435897827
1403715275652143000,-0.00930391252040863,0.02370568737387657,0.07982153445482254,8.862401008605957,0.007341607473790646,-3.507471799850464
1403715275657143000,-0.0015123970806598663,0.02216533198952675,0.0832609087228775,8.952619552612305,-0.0012720947852358222,-3.5713353157043457
1403715275662143000,0.006240669637918472,0.013055555522441864,0.07768326252698898,9.01749038696289,-0.1567898839712143,-3.622377872467041
1403715275667143000,0.01396377757191658,0.004725463688373566,0.07132172584533691,9.16342544555664,-0.010231148451566696,-3.6801271438598633
1403715275672143000,0.011823657900094986,0.017344653606414795,0.07264004647731781,9.154864311218262,0.24453675746917725,-3.7785799503326416
1403715275677143000,0.005481816828250885,0.023650798946619034,0.07758500427007675,9.11398696899414,0.3683166801929474,-3.68854022026062
1403715275682143000,-0.005058564245700836,0.025090090930461884,0.07627446949481964,9.162869453430176,0.3095579147338867,-3.744217872619629
1403715275687143000,-0.014894591644406319,0.026429463177919388,0.07418329268693924,9.187265396118164,0.21084381639957428,-3.7043583393096924
1403715275692143000,-0.012789629399776459,0.032714858651161194,0.07978260517120361,8.91869831085205,0.03206315264105797,-3.6457409858703613
1403715275697143000,-0.009956087917089462,0.022943496704101562,0.07693938910961151,8.89541244506836,0.007145733572542667,-3.5643045902252197
1403715275702143000,-0.0007588006556034088,0.01589423418045044,0.07691201567649841,9.066611289978027,-0.10751873254776001,-3.6214921474456787
1403715275707143000,0.01117229089140892,0.013874158263206482,0.07703613489866257,9.016575813293457,-0.07532252371311188,-3.6716647148132324
1403715275712143000,0.014688916504383087,0.010381430387496948,0.0734865814447403,9.147221565246582,0.06417933851480484,-3.7786967754364014
1403715275717143000,0.013921055942773819,0.02009940892457962,0.08316893130540848,9.00031852722168,0.302168607711792,-3.738089084625244
1403715275722143000,0.0005102790892124176,0.023643583059310913,0.07685040682554245,9.106045722961426,0.32698214054107666,-3.7367923259735107
1403715275727143000,-0.010656870901584625,0.022271778434515,0.07965312898159027,9.276884078979492,0.3337956368923187,-3.8024332523345947
1403715275732143000,-0.016975507140159607,0.030601896345615387,0.07977228611707687,9.129948616027832,0.2687393128871918,-3.6552629470825195
1403715275737143000,-0.01699317991733551,0.027127452194690704,0.07765933871269226,8.886513710021973,0.03208046779036522,-3.6372904777526855
1403715275742143000,-0.01063481718301773,0.015263929963111877,0.07979022711515427,8.895495414733887,-0.050801005214452744,-3.597353935241699
1403715275747143000,-3.8836151361465454e-05,0.012425482273101807,0.07842797040939331,9.131319999694824,-0.19779616594314575,-3.6790735721588135
1403715275752143000,0.008402030915021896,0.012478351593017578,0.07906436920166016,9.02442741394043,0.02310187555849552,-3.7295467853546143
1403715275757143000,0.011890564113855362,0.020195044577121735,0.06915624439716339,9.08232307434082,0.15491999685764313,-3.770563840866089
1403715275762143000,0.01184520497918129,0.02085031569004059,0.07472106069326401,9.049593925476074,0.31832462549209595,-3.6885554790496826
1403715275767143000,-0.002250470221042633,0.02013513445854187,0.07767991721630096,9.146388053894043,0.32629409432411194,-3.7281088829040527
1403715275772143000,-0.010646767914295197,0.02778821811079979,0.08045952767133713,9.26852035522461,0.31799259781837463,-3.728705406188965
1403715275777143000,-0.01705879159271717,0.02711135521531105,0.0804906040430069,8.894110679626465,0.17133811116218567,-3.5969367027282715
1403715275782143000,-0.014849761500954628,0.02085127681493759,0.08538148552179337,8.992887496948242,0.023195745423436165,-3.7355239391326904
1403715275787143000,-0.014177290722727776,0.013214539736509323,0.07623578608036041,8.976761817932129,-0.05869424343109131,-3.5330617427825928
1403715275792143000,-0.001419123262166977,0.014538481831550598,0.07825217396020889,9.18773078918457,-0.09127877652645111,-3.694530963897705
1403715275797143000,0.007718510925769806,0.012422613799571991,0.07421096414327621,9.049338340759277,-0.09085434675216675,-3.7385637760162354
1403715275802143000,0.012613337486982346,0.017333965748548508,0.07208481431007385,9.065765380859375,0.1623673290014267,-3.7454004287719727
1403715275807143000,0.015367589890956879,0.026492517441511154,0.07760895788669586,9.098089218139648,0.28618013858795166,-3.6964786052703857
1403715275812143000,-0.0036587417125701904,0.02294830232858658,0.08598313480615616,9.186728477478027,0.4899158775806427,-3.7279675006866455
1403715275817143000,-0.014179687947034836,0.0361432209610939,0.08319973945617676,9.211610794067383,0.2938438951969147,-3.736551523208618
1403715275822143000,-0.019870493561029434,0.029224541038274765,0.07478512078523636,8.976095199584961,0.05597710236907005,-3.5975868701934814
1403715275827143000,-0.011997060850262642,0.028571508824825287,0.0776258334517479,8.935772895812988,-0.017973046749830246,-3.7026259899139404
1403715275832143000,-0.004295457154512405,0.01943570375442505,0.0721426010131836,8.952354431152344,-0.04973820969462395,-3.5488505363464355
1403715275837143000,0.0062909722328186035,0.020059805363416672,0.07416932284832001,9.21253490447998,-0.12370194494724274,-3.8175418376922607
1403715275842143000,0.015402588993310928,0.022903840988874435,0.07352863997220993,9.171463966369629,-0.07569259405136108,-3.756237030029297
1403715275847143000,0.016779229044914246,0.03411558270454407,0.07416053116321564,9.187712669372559,0.0809890627861023,-3.8188374042510986
1403715275852143000,0.013195745646953583,0.034125275909900665,0.08521518111228943,8.975452423095703,0.4741708040237427,-3.6804637908935547
1403715275857143000,-0.007882252335548401,0.02984008938074112,0.07534921914339066,9.293253898620605,0.3847818374633789,-3.8172779083251953
1403715275862143000,-0.0163310207426548,0.03681758791208267,0.08182366192340851,8.967063903808594,0.2926572859287262,-3.598320484161377
1403715275867143000,-0.020581774413585663,0.02640494704246521,0.07854688167572021,8.911311149597168,-0.13215243816375732,-3.6122941970825195
1403715275872143000,-0.014143645763397217,0.018041059374809265,0.07698246091604233,8.993885040283203,-0.10767798125743866,-3.605889081954956
1403715275877143000,0.006299950182437897,0.01733926683664322,0.07976242899894714,9.06597900390625,-0.14755478501319885,-3.6297447681427
1403715275882143000,0.013359081000089645,0.019414473325014114,0.07483453303575516,9.383399963378906,-0.09959893673658371,-3.8034262657165527
1403715275887143000,0.020319748669862747,0.03341154754161835,0.08109746873378754,9.064846992492676,0.21052512526512146,-3.7139127254486084
1403715275892143000,0.00822542980313301,0.029212433844804764,0.07615380734205246,9.024557113647461,0.3921716809272766,-3.711519956588745
1403715275897143000,-0.007845629006624222,0.03339460492134094,0.07678667455911636,9.220357894897461,0.4007416069507599,-3.777435302734375
1403715275902143000,-0.01772107370197773,0.02713095024228096,0.07348611950874329,8.893692970275879,0.2764822840690613,-3.637868642807007
1403715275907143000,-0.016232242807745934,0.022119663655757904,0.07633065432310104,9.123533248901367,-0.14835666120052338,-3.7113943099975586
1403715275912143000,-0.007805509492754936,0.01944023370742798,0.07353368401527405,9.042366027832031,-0.27164289355278015,-3.6556293964385986
1403715275917143000,0.009849712252616882,0.025796346366405487,0.06919532269239426,9.424141883850098,-0.0749398022890091,-3.8838889598846436
1403715275922143000,0.019031040370464325,0.05162522941827774,0.0768430083990097,9.643094062805176,0.26924750208854675,-3.919588804244995
1403715275927143000,0.002749260514974594,0.08594264835119247,0.06985530257225037,9.218283653259277,0.4159902036190033,-4.008042335510254
1403715275932143000,-0.0178353451192379,0.07190632820129395,0.06292320042848587,8.609338760375977,0.2356368750333786,-3.566418409347534
1403715275937143000,-0.019757170230150223,0.050627633929252625,0.07425891607999802,8.725112915039062,0.21928070485591888,-3.5365185737609863
1403715275942143000,-0.014714885503053665,0.035868704319000244,0.07648216187953949,8.732659339904785,-0.13055559992790222,-3.5956857204437256
1403715275947143000,9.166821837425232e-05,0.023374509066343307,0.09307553619146347,9.083131790161133,0.16174189746379852,-3.7360072135925293
1403715275952143000,0.004837442189455032,0.04186571389436722,0.08884675800800323,9.099861145019531,0.09747698903083801,-3.6648242473602295
1403715275957143000,0.0011803098022937775,0.035787224769592285,0.07613687217235565,8.952132225036621,0.007031797431409359,-3.5325183868408203
1403715275962143000,0.0032385140657424927,0.02225973829627037,0.06631302088499069,8.870307922363281,0.09609245508909225,-3.3510758876800537
1403715275967143000,0.006856516003608704,0.006390891969203949,0.07273747771978378,9.114601135253906,-0.12263133376836777,-3.521693229675293
1403715275972143000,0.014063302427530289,0.012703508138656616,0.08273690193891525,9.21985912322998,0.1951615959405899,-3.6383862495422363
1403715275977143000,0.004889126867055893,0.0314328595995903,0.0855000838637352,9.472433090209961,0.4078332781791687,-3.7201480865478516
1403715275982143000,-0.013544347137212753,0.049300119280815125,0.07614289969205856,9.374679565429688,0.13931919634342194,-3.810650110244751
1403715275987143000,-0.016541799530386925,0.02960224822163582,0.0711822360754013,8.567626953125,0.06304159760475159,-3.3846595287323
1403715275992143000,-0.003604903817176819,0.017761819064617157,0.0767957866191864,9.254168510437012,-0.18090017139911652,-3.5534939765930176
1403715275997143000,0.010582596063613892,0.031635627150535583,0.09318704158067703,8.934462547302246,0.12216498702764511,-3.6703436374664307
1403715276002143000,0.007055763155221939,0.02066405862569809,0.10590387135744095,9.276129722595215,0.5873627662658691,-3.8182079792022705
1403715276007143000,-0.02404852956533432,0.037845127284526825,0.08884549140930176,9.115199089050293,0.538944661617279,-3.681114435195923
1403715276012143000,-0.040391430258750916,-0.005376905202865601,0.07459457963705063,8.429487228393555,-0.1653611660003662,-3.5479233264923096
1403715276017143000,-0.027297675609588623,-0.0031805429607629776,0.06261607259511948,9.393523216247559,-0.32274261116981506,-3.704724073410034
1403715276022143000,0.008019868284463882,0.013508729636669159,0.07210271060466766,9.342572212219238,-0.5142146944999695,-3.665029525756836
1403715276027143000,0.03459952771663666,0.04330716282129288,0.05557592213153839,9.113527297973633,-0.17143186926841736,-3.7049922943115234
1403715276032143000,0.03337930142879486,0.021997593343257904,0.04705153405666351,8.660470962524414,0.17900384962558746,-3.46724009513855
1403715276037143000,0.02407468855381012,0.010399680584669113,0.06359019130468369,8.757192611694336,0.6535387635231018,-3.618730306625366
1403715276042143000,0.005836673080921173,0.0016385018825531006,0.07950792461633682,8.788203239440918,0.9159525036811829,-3.5886833667755127
1403715276047143000,-0.026910047978162766,0.0241033136844635,0.08518542349338531,9.399867057800293,0.4982117712497711,-3.8667752742767334
1403715276052143000,-0.04317573830485344,0.016974743455648422,0.08147034049034119,8.438698768615723,-0.0026575515512377024,-3.2645668983459473
1403715276057143000,-0.0204576775431633,-0.031284064054489136,0.09405305981636047,8.7499418258667,-0.2161744236946106,-3.2910377979278564
1403715276062143000,0.0006914027035236359,-0.01411294937133789,0.09721898287534714,8.822235107421875,-0.15646055340766907,-3.464980363845825
1403715276067143000,0.01187189295887947,-0.03685043752193451,0.10607060045003891,9.349150657653809,0.12101616710424423,-3.7773334980010986
1403715276072143000,0.01039179041981697,0.006069518625736237,0.07409143447875977,9.35034465789795,0.0065357740968465805,-3.7736308574676514
1403715276077143000,0.00620245561003685,-0.0016414262354373932,0.06145034730434418,8.83712387084961,0.17782042920589447,-3.615285873413086
1403715276082143000,-0.0006440281867980957,0.0030555501580238342,0.07534538954496384,9.407735824584961,0.2945078909397125,-3.8097755908966064
1403715276087143000,-0.0007032305002212524,0.013107627630233765,0.08740374445915222,9.16899299621582,0.32009854912757874,-3.8110592365264893
1403715276092143000,-0.006423231214284897,0.054222770035266876,0.0659065693616867,8.982635498046875,-0.1307986080646515,-3.745511054992676
1403715276097143000,0.006074968725442886,0.010502036660909653,0.07571771740913391,8.659440040588379,-0.010448556393384933,-3.516333818435669
1403715276102143000,-0.004490308463573456,0.0006807483732700348,0.057907454669475555,9.21345329284668,0.148152157664299,-3.9883484840393066
1403715276107143000,-0.01225098967552185,0.010387405753135681,0.07938417047262192,8.74677848815918,0.6220090389251709,-3.756460428237915
1403715276112143000,-0.025347387418150902,0.02288801223039627,0.07778193056583405,9.359113693237305,0.17906111478805542,-3.9829840660095215
1403715276117143000,-0.018354417756199837,0.032068267464637756,0.08105263859033585,8.519791603088379,-0.4207724928855896,-3.2591168880462646
1403715276122143000,0.009356506168842316,-0.012735448777675629,0.08200061321258545,9.163536071777344,-0.31381475925445557,-3.9857842922210693
1403715276127143000,0.020461391657590866,0.02361302822828293,0.07858194410800934,9.049356460571289,0.3530248701572418,-3.6518211364746094
1403715276132143000,0.013272061944007874,0.019897833466529846,0.08983002603054047,9.324544906616211,0.5006087422370911,-4.020754814147949
1403715276137143000,-0.005286838859319687,0.060636430978775024,0.0827721431851387,8.902888298034668,0.029662517830729485,-3.545866012573242
1403715276142143000,0.0003955662250518799,0.012834537774324417,0.0806175246834755,8.788980484008789,-0.08558739721775055,-3.454953670501709
1403715276147143000,0.003501627594232559,0.020122334361076355,0.08527828752994537,9.522250175476074,0.09899458289146423,-3.825655698776245
1403715276152143000,0.0019516423344612122,0.024074122309684753,0.09362635761499405,8.696889877319336,0.4514882266521454,-3.630462646484375
1403715276157143000,-0.011999908834695816,0.04569246619939804,0.07599468529224396,9.701471328735352,0.2186642289161682,-4.047429084777832
1403715276162143000,-0.0171610489487648,0.03722473978996277,0.07347050309181213,8.576557159423828,0.17587696015834808,-3.2737038135528564
1403715276167143000,-0.016274090856313705,-0.0034551434218883514,0.05597969889640808,9.244532585144043,0.02369462512433529,-3.7307732105255127
1403715276172143000,-0.007755890488624573,0.01435423269867897,0.06719003617763519,8.84634780883789,0.06613145023584366,-3.5342235565185547
1403715276177143000,0.003021635115146637,-0.0033605918288230896,0.07424439489841461,9.513265609741211,-0.03396375849843025,-3.996215581893921
1403715276182143000,0.004312992095947266,0.043986380100250244,0.06097020208835602,9.220455169677734,-0.01896732859313488,-3.7827563285827637
1403715276187143000,0.0054112449288368225,0.010241299867630005,0.053853508085012436,8.788481712341309,0.23617923259735107,-3.4568753242492676
1403715276192143000,-0.0023695267736911774,0.007018290460109711,0.05933927744626999,9.009750366210938,0.22174060344696045,-3.6279289722442627
1403715276197143000,0.0005611777305603027,-0.005369868129491806,0.08045786619186401,8.99203872680664,0.22854240238666534,-3.6706626415252686
1403715276202143000,0.001456528902053833,0.024684660136699677,0.0904243141412735,9.626935958862305,0.21046720445156097,-3.9255661964416504
1403715276207143000,0.0012233182787895203,0.035897307097911835,0.09328785538673401,8.829023361206055,-0.0004125723207835108,-3.510410785675049
1403715276212143000,-0.0065667591989040375,0.01706678792834282,0.09017175436019897,9.025453567504883,0.08853061497211456,-3.7257018089294434
1403715276217143000,-0.013650525361299515,0.018793508410453796,0.0709710419178009,8.724254608154297,0.11392822861671448,-3.4507720470428467
1403715276222143000,0.0006326399743556976,-0.0019533056765794754,0.09632106125354767,9.089411735534668,0.08917718380689621,-3.6439321041107178
1403715276227143000,0.007130086421966553,0.0323299840092659,0.10596469044685364,9.636170387268066,0.022573186084628105,-3.7886688709259033
1403715276232143000,0.0033761635422706604,0.029542796313762665,0.09186843037605286,8.74691390991211,0.1378103345632553,-3.5648841857910156
1403715276237143000,0.007550783455371857,0.014877468347549438,0.08157441765069962,9.050283432006836,0.1471523940563202,-3.621185064315796
1403715276242143000,0.0032905153930187225,0.022227920591831207,0.06608336418867111,8.773090362548828,0.04029238596558571,-3.6210272312164307
1403715276247143000,0.004749424755573273,-0.0033345166593790054,0.06831270456314087,9.06463623046875,0.24349285662174225,-3.637730598449707
1403715276252143000,0.002094544470310211,0.032475799322128296,0.07986278086900711,9.636308670043945,0.40823832154273987,-3.917239189147949
1403715276257143000,-0.015674475580453873,0.03734389692544937,0.07459061592817307,8.698295593261719,0.38427630066871643,-3.6236791610717773
1403715276262143000,-0.023452134802937508,0.004440728574991226,0.06102490425109863,8.618810653686523,0.18610960245132446,-3.538156032562256
1403715276267143000,-0.016922619193792343,0.015796463936567307,0.0612574964761734,9.271624565124512,-0.1900038719177246,-3.6628575325012207
1403715276272143000,4.326552152633667e-05,0.00029128044843673706,0.05996299907565117,8.974092483520508,-0.10798639059066772,-3.638711929321289
1403715276277143000,0.004371628165245056,0.01580352708697319,0.06516337394714355,9.717985153198242,0.06496745347976685,-3.9101672172546387
1403715276282143000,0.001344788819551468,0.05685758590698242,0.07596190273761749,8.943455696105957,0.2697109282016754,-3.5513360500335693
1403715276287143000,-0.007304545491933823,0.01072671264410019,0.07442265748977661,8.575998306274414,0.10542377084493637,-3.455733060836792
1403715276292143000,-0.007822247222065926,0.0059457942843437195,0.08237318694591522,9.12391471862793,-0.025794420391321182,-3.6703813076019287
1403715276297143000,0.006983622908592224,-0.008320484310388565,0.0914149358868599,9.048060417175293,-0.02449970133602619,-3.6879591941833496
1403715276302143000,0.014851663261651993,0.01787259429693222,0.0943119078874588,9.684514045715332,0.14710399508476257,-4.016119003295898
1403715276307143000,0.003988921642303467,0.049358807504177094,0.08679916709661484,8.788605690002441,0.31853824853897095,-3.6414589881896973
1403715276312143000,-0.011621087789535522,0.009982023388147354,0.09229499846696854,8.991985321044922,0.35013842582702637,-3.644318103790283
1403715276317143000,-0.01711517944931984,0.020716644823551178,0.08601170778274536,9.073904991149902,-0.05811705440282822,-3.6140334606170654
1403715276322143000,-0.009963378310203552,-0.004725858569145203,0.09161923825740814,8.640019416809082,-0.018521714955568314,-3.5961861610412598
1403715276327143000,0.0036534592509269714,-0.009029570966959,0.09720189869403839,9.662313461303711,-0.06617102026939392,-3.8609888553619385
1403715276332143000,0.015622694045305252,0.05334925651550293,0.08665779232978821,9.652153015136719,0.01518514845520258,-3.984865188598633
1403715276337143000,0.0088651143014431,0.03208199143409729,0.06628969311714172,8.712721824645996,0.13709379732608795,-3.47693133354187
1403715276342143000,-0.00240229070186615,0.015225574374198914,0.04938992112874985,9.1732759475708,0.23617339134216309,-3.61960768699646
1403715276347143000,-0.005179215222597122,0.014749795198440552,0.06870626658201218,8.698315620422363,0.16389770805835724,-3.7193379402160645
1403715276352143000,-0.0034781470894813538,-0.006164293736219406,0.06887112557888031,9.431757926940918,0.10493022203445435,-3.851594924926758
1403715276357143000,0.00011282414197921753,0.03288055211305618,0.07421597838401794,9.432968139648438,0.3009425699710846,-3.8779306411743164
1403715276362143000,-0.009340997785329819,0.0417003259062767,0.07421408593654633,8.706748008728027,0.2449553906917572,-3.704056739807129
1403715276367143000,-0.01780046336352825,0.02817370742559433,0.05576150491833687,9.124732971191406,-0.042085226625204086,-3.458406925201416
1403715276372143000,-0.01071980968117714,0.01433643326163292,0.0648522675037384,8.731101989746094,-0.03535303473472595,-3.5374815464019775
1403715276377143000,-0.004240095615386963,-0.0028521493077278137,0.06668947637081146,8.861675262451172,0.00789849366992712,-3.727893590927124
1403715276382143000,0.00014190375804901123,0.012984849512577057,0.09207170456647873,9.532206535339355,-0.00017014196782838553,-3.853174924850464
1403715276387143000,0.005662083625793457,0.035278305411338806,0.08973946422338486,9.203089714050293,0.14519573748111725,-3.747016429901123
1403715276392143000,0.004078790545463562,0.031731873750686646,0.08710306137800217,8.975374221801758,0.12998613715171814,-3.540515899658203
1403715276397143000,0.003994695842266083,0.029211226850748062,0.08852895349264145,8.935811996459961,0.1060766950249672,-3.4646222591400146
1403715276402143000,0.0010837018489837646,0.0015374012291431427,0.07332713901996613,8.706453323364258,-0.04129529371857643,-3.5707879066467285
1403715276407143000,0.0061869435012340546,-0.004760561510920525,0.07694341987371445,9.06636905670166,0.13793455064296722,-3.71172833442688
1403715276412143000,0.00840652734041214,0.021648898720741272,0.0891176238656044,9.465529441833496,0.22832253575325012,-3.8929123878479004
1403715276417143000,0.0012019835412502289,0.030465170741081238,0.0889817625284195,9.097233772277832,0.1787983477115631,-3.8450307846069336
1403715276422143000,-0.014335265383124352,0.03444276005029678,0.0781162679195404,9.041033744812012,0.2757282555103302,-3.5820720195770264
1403715276427143000,-0.014191340655088425,0.029749903827905655,0.07246506214141846,9.016589164733887,0.15433236956596375,-3.5793509483337402
1403715276432143000,-0.006471570581197739,0.009247306734323502,0.07494544982910156,8.657453536987305,-0.2869279682636261,-3.3842287063598633
1403715276437143000,0.0007416084408760071,-0.0004387311637401581,0.055319808423519135,9.344393730163574,-0.24018113315105438,-3.8250534534454346
1403715276442143000,0.020436596125364304,0.019582774490118027,0.0714201033115387,9.20451831817627,0.15456737577915192,-3.8378472328186035
1403715276447143000,0.01962808519601822,0.02687375620007515,0.08489881455898285,9.235541343688965,0.4993461072444916,-3.9420766830444336
1403715276452143000,-0.004447009414434433,0.042035117745399475,0.07194609940052032,9.138707160949707,0.48933520913124084,-3.690345287322998
1403715276457143000,-0.025689199566841125,0.025601327419281006,0.07384137809276581,8.68988037109375,0.3165993094444275,-3.5627191066741943
1403715276462143000,-0.020510636270046234,0.015596561133861542,0.07563214749097824,8.879033088684082,-0.29495158791542053,-3.5067436695098877
1403715276467143000,-0.0012354888021945953,0.0058829039335250854,0.07565668225288391,9.344090461730957,-0.3290119469165802,-3.793130397796631
1403715276472143000,0.017638586461544037,0.015292413532733917,0.08043930679559708,9.227991104125977,0.06440103054046631,-3.8532462120056152
1403715276477143000,0.015492964535951614,0.04909670352935791,0.08528255671262741,9.90431022644043,0.4002651870250702,-4.156139850616455
1403715276482143000,-0.003083638846874237,0.06316420435905457,0.06994727998971939,8.908714294433594,0.3095698058605194,-3.7407939434051514
1403715276487143000,-0.012869952246546745,0.04234880208969116,0.06686637550592422,9.080883979797363,0.16104158759117126,-3.6617431640625
1403715276492143000,-0.0014185532927513123,0.04759523272514343,0.06843601167201996,9.164213180541992,-0.24527046084403992,-3.6544926166534424
1403715276497143000,0.021202698349952698,0.028146617114543915,0.0884045735001564,8.97488784790039,-0.05826094001531601,-3.6941871643066406
1403715276502143000,0.027442149817943573,0.047283828258514404,0.10159291326999664,9.221114158630371,0.6037667393684387,-3.818331241607666
1403715276507143000,-0.0010944753885269165,0.04974496364593506,0.08441099524497986,8.95224380493164,0.7604858875274658,-3.7369027137756348
1403715276512143000,-0.02363566868007183,0.0314897745847702,0.08085102587938309,9.081636428833008,0.20244410634040833,-3.7693333625793457
1403715276517143000,-0.0262143611907959,0.03250594437122345,0.06701499223709106,8.992779731750488,-0.21670056879520416,-3.5497586727142334
1403715276522143000,0.0036030076444149017,0.02526174485683441,0.07913218438625336,8.862245559692383,-0.35220229625701904,-3.3670265674591064
1403715276527143000,0.03178047388792038,0.010061711072921753,0.08993005752563477,9.213685035705566,-0.1877771019935608,-3.571241617202759
1403715276532143000,0.025895334780216217,0.03704854100942612,0.07921317964792252,9.155233383178711,0.40710076689720154,-3.5641729831695557
1403715276537143000,-0.0068575553596019745,0.005006827414035797,0.06749097257852554,8.763583183288574,0.8739069104194641,-3.45599365234375
1403715276542143000,-0.041929762810468674,-9.50843095779419e-05,0.054841723293066025,8.953149795532227,0.4833761751651764,-3.5218517780303955
1403715276547143000,-0.04227719083428383,-0.002299770712852478,0.07634270191192627,8.675019264221191,0.006393472198396921,-3.293597936630249
1403715276552143000,-0.016575906425714493,-0.006558407098054886,0.0865519791841507,9.482804298400879,-0.7371909618377686,-3.7104930877685547
1403715276557143000,0.012895263731479645,0.033686354756355286,0.09206582605838776,8.943314552307129,-0.4429435431957245,-3.5506038665771484
1403715276562143000,0.033562272787094116,0.005725983530282974,0.0713132992386818,8.699151039123535,-0.06462457031011581,-3.497293710708618
1403715276567143000,0.039711520075798035,0.015931129455566406,0.07009200006723404,9.050950050354004,0.35192498564720154,-3.66243314743042
1403715276572143000,0.02271561324596405,0.010228097438812256,0.07447376102209091,8.844358444213867,0.5958317518234253,-3.6053874492645264
1403715276577143000,-0.010867632925510406,0.024913042783737183,0.06926906108856201,9.065306663513184,0.6045052409172058,-3.8670599460601807
1403715276582143000,-0.02059098705649376,0.016887161880731583,0.08790147304534912,8.659520149230957,0.360063374042511,-3.5589776039123535
1403715276587143000,-0.026134831830859184,-0.009027108550071716,0.08287295699119568,8.813958168029785,-0.10816538333892822,-3.6122984886169434
1403715276592143000,-0.012712769210338593,0.0012413561344146729,0.0990511104464531,9.025191307067871,0.11106695979833603,-3.614880084991455
1403715276597143000,-0.014932092279195786,0.015156954526901245,0.08079034835100174,9.268714904785156,-0.008715269155800343,-3.7208361625671387
1403715276602143000,-0.012778989970684052,0.01874624565243721,0.06140381097793579,9.09795093536377,-0.11578363180160522,-3.568084478378296
1403715276607143000,-0.006371974945068359,0.00985843688249588,0.06884949654340744,8.821228981018066,-0.14992931485176086,-3.524305820465088
1403715276612143000,0.010020654648542404,0.009713757783174515,0.07933755964040756,9.147103309631348,-0.008964224718511105,-3.712362766265869
1403715276617143000,0.020577292889356613,0.024156849831342697,0.08116891980171204,9.333395957946777,0.08246567100286484,-3.7382214069366455
1403715276622143000,0.01471981406211853,0.04524928331375122,0.06282821297645569,9.202824592590332,0.1060258001089096,-3.7870538234710693
1403715276627143000,0.0032325685024261475,0.03501814603805542,0.05499633774161339,9.065950393676758,0.261381596326828,-3.6070473194122314
1403715276632143000,-0.0038615353405475616,0.01608136296272278,0.07961826026439667,8.951249122619629,0.352096289396286,-3.7998530864715576
1403715276637143000,-0.013588197529315948,0.019891951233148575,0.08963069319725037,9.03209400177002,0.44142457842826843,-3.7047059535980225
1403715276642143000,-0.01629619114100933,0.04369501769542694,0.08631593734025955,9.06554126739502,-0.07465463131666183,-3.8175768852233887
1403715276647143000,-0.006481088697910309,0.0013039372861385345,0.0786123126745224,8.789022445678711,-0.2652253210544586,-3.53450345993042
1403715276652143000,-0.002059381455183029,-0.0036158282309770584,0.06959562748670578,9.433477401733398,0.07108382135629654,-3.9070792198181152
1403715276657143000,-0.005055148154497147,0.007656589150428772,0.0947994589805603,8.738428115844727,0.4177321195602417,-3.6328697204589844
1403715276662143000,-0.00986551120877266,0.005985841155052185,0.09598030894994736,9.578717231750488,-0.04166675731539726,-3.83528995513916
1403715276667143000,-0.001493297517299652,0.02501838654279709,0.08574476838111877,8.747292518615723,-0.33138230443000793,-3.347517967224121
1403715276672143000,0.02053089439868927,-0.0049086324870586395,0.06489932537078857,9.652365684509277,-0.2794090807437897,-4.019975662231445
1403715276677143000,0.021064605563879013,0.03641290217638016,0.06800134479999542,9.244243621826172,0.38620316982269287,-3.8393125534057617
1403715276682143000,0.006036654114723206,0.023527968674898148,0.07949358224868774,9.031024932861328,0.6714597344398499,-3.849747657775879
1403715276687143000,-0.011545957997441292,0.06408355385065079,0.07653853297233582,9.148124694824219,0.16963817179203033,-3.7386159896850586
1403715276692143000,-0.012297211214900017,0.009937550872564316,0.07527269423007965,8.592784881591797,0.04516337811946869,-3.3257155418395996
1403715276697143000,-0.0062601156532764435,0.018603932112455368,0.06563077867031097,9.56341552734375,0.07327291369438171,-4.076517581939697
1403715276702143000,-0.011335929855704308,0.02209807187318802,0.06675916165113449,8.748055458068848,0.20586952567100525,-3.6837990283966064
1403715276707143000,-0.009059950709342957,0.039612554013729095,0.06836763769388199,9.465256690979004,0.1358640342950821,-3.964247941970825
1403715276712143000,-0.004363350570201874,0.046253494918346405,0.0710982009768486,8.789336204528809,-0.09340327233076096,-3.242013692855835
1403715276717143000,0.007770471274852753,-0.0036681145429611206,0.07933454215526581,9.439370155334473,0.07985757291316986,-3.9188053607940674
1403715276722143000,0.0006258636713027954,0.03527230769395828,0.08527061343193054,8.820697784423828,0.4422125220298767,-3.666745901107788
1403715276727143000,-0.0035240501165390015,0.04087340086698532,0.08997172862291336,9.17187786102295,0.24590912461280823,-3.693464517593384
1403715276732143000,-0.007169963791966438,0.04397156834602356,0.08600566536188126,8.83840560913086,-0.011222407221794128,-3.337301254272461
1403715276737143000,-0.005107592791318893,0.014129392802715302,0.08048947900533676,8.813627243041992,0.05497635155916214,-3.4287569522857666
1403715276742143000,0.005567006766796112,0.03128494322299957,0.09166387468576431,9.270251274108887,0.1322835087776184,-3.7682793140411377
1403715276747143000,0.013287048786878586,0.03662226349115372,0.09235744178295135,9.179079055786133,0.2371552437543869,-3.6481361389160156
1403715276752143000,0.009621094912290573,0.05069166421890259,0.07618670910596848,8.894200325012207,-0.02644297666847706,-3.556253671646118
1403715276757143000,0.0031310468912124634,0.02384127303957939,0.06282918900251389,8.63519287109375,0.3328036963939667,-3.2683095932006836
1403715276762143000,0.004087019711732864,0.016023408621549606,0.07894746959209442,9.318840026855469,0.3278728425502777,-3.7972567081451416
1403715276767143000,-0.008520292118191719,0.024791408330202103,0.0853821337223053,9.056055068969727,0.29413458704948425,-3.9108142852783203
1403715276772143000,-0.01844066195189953,0.0352926105260849,0.08268268406391144,8.894856452941895,0.1121780052781105,-3.4275825023651123
1403715276777143000,-0.021422138437628746,-0.0013152696192264557,0.0646040216088295,8.692992210388184,-0.25476953387260437,-2.917402505874634
1403715276782143000,0.003633663058280945,-0.016924165189266205,0.08529205620288849,9.669111251831055,-0.09116649627685547,-3.69053053855896
1403715276787143000,0.003624729812145233,0.019389767199754715,0.0872739627957344,9.388577461242676,0.1635039895772934,-3.993089199066162
1403715276792143000,-0.010800065472722054,0.019479651004076004,0.07552256435155869,8.76314640045166,0.049849942326545715,-3.396836757659912
1403715276797143000,-0.003008674830198288,-7.479265332221985e-05,0.06811603903770447,9.002717971801758,-0.21448543667793274,-3.3678104877471924
1403715276802143000,0.012732036411762238,-0.010541213676333427,0.07286731898784637,9.42363452911377,0.01484921295195818,-3.5629546642303467
1403715276807143000,0.016365714371204376,0.03133586049079895,0.0849456712603569,9.608023643493652,0.6634498238563538,-4.128252983093262
1403715276812143000,-0.003211807459592819,0.03976556658744812,0.08737969398498535,8.478586196899414,0.3373323976993561,-3.504290819168091
1403715276817143000,-0.013700250536203384,-0.00848577544093132,0.06940288096666336,8.725776672363281,0.03696037456393242,-3.749605417251587
1403715276822143000,-0.004187233746051788,0.009019747376441956,0.07972143590450287,9.70205307006836,0.1596674621105194,-3.812116861343384
1403715276827143000,-0.007699118927121162,0.03212165832519531,0.07454393804073334,9.469202995300293,0.3853991627693176,-4.006120204925537
1403715276832143000,-0.01649605855345726,0.05225998908281326,0.07208705693483353,8.331851959228516,-0.3430822491645813,-3.421610116958618
1403715276837143000,0.0069619230926036835,-0.011442475020885468,0.08010543882846832,8.865941047668457,-0.27641600370407104,-3.6037709712982178
1403715276842143000,0.0220169797539711,0.030586689710617065,0.07915499806404114,10.027076721191406,0.12075049430131912,-3.901975393295288
1403715276847143000,-0.0010583214461803436,0.04833205044269562,0.07047585397958755,8.433869361877441,0.3060561418533325,-3.55712628364563
1403715276852143000,-0.019436273723840714,0.005819592624902725,0.06768465042114258,8.75930404663086,-0.008648902177810669,-3.4919371604919434
1403715276857143000,0.004200819879770279,0.0031172335147857666,0.10237102210521698,9.077381134033203,-0.15901869535446167,-3.450326919555664
1403715276862143000,0.004448845982551575,0.0316704660654068,0.07989878952503204,9.706340789794922,0.0816667377948761,-3.955381155014038
1403715276867143000,-0.014394639059901237,0.03578446805477142,0.06554147601127625,8.632320404052734,0.1824035793542862,-3.5270087718963623
1403715276872143000,-0.015120204538106918,0.006463766098022461,0.06364487111568451,8.856884956359863,-0.049394819885492325,-3.4726409912109375
1403715276877143000,0.01000623032450676,0.028309781104326248,0.10505551844835281,9.898388862609863,-0.4043408930301666,-3.8924813270568848
1403715276882143000,-0.002124302089214325,0.08720584958791733,0.056561220437288284,8.68664836883545,0.24355094134807587,-3.9330227375030518
1403715276887143000,-0.011662205681204796,0.03340260684490204,0.06638538837432861,8.464200019836426,0.10939221829175949,-3.3942959308624268
1403715276892143000,0.014025755226612091,0.0012314729392528534,0.10261856019496918,9.281919479370117,-0.4020281434059143,-3.596233606338501
1403715276897143000,0.019953273236751556,0.07545751333236694,0.0823795422911644,9.584726333618164,-0.03905326500535011,-4.112922668457031
1403715276902143000,-0.003363225609064102,0.04083937406539917,0.06732161343097687,8.118605613708496,0.2955789268016815,-3.395066499710083
1403715276907143000,-0.0019325874745845795,-0.004117997363209724,0.08705056458711624,8.825788497924805,0.1984895020723343,-3.2516133785247803
1403715276912143000,0.013410281389951706,0.02472078800201416,0.12368983030319214,9.506342887878418,0.003522991668432951,-3.58795428276062
1403715276917143000,-0.004266675561666489,0.0464266836643219,0.07446784526109695,9.249241828918457,-0.011603404767811298,-3.866706371307373
1403715276922143000,-0.023092404007911682,-0.00019723176956176758,0.05535459518432617,8.33328628540039,0.4657193124294281,-3.2722294330596924
1403715276927143000,-0.011301234364509583,-0.014049049466848373,0.08999203145503998,9.468488693237305,0.15563666820526123,-3.6190903186798096
1403715276932143000,0.011622939258813858,0.05626698583364487,0.0932454988360405,9.617289543151855,-0.10273639112710953,-4.0314555168151855
1403715276937143000,-0.008674029260873795,0.04881339520215988,0.03437632694840431,8.541272163391113,0.14301830530166626,-3.566427707672119
1403715276942143000,0.0006059072911739349,0.010394416749477386,0.07769664376974106,9.45106315612793,0.6214271187782288,-3.612903356552124
1403715276947143000,0.009342998266220093,0.06752045452594757,0.09374156594276428,9.741728782653809,-0.015338750556111336,-3.9159789085388184
1403715276952143000,-0.003584153950214386,0.06549162417650223,0.0596257820725441,8.58853816986084,0.035050854086875916,-3.761448383331299
1403715276957143000,-0.0037542730569839478,0.0064001381397247314,0.060946427285671234,9.149394035339355,0.06347551941871643,-3.9341681003570557
1403715276962143000,1.1019408702850342e-05,0.05729660391807556,0.0818321704864502,9.58015251159668,0.13279888033866882,-3.657823324203491
1403715276967143000,-0.002938471734523773,0.042412787675857544,0.07954150438308716,8.417874336242676,-0.3274279832839966,-3.6029844284057617
1403715276972143000,-0.010913046076893806,-0.005633443593978882,0.04410061612725258,8.693885803222656,0.06977260112762451,-3.5985910892486572
1403715276977143000,-0.000702541321516037,0.006688181310892105,0.08453547954559326,9.654423713684082,0.5895745754241943,-3.8509225845336914
1403715276982143000,-0.008496060967445374,0.05114211142063141,0.0903913676738739,8.606459617614746,0.354142963886261,-3.475700855255127
1403715276987143000,-0.020509835332632065,0.00039055943489074707,0.06879962980747223,8.87943172454834,0.43811947107315063,-3.65301251411438
1403715276992143000,0.005075350403785706,0.014707855880260468,0.09670218080282211,9.801156997680664,0.3566530644893646,-3.8361127376556396
1403715276997143000,0.007832817733287811,0.0649898573756218,0.08930971473455429,8.96408748626709,0.2782135605812073,-3.6786210536956787
1403715277002143000,0.006800349801778793,0.01848822459578514,0.07338286936283112,8.503192901611328,0.34106242656707764,-3.2529540061950684
1403715277007143000,0.021688707172870636,0.009733699262142181,0.10796743631362915,9.516134262084961,0.6180700659751892,-3.7483937740325928
1403715277012143000,0.009022429585456848,0.05496858060359955,0.09397085756063461,9.177470207214355,0.30966123938560486,-3.6878774166107178
1403715277017143000,-0.008255239576101303,0.006803266704082489,0.07150642573833466,8.151413917541504,0.10342195630073547,-3.3012800216674805
1403715277022143000,-0.002402566373348236,-0.03696621209383011,0.07443629205226898,9.347089767456055,0.27589306235313416,-3.571523427963257
1403715277027143000,-0.0020110011100769043,0.025332383811473846,0.0908532664179802,9.635199546813965,0.17285043001174927,-3.9486851692199707
1403715277032143000,-0.024936944246292114,0.01883527636528015,0.04011300206184387,8.418427467346191,0.008217393420636654,-3.17446231842041
1403715277037143000,-0.013683797791600227,-0.06021172180771828,0.04326511174440384,8.783771514892578,-0.18933825194835663,-3.6513683795928955
1403715277042143000,0.018488086760044098,0.014021448791027069,0.08221545070409775,9.76052474975586,-0.1135670393705368,-3.837827205657959
1403715277047143000,0.010443270206451416,0.032093122601509094,0.06326913088560104,8.287178993225098,0.2966844439506531,-3.5712666511535645
1403715277052143000,-0.008818095549941063,-0.034173384308815,0.0836210772395134,8.83964729309082,0.3617587387561798,-3.5658793449401855
1403715277057143000,0.004390012472867966,0.05041547119617462,0.11834286153316498,10.21739673614502,0.19514429569244385,-4.219799995422363
1403715277062143000,-0.006228100508451462,0.08021511882543564,0.10516143590211868,8.945585250854492,-0.10725104808807373,-3.798340320587158
1403715277067143000,-0.011595770716667175,0.013534396886825562,0.08477450907230377,8.233823776245117,0.39189931750297546,-3.441235065460205
1403715277072143000,0.003499019891023636,0.030954722315073013,0.1137121170759201,9.803175926208496,0.05103674158453941,-3.9729864597320557
1403715277077143000,0.0027055107057094574,0.06977824866771698,0.09291167557239532,8.43364429473877,-0.38635146617889404,-3.6147279739379883
1403715277082143000,0.010193422436714172,-0.01709004119038582,0.04871995002031326,8.43005657196045,0.07717189192771912,-3.507063150405884
1403715277087143000,0.028630748391151428,-0.0016304254531860352,0.09754058718681335,9.526954650878906,0.3940137028694153,-3.8605380058288574
1403715277092143000,0.0018429718911647797,0.05455074459314346,0.06330831348896027,8.664618492126465,0.239117830991745,-3.7370989322662354
1403715277097143000,-0.024307996034622192,-0.008510082960128784,0.03609040752053261,8.641950607299805,0.33884334564208984,-3.2713260650634766
1403715277102143000,-0.002863556146621704,0.001231960952281952,0.08802686631679535,9.736380577087402,0.16201302409172058,-3.547261953353882
1403715277107143000,-0.013896316289901733,0.0682237446308136,0.05712314695119858,9.511299133300781,-0.13016276061534882,-4.046562194824219
1403715277112143000,-0.012776276096701622,0.02653815597295761,0.034202270209789276,8.79490852355957,-0.08353441208600998,-3.4540815353393555
1403715277117143000,0.002751179039478302,0.019072286784648895,0.08174596726894379,9.384613037109375,0.5131555199623108,-3.439399480819702
1403715277122143000,-0.0019722729921340942,0.08002134412527084,0.09078777581453323,9.096869468688965,0.05056075006723404,-3.9051833152770996
1403715277127143000,-0.01712116226553917,0.017978236079216003,0.05743344500660896,8.460570335388184,-0.1910533756017685,-3.5169312953948975
1403715277132143000,-0.0014548376202583313,-0.005525698885321617,0.08065260946750641,9.467437744140625,0.1934223771095276,-3.6380152702331543
1403715277137143000,0.013610169291496277,0.058762580156326294,0.10101309418678284,9.293644905090332,-0.11944318562746048,-3.859565019607544
1403715277142143000,0.002575606107711792,0.019439000636339188,0.0602261908352375,8.248123168945312,-0.2053413689136505,-3.5891172885894775
1403715277147143000,0.006744079291820526,-0.02485443279147148,0.06997661292552948,9.516571044921875,0.380431205034256,-3.606583833694458
1403715277152143000,0.01175323873758316,0.01402081549167633,0.09063232690095901,9.03959846496582,0.13391579687595367,-3.9569318294525146
1403715277157143000,-0.005112290382385254,-0.01363079622387886,0.0583144873380661,8.818135261535645,-0.049351684749126434,-4.238675117492676
1403715277162143000,-0.008520673960447311,0.007575217634439468,0.07968349009752274,9.670308113098145,0.7556896209716797,-4.012601852416992
1403715277167143000,-0.01705104485154152,0.04818195104598999,0.09607532620429993,8.770666122436523,0.044090110808610916,-3.7698709964752197
1403715277172143000,-0.01541866920888424,0.01387915387749672,0.0548931360244751,8.75433349609375,-0.45261383056640625,-4.235430717468262
1403715277177143000,0.012056201696395874,-0.0009110532701015472,0.08137337863445282,9.278820991516113,0.35319727659225464,-4.020646572113037
1403715277182143000,0.01671157032251358,0.056633591651916504,0.10936923325061798,8.58309268951416,0.06160089373588562,-3.7288973331451416
1403715277187143000,-0.00038369372487068176,-0.009492430835962296,0.069520965218544,8.16063404083252,0.2850724160671234,-3.9988343715667725
1403715277192143000,0.01121937483549118,-0.015458246693015099,0.10943196713924408,9.466747283935547,0.7544814348220825,-4.296991348266602
1403715277197143000,-0.012893825769424438,0.06354305893182755,0.11070620268583298,8.835803031921387,-0.16907866299152374,-3.5782134532928467
1403715277202143000,-0.011420508846640587,-0.022129438817501068,0.08244691044092178,8.459110260009766,-0.04375888407230377,-4.308005332946777
1403715277207143000,0.024747684597969055,0.020407039672136307,0.09111328423023224,9.712177276611328,0.16087564826011658,-4.161996364593506
1403715277212143000,0.005292516201734543,0.048751018941402435,0.08345656096935272,8.402727127075195,-0.19302669167518616,-3.3189213275909424
1403715277217143000,0.004522677510976791,-0.02988215535879135,0.05537915229797363,8.901924133300781,0.3147474229335785,-3.6932239532470703
1403715277222143000,0.018892977386713028,0.023238513618707657,0.09349436312913895,9.979395866394043,0.6850610971450806,-3.8360800743103027
1403715277227143000,-0.028611257672309875,0.05047335475683212,0.049893658608198166,7.945586204528809,0.19132281839847565,-3.1443958282470703
1403715277232143000,-0.03193183243274689,-0.04988819733262062,0.044809482991695404,8.554349899291992,0.09416846185922623,-3.667720079421997
1403715277237143000,-0.011628406122326851,0.000765480101108551,0.0895274356007576,10.396796226501465,0.43838152289390564,-3.9758381843566895
1403715277242143000,-0.04079105705022812,0.0482923686504364,0.044309623539447784,8.25261116027832,-0.11075124144554138,-3.284958600997925
1403715277247143000,-0.0246584452688694,-0.04098326340317726,0.05322980880737305,9.09207820892334,-0.355067640542984,-3.6217565536499023
1403715277252143000,0.01572849601507187,0.04275168478488922,0.11504440009593964,10.626032829284668,0.0364345945417881,-3.6981709003448486
1403715277257143000,-0.003697238862514496,0.0919087827205658,0.07739414274692535,7.433567523956299,-0.15147967636585236,-3.1477856636047363
1403715277262143000,0.011917587369680405,-0.014572873711585999,0.07564356178045273,9.345736503601074,0.2604794502258301,-3.8488802909851074
1403715277267143000,0.03249906748533249,0.08786676824092865,0.1109883040189743,9.72795295715332,0.3416611850261688,-4.376928329467773
1403715277272143000,-0.0027343519032001495,0.022423982620239258,0.05841156840324402,7.165208339691162,-0.006009708624333143,-3.3938848972320557
1403715277277143000,0.0024292320013046265,-0.05309338867664337,0.07998839765787125,9.112516403198242,0.42265239357948303,-4.094899654388428
1403715277282143000,-0.0037485137581825256,0.05602070689201355,0.10780775547027588,9.606019973754883,0.31126004457473755,-3.782562494277954
1403715277287143000,-0.029316844418644905,-0.022104479372501373,0.06907349824905396,7.860861301422119,-0.04060589522123337,-3.365061044692993
1403715277292143000,-0.010593220591545105,-0.05800282955169678,0.08072350919246674,9.974738121032715,0.20684604346752167,-4.002116680145264
1403715277297143000,-0.008314600214362144,0.07363917678594589,0.10460629314184189,9.724566459655762,0.26072752475738525,-3.895825147628784
1403715277302143000,-0.01987471431493759,0.007272727787494659,0.07167410850524902,8.097262382507324,-0.12210619449615479,-3.3930273056030273
1403715277307143000,-0.0019724778831005096,-0.025314414873719215,0.08028782159090042,9.990034103393555,-0.19314727187156677,-4.197279453277588
1403715277312143000,0.013448525220155716,0.09540614485740662,0.09809086471796036,8.762330055236816,-0.04214693233370781,-3.6426565647125244
1403715277317143000,0.016683347523212433,-0.0016172714531421661,0.07102232426404953,8.182092666625977,-0.24313241243362427,-3.5363290309906006
1403715277322143000,0.0316685289144516,0.01776696741580963,0.07150410860776901,10.456233978271484,0.34075266122817993,-3.9046432971954346
1403715277327143000,0.013076528906822205,0.0840478241443634,0.06828716397285461,8.98862361907959,0.25457584857940674,-3.7517240047454834
1403715277332143000,-0.00844123400747776,-0.03661118075251579,0.03946634382009506,8.044422149658203,0.09864205121994019,-3.4408116340637207
1403715277337143000,-0.008469205349683762,-0.0006597042083740234,0.05633222684264183,10.276073455810547,0.8058728575706482,-4.317040920257568
1403715277342143000,-0.03538666293025017,0.07082782685756683,0.05821077525615692,8.53193473815918,0.28899911046028137,-3.5923092365264893
1403715277347143000,-0.0460306853055954,-0.056084949523210526,0.045944154262542725,8.257823944091797,-0.04340033233165741,-3.308009386062622
1403715277352143000,-0.0143663939088583,0.01574469357728958,0.06985481083393097,10.572505950927734,0.14857971668243408,-4.122140884399414
1403715277357143000,-0.008418042212724686,0.05991959571838379,0.08625771850347519,8.30264663696289,-0.4479992091655731,-3.295872926712036
1403715277362143000,0.008516889065504074,-0.04809151589870453,0.09313245117664337,9.154458045959473,-0.06832829862833023,-3.7666170597076416
1403715277367143000,0.0318789929151535,0.09115264564752579,0.11180174350738525,9.940911293029785,0.13626541197299957,-3.9622647762298584
1403715277372143000,0.027811646461486816,0.04612886905670166,0.09732483327388763,8.015645980834961,-0.33332473039627075,-3.4472732543945312
1403715277377143000,0.046923935413360596,-0.018853193148970604,0.12010738998651505,9.335694313049316,0.42956727743148804,-3.7117702960968018
1403715277382143000,0.029941819608211517,0.11608405411243439,0.12078200280666351,9.262643814086914,0.6063070297241211,-3.8510773181915283
1403715277387143000,-0.00801980122923851,0.016030367463827133,0.07749573886394501,7.423770427703857,0.4030158817768097,-3.3236944675445557
1403715277392143000,-0.01154651865363121,-0.03950851783156395,0.08432095497846603,9.95023250579834,0.8450771570205688,-3.751741647720337
1403715277397143000,-0.03536078333854675,0.08907517045736313,0.07770292460918427,9.130359649658203,0.10667307674884796,-3.835245370864868
1403715277402143000,-0.04841705411672592,-0.026141896843910217,0.01957903429865837,7.495900630950928,-0.18172615766525269,-3.1787991523742676
1403715277407143000,-0.019390834495425224,-0.031106099486351013,0.04744385927915573,10.181218147277832,0.3622995913028717,-3.776954174041748
1403715277412143000,-0.02080593816936016,0.09622363746166229,0.05460532754659653,8.924894332885742,-0.34916672110557556,-3.590574026107788
1403715277417143000,-0.002678733319044113,-0.02685556560754776,0.04783191904425621,8.8096342086792,0.053231820464134216,-3.367988109588623
1403715277422143000,0.024293728172779083,0.03798481822013855,0.0970284640789032,10.790322303771973,0.2338414192199707,-3.928079128265381
1403715277427143000,0.009613681584596634,0.10380874574184418,0.08644235134124756,7.483854293823242,-0.0853683203458786,-3.660484790802002
1403715277432143000,0.023816034197807312,-0.04595714807510376,0.10758541524410248,9.065763473510742,0.5129128694534302,-3.858849287033081
1403715277437143000,0.011258326470851898,0.11921018362045288,0.11016970872879028,10.307660102844238,0.23745182156562805,-3.960448980331421
1403715277442143000,-0.002953875809907913,0.050117507576942444,0.08410144597291946,7.11552619934082,-0.24433715641498566,-2.718690872192383
1403715277447143000,0.003880772739648819,-0.0745459645986557,0.10006141662597656,9.853787422180176,0.5106716156005859,-3.3950281143188477
1403715277452143000,-0.01988433673977852,0.08058580756187439,0.08460929244756699,9.53994083404541,0.2241065800189972,-3.4588370323181152
1403715277457143000,-0.027943430468440056,-0.01973658800125122,0.05229862034320831,8.235294342041016,-0.3844134509563446,-3.186147451400757
1403715277462143000,0.0015467777848243713,-0.04147964343428612,0.07260288298130035,10.431147575378418,0.37628257274627686,-3.6252496242523193
1403715277467143000,-0.005703728646039963,0.08093351870775223,0.07929302752017975,9.422246932983398,-0.6171091794967651,-3.148855209350586
1403715277472143000,0.011810638010501862,-0.044639430940151215,0.06368423253297806,8.726787567138672,0.06324125826358795,-3.256514072418213
1403715277477143000,0.024055462330579758,0.025497503578662872,0.07751301676034927,10.437846183776855,0.5447128415107727,-3.475773334503174
1403715277482143000,-0.01006590761244297,0.05971657484769821,0.05682974308729172,8.467445373535156,0.257267028093338,-3.2807915210723877
1403715277487143000,-0.007103567942976952,-0.04887932538986206,0.06419720500707626,9.627126693725586,0.5034555792808533,-3.856372594833374
1403715277492143000,-0.021822059527039528,0.05263790488243103,0.07700669765472412,9.711406707763672,0.12067428976297379,-3.6161301136016846
1403715277497143000,-0.01636679098010063,0.01583372801542282,0.08227542787790298,7.887521743774414,-0.13782665133476257,-3.445009469985962
1403715277502143000,-0.0033635087311267853,-0.01693332940340042,0.08473065495491028,9.876344680786133,0.2656141221523285,-4.121585369110107
1403715277507143000,-0.00624983012676239,0.03967501223087311,0.10113421827554703,9.978192329406738,-0.20449821650981903,-4.142645359039307
1403715277512143000,0.005319591611623764,-0.0030395016074180603,0.10338392853736877,7.876992225646973,0.005950366612523794,-3.648723840713501
1403715277517143000,0.00752701610326767,0.02321964129805565,0.07884491980075836,8.632352828979492,0.5207645297050476,-3.4256365299224854
1403715277522143000,0.004069827497005463,0.03194846957921982,0.06352632492780685,9.012338638305664,-0.28287646174430847,-3.554060935974121
1403715277527143000,0.0260598286986351,-0.04664269834756851,0.0797417089343071,9.64881706237793,0.39601972699165344,-3.9024124145507812
1403715277532143000,0.006354331970214844,0.006860300898551941,0.07765562832355499,10.312654495239258,0.219805508852005,-4.373215675354004
1403715277537143000,-0.0012245029211044312,0.05398089438676834,0.06150941923260689,8.062507629394531,0.4752650558948517,-3.381269931793213
1403715277542143000,-0.012361738830804825,0.041461244225502014,0.05165896192193031,8.758013725280762,0.822738528251648,-3.320709228515625
1403715277547143000,-0.04294634610414505,0.07906688749790192,0.03905695676803589,10.33895206451416,-0.40079230070114136,-4.102957725524902
1403715277552143000,-0.009836671873927116,0.031096629798412323,0.07137714326381683,8.521492004394531,-0.2007220834493637,-3.6656665802001953
1403715277557143000,-0.001451142132282257,0.04772789031267166,0.07530807703733444,8.377260208129883,0.1703222095966339,-3.4646997451782227
1403715277562143000,0.0020864084362983704,0.09690310060977936,0.05784820765256882,8.485812187194824,-0.3060644567012787,-3.2511744499206543
1403715277567143000,0.036482252180576324,0.027221202850341797,0.1226169541478157,8.753395080566406,0.19095058739185333,-3.7469897270202637
