#timestamp [ns],w_RS_S_x [rad s^-1],w_RS_S_y [rad s^-1],w_RS_S_z [rad s^-1],a_RS_S_x [m s^-2],a_RS_S_y [m s^-2],a_RS_S_z [m s^-2]
1403715273262143000,-0.0020943951023931952,0.017453292519943295,0.07749261878854824,9.087495666666666,0.13075533333333333,-3.693838166666666
1403715273267143000,-0.0013962634015954637,0.019547687622336492,0.07819075048934597,9.079323458333333,0.122583125,-3.693838166666666
1403715273272143000,-0.0020943951023931952,0.016755160819145562,0.0747000919853573,9.038462416666666,0.14709974999999997,-3.6693215416666662
1403715273277143000,-0.0027925268031909274,0.020943951023931952,0.07819075048934597,9.07115125,0.122583125,-3.67749375
1403715273282143000,-0.0020943951023931952,0.020943951023931952,0.07888888219014369,9.079323458333333,0.13075533333333333,-3.702010375
1403715273287143000,0.0,0.021642082724729686,0.07958701389094143,9.054806833333332,0.07354987499999999,-3.693838166666666
1403715273292143000,-0.0013962634015954637,0.023038346126325153,0.07400196028455958,9.095667875,0.13892754166666665,-3.6611493333333334
1403715273297143000,-0.003490658503988659,0.02234021442552742,0.08028514559173915,9.062979041666667,0.07354987499999999,-3.6693215416666662
1403715273302143000,-0.0041887902047863905,0.017453292519943295,0.07609635538695278,9.136528916666666,0.14709974999999997,-3.702010375
1403715273307143000,-0.0013962634015954637,0.01815142422074103,0.07958701389094143,9.054806833333332,0.06537766666666667,-3.6366327083333334
1403715273312143000,-0.0020943951023931952,0.02024581932313422,0.07400196028455958,9.087495666666666,0.13892754166666665,-3.6693215416666662
1403715273317143000,-0.003490658503988659,0.021642082724729686,0.08028514559173915,9.046634625,0.11441091666666667,-3.67749375
1403715273322143000,-0.0027925268031909274,0.020943951023931952,0.07888888219014369,9.079323458333333,0.17161637500000002,-3.751043625
1403715273327143000,-0.0020943951023931952,0.023038346126325153,0.07958701389094143,9.054806833333332,0.11441091666666667,-3.702010375
1403715273332143000,-0.0041887902047863905,0.01884955592153876,0.07609635538695278,9.079323458333333,0.07354987499999999,-3.702010375
1403715273337143000,-0.003490658503988659,0.021642082724729686,0.07958701389094143,9.054806833333332,0.13075533333333333,-3.6693215416666662
1403715273342143000,-0.005585053606381855,0.02234021442552742,0.07819075048934597,9.087495666666666,0.10623870833333333,-3.718354791666666
1403715273347143000,-0.0027925268031909274,0.021642082724729686,0.0767944870877505,9.062979041666667,0.13892754166666665,-3.67749375
1403715273352143000,-0.0020943951023931952,0.016057029118347832,0.0767944870877505,9.038462416666666,0.0980665,-3.7346992083333332
1403715273357143000,-0.003490658503988659,0.01884955592153876,0.0747000919853573,9.062979041666667,0.122583125,-3.742871416666666
1403715273362143000,-0.0027925268031909274,0.019547687622336492,0.08028514559173915,9.038462416666666,0.0980665,-3.7346992083333332
1403715273367143000,-0.0013962634015954637,0.01815142422074103,0.0767944870877505,9.087495666666666,0.13075533333333333,-3.67749375
1403715273372143000,-0.0027925268031909274,0.019547687622336492,0.07819075048934597,9.030290208333332,0.11441091666666667,-3.67749375
1403715273377143000,-0.004886921905584123,0.016755160819145562,0.07120943348136866,9.079323458333333,0.17978858333333333,-3.67749375
1403715273382143000,0.0006981317007977319,0.02024581932313422,0.07749261878854824,9.038462416666666,0.0980665,-3.693838166666666
1403715273387143000,0.0006981317007977319,0.019547687622336492,0.07609635538695278,9.095667875,0.15527195833333335,-3.702010375
1403715273392143000,-0.0013962634015954637,0.023038346126325153,0.08098327729253688,9.07115125,0.11441091666666667,-3.693838166666666
1403715273397143000,-0.003490658503988659,0.02024581932313422,0.08028514559173915,9.095667875,0.11441091666666667,-3.7346992083333332
1403715273402143000,-0.0027925268031909274,0.02234021442552742,0.07958701389094143,9.030290208333332,0.11441091666666667,-3.6856659583333333
1403715273407143000,-0.005216002464294434,0.022331317886710167,0.07542789727449417,9.084068298339844,0.10048332065343857,-3.675893545150757
1403715273412143000,-0.0016961470246315002,0.023013917729258537,0.0775221437215805,9.075728416442871,0.09255906939506531,-3.700385093688965
1403715273417143000,-0.0038365796208381653,0.02164694480597973,0.07469242811203003,9.075784683227539,0.05170905590057373,-3.7494471073150635
1403715273422143000,-0.0038781091570854187,0.021621963009238243,0.07681068778038025,9.035004615783691,0.09231753647327423,-3.7005105018615723
1403715273427143000,-0.0017040818929672241,0.023033080622553825,0.07684627175331116,9.092286109924316,0.12495547533035278,-3.7248847484588623
1403715273432143000,0.0003747493028640747,0.020229844376444817,0.07889314740896225,9.051336288452148,0.10073018074035645,-3.675842046737671
1403715273437143000,-0.0038269683718681335,0.020911993458867073,0.07610904425382614,9.059502601623535,0.09236937761306763,-3.6595780849456787
1403715273442143000,-0.0038336962461471558,0.019531359896063805,0.07820160686969757,9.092262268066406,0.17413906753063202,-3.700429916381836
1403715273447143000,-0.004544354975223541,0.023021681234240532,0.08028873801231384,9.034976959228516,0.11666534841060638,-3.716820478439331
1403715273452143000,-0.0003393515944480896,0.020252330228686333,0.07891133427619934,9.092095375061035,0.1580280065536499,-3.700568199157715
1403715273457143000,-0.0002897977828979492,0.02093128301203251,0.08104977011680603,9.002301216125488,0.059534952044487,-3.7003841400146484
1403715273462143000,-0.0038391947746276855,0.020232928916811943,0.07400837540626526,9.07576847076416,0.12507887184619904,-3.7330527305603027
1403715273467143000,-0.001767963171005249,0.022308820858597755,0.07677531242370605,9.03496265411377,0.12493481487035751,-3.6840951442718506
1403715273472143000,-0.005218274891376495,0.018157755956053734,0.07890862226486206,9.100411415100098,0.12480506300926208,-3.6514382362365723
1403715273477143000,-0.0010201334953308105,0.02372407726943493,0.08308131992816925,8.994043350219727,0.1331890970468521,-3.700450897216797
1403715273482143000,-0.0038163959980010986,0.018839119002223015,0.0796259269118309,9.043192863464355,0.14965741336345673,-3.716963768005371
1403715273487143000,-0.003847651183605194,0.023008594289422035,0.08173999935388565,9.026729583740234,0.10880915075540543,-3.7168641090393066
1403715273492143000,-0.00032947957515716553,0.022347507998347282,0.07609015703201294,9.06763744354248,0.1413392424583435,-3.68412709236145
1403715273497143000,-0.002430751919746399,0.02233564667403698,0.08096501231193542,9.09218692779541,0.1413671374320984,-3.700328826904297
1403715273502143000,-0.0024181678891181946,0.02021957002580166,0.0782160609960556,9.075847625732422,0.14950284361839294,-3.692312002182007
1403715273507143000,-0.0031228363513946533,0.019512778148055077,0.07887542992830276,9.067620277404785,0.1577964723110199,-3.7004001140594482
1403715273512143000,-0.002431347966194153,0.023021074011921883,0.08103764057159424,9.05122184753418,0.06776272505521774,-3.675929069519043
1403715273517143000,-0.005241744220256805,0.022332822903990746,0.08171926438808441,9.092095375061035,0.09280791133642197,-3.6678466796875
1403715273522143000,-0.0038172900676727295,0.020948583260178566,0.07608482986688614,9.059553146362305,0.11677064001560211,-3.6922833919525146
1403715273527143000,-0.0024334341287612915,0.020227501168847084,0.07750850170850754,9.092218399047852,0.15741029381752014,-3.724874258041382
1403715273532143000,-0.0017444491386413574,0.022293420508503914,0.08029070496559143,9.03498649597168,0.0839105099439621,-3.733074188232422
1403715273537143000,-0.003798358142375946,0.023043515160679817,0.07679387927055359,9.075850486755371,0.12560443580150604,-3.7820684909820557
1403715273542143000,-0.0038559436798095703,0.025133302435278893,0.07619279623031616,9.043089866638184,-0.005391843616962433,-3.7328691482543945
1403715273547143000,-0.010829620063304901,0.019565584138035774,0.07679940015077591,8.913365364074707,0.5410780906677246,-3.68461537361145
1403715273552143000,-0.016404375433921814,0.013917824253439903,0.09346415102481842,9.321427345275879,0.2628772258758545,-3.765796184539795
1403715273557143000,-0.02828388661146164,0.03137541562318802,0.07963979244232178,8.887393951416016,-0.12792034447193146,-3.6189823150634766
1403715273562143000,-0.0017562806606292725,0.010420842096209526,0.09287524968385696,9.132484436035156,-0.3556377589702606,-3.520432472229004
1403715273567143000,0.02836807817220688,0.03836744278669357,0.06565671414136887,9.221894264221191,-0.8871139287948608,-3.665733575820923
1403715273572143000,0.0577610582113266,0.013269355520606041,0.06147383898496628,8.846267700195312,-0.19291387498378754,-3.512103796005249
1403715273577143000,0.060573115944862366,0.0201477762311697,0.05105891451239586,9.289268493652344,0.49142253398895264,-3.757323741912842
1403715273582143000,0.024101264774799347,0.02346465177834034,0.06902704387903214,8.834907531738281,1.494549036026001,-3.6681201457977295
1403715273587143000,-0.05004190653562546,0.012858081609010696,0.08309190720319748,9.073208808898926,1.7237223386764526,-3.970036506652832
1403715273592143000,-0.10738088935613632,0.020264970138669014,0.09778016060590744,9.151311874389648,0.7615114450454712,-3.693167209625244
1403715273597143000,-0.10524807870388031,0.025138037279248238,0.10753355175256729,8.937198638916016,-0.5597372055053711,-3.6600732803344727
1403715273602143000,-0.058415599167346954,0.021674340590834618,0.10052008926868439,8.887200355529785,-1.1318587064743042,-3.332836866378784
1403715273607143000,0.015115097165107727,0.00620855949819088,0.10254126787185669,9.686498641967773,-1.2491109371185303,-3.6730687618255615
1403715273612143000,0.08077356219291687,0.049439698457717896,0.05102047324180603,9.124068260192871,-1.2555747032165527,-3.6487720012664795
1403715273617143000,0.12342284619808197,0.014605341479182243,0.05104454234242439,8.707683563232422,0.08460554480552673,-3.495542287826538
1403715273622143000,0.10615423321723938,0.03601648658514023,0.053112827241420746,9.138620376586914,1.374521017074585,-3.7395946979522705
1403715273627143000,0.028516024351119995,-0.00667350459843874,0.07665789127349854,8.732590675354004,1.9940316677093506,-3.750112533569336
1403715273632143000,-0.05909228324890137,0.017153261229395866,0.07198290526866913,9.872889518737793,1.2661899328231812,-4.1235175132751465
1403715273637143000,-0.08789532631635666,0.056670837104320526,0.07342689484357834,8.626562118530273,-0.1846831887960434,-3.546027421951294
1403715273642143000,-0.05700092017650604,-0.006754815578460693,0.09985890984535217,8.372986793518066,-0.2657660245895386,-3.4323718547821045
1403715273647143000,-0.037337273359298706,0.011955341324210167,0.08165113627910614,9.743876457214355,-0.24227194488048553,-3.7413206100463867
1403715273652143000,-0.03541885316371918,0.027034597471356392,0.06582854688167572,8.830123901367188,-0.031947724521160126,-3.562516450881958
1403715273657143000,-0.022275105118751526,-0.011503193527460098,0.06155361980199814,9.149630546569824,0.1249389722943306,-3.70984148979187
1403715273662143000,-0.0130324587225914,0.032181426882743835,0.09198758006095886,9.001569747924805,-0.06898847222328186,-3.625810384750366
1403715273667143000,-0.0014309883117675781,0.009315922856330872,0.0983906164765358,8.978137016296387,-0.22532787919044495,-3.747917890548706
1403715273672143000,0.03222784399986267,0.030544737353920937,0.09286011755466461,9.565327644348145,-0.9149711728096008,-3.5753307342529297
1403715273677143000,0.08714421093463898,0.04594430327415466,0.07894764095544815,8.789286613464355,-1.0677919387817383,-3.4200797080993652
1403715273682143000,0.11713097989559174,0.00446036271750927,0.07121817767620087,8.569838523864746,0.3531914949417114,-3.602973222732544
1403715273687143000,0.07681363821029663,0.014281246811151505,0.06087488681077957,9.660528182983398,1.4784177541732788,-3.9042468070983887
1403715273692143000,-0.006761327385902405,0.04282645881175995,0.04059810936450958,8.891881942749023,1.447927713394165,-3.9774153232574463
1403715273697143000,-0.06641209125518799,-0.005745630711317062,0.06699135154485703,8.499479293823242,1.4599007368087769,-3.662672758102417
1403715273702143000,-0.10956940799951553,0.007663492113351822,0.11016250401735306,9.438414573669434,1.1471015214920044,-3.872096538543701
1403715273707143000,-0.15423759818077087,0.023943329229950905,0.10878187417984009,8.896171569824219,0.23488622903823853,-3.7594587802886963
1403715273712143000,-0.141062393784523,0.007346980273723602,0.11382151395082474,9.4114408493042,-1.0075899362564087,-3.537144184112549
1403715273717143000,-0.06934183090925217,0.039986081421375275,0.11114855110645294,9.140357971191406,-2.0468952655792236,-3.361928939819336
1403715273722143000,0.06811875104904175,0.017355455085635185,0.09435048699378967,9.06637191772461,-2.0603420734405518,-3.54864239692688
1403715273727143000,0.14916643500328064,0.03527684509754181,0.049754440784454346,9.498270988464355,-1.4201947450637817,-3.574122190475464
1403715273732143000,0.1922629475593567,0.050110675394535065,0.025357067584991455,8.863301277160645,-0.19511370360851288,-3.623901605606079
1403715273737143000,0.1787307858467102,0.0068487320095300674,0.04650859534740448,8.71519660949707,1.522344708442688,-3.772162914276123
1403715273742143000,0.07906921207904816,0.03435312956571579,0.042074620723724365,9.652908325195312,2.8591315746307373,-4.0890607833862305
1403715273747143000,-0.06191854923963547,0.028627512976527214,0.07040967792272568,8.326615333557129,2.940661907196045,-3.827496290206909
1403715273752143000,-0.17058086395263672,-0.011550922878086567,0.07761868089437485,8.705504417419434,1.6425745487213135,-3.8017494678497314
1403715273757143000,-0.19328539073467255,0.00427672453224659,0.12066131830215454,9.206415176391602,0.16407443583011627,-3.6460251808166504
1403715273762143000,-0.16387400031089783,0.00585823692381382,0.11047802120447159,9.2140531539917,-1.5163460969924927,-3.651451587677002
1403715273767143000,-0.07869865745306015,0.0173234511166811,0.11454862356185913,9.270169258117676,-1.6779927015304565,-3.3559367656707764
1403715273772143000,0.014859795570373535,0.04342573136091232,0.0865553766489029,9.376872062683105,-1.9288976192474365,-3.5564639568328857
1403715273777143000,0.11793054640293121,0.0343736857175827,0.07185432314872742,8.69073486328125,-1.197052001953125,-3.338655948638916
1403715273782143000,0.14702433347702026,0.02335341088473797,0.041117098182439804,9.2559232711792,0.003243356943130493,-3.705911636352539
1403715273787143000,0.1287471354007721,0.05428221821784973,0.03417635336518288,9.227831840515137,0.9449793100357056,-3.835601806640625
1403715273792143000,0.06830541789531708,0.005397321656346321,0.052398085594177246,8.087664604187012,1.6907299757003784,-3.5872273445129395
1403715273797143000,-0.013597853481769562,0.009300293400883675,0.06572821736335754,9.443710327148438,1.966684103012085,-4.180727005004883
1403715273802143000,-0.08152978122234344,0.02241971157491207,0.1068262979388237,8.572653770446777,1.2705597877502441,-3.653031349182129
1403715273807143000,-0.1250806301832199,-0.015452093444764614,0.12712186574935913,9.126331329345703,0.5666821002960205,-3.9720675945281982
1403715273812143000,-0.12458348274230957,0.04393835365772247,0.09960318356752396,9.334783554077148,-0.492325097322464,-3.317798137664795
1403715273817143000,-0.07641216367483139,-0.005397770553827286,0.11313372850418091,8.59374713897705,-0.9246203899383545,-3.4642043113708496
1403715273822143000,-0.024282392114400864,0.0017379764467477798,0.0654606819152832,10.233355522155762,-1.6348222494125366,-3.8674886226654053
1403715273827143000,0.07736769318580627,0.0704740509390831,0.03143913298845291,8.993207931518555,-1.6990605592727661,-3.5650088787078857
1403715273832143000,0.1435377299785614,0.007840316742658615,0.047289423644542694,8.243856430053711,-0.3792414665222168,-3.299536943435669
1403715273837143000,0.13796909153461456,0.029249606654047966,0.05846269056200981,9.482036590576172,1.3276010751724243,-3.837183713912964
1403715273842143000,0.05245998501777649,0.01685958169400692,0.07734008133411407,8.668560981750488,2.1310439109802246,-3.8881478309631348
1403715273847143000,-0.04007168114185333,0.01284746266901493,0.06674908101558685,9.506916046142578,1.6246601343154907,-4.13281774520874
1403715273852143000,-0.08444388955831528,0.04742645472288132,0.08223626017570496,8.577118873596191,0.21196366846561432,-3.3902628421783447
1403715273857143000,-0.06904270499944687,-0.0002556396648287773,0.09906668215990067,8.60154914855957,-0.3725864887237549,-3.693307638168335
1403715273862143000,-0.04520154744386673,0.016701778396964073,0.08953674882650375,9.539948463439941,-0.2607683837413788,-3.5948474407196045
1403715273867143000,-0.026766091585159302,0.021957462653517723,0.07614267617464066,8.863042831420898,-0.13727344572544098,-3.6029932498931885
1403715273872143000,-0.01126919686794281,0.003502463921904564,0.06425308436155319,9.067793846130371,-0.2931850552558899,-3.668630838394165
1403715273877143000,0.004533097147941589,0.020911047235131264,0.07817967236042023,9.205629348754883,-0.10310545563697815,-3.6916210651397705
1403715273882143000,0.015510603785514832,0.021038254722952843,0.07189562916755676,8.611469268798828,0.18800152838230133,-3.5532796382904053
1403715273887143000,0.018416956067085266,0.001390686258673668,0.0900331437587738,9.306349754333496,0.33070528507232666,-3.7490909099578857
1403715273892143000,0.0026622340083122253,0.03476760536432266,0.09423913061618805,9.321213722229004,0.3066830039024353,-3.781642198562622
1403715273897143000,-0.00802706927061081,0.021277165040373802,0.11310700327157974,8.691213607788086,0.5133855938911438,-3.701892375946045
1403715273902143000,-0.019838988780975342,0.020770495757460594,0.10972809046506882,9.231854438781738,0.19236531853675842,-3.6998424530029297
1403715273907143000,-0.012990087270736694,0.035459160804748535,0.09765054285526276,9.124482154846191,-0.5696920156478882,-3.600992202758789
1403715273912143000,0.031551457941532135,0.018258651718497276,0.06690981239080429,9.018671989440918,-1.205680251121521,-3.6337332725524902
1403715273917143000,0.08541776239871979,0.02145717851817608,0.05366953834891319,9.352407455444336,-0.2470480501651764,-3.6996052265167236
1403715273922143000,0.07779702544212341,0.027822135016322136,0.04331710562109947,8.73544692993164,1.0930883884429932,-3.806201934814453
1403715273927143000,0.017893001437187195,0.019176913425326347,0.03440350666642189,9.040324211120605,1.5808628797531128,-3.839729070663452
1403715273932143000,-0.05130729079246521,0.011380577459931374,0.0713610053062439,8.934618949890137,1.6984583139419556,-3.7667837142944336
1403715273937143000,-0.12402859330177307,0.006353637203574181,0.08436717092990875,9.071137428283691,1.1342573165893555,-3.783982515335083
1403715273942143000,-0.13930481672286987,0.015305815264582634,0.10878948867321014,9.1248779296875,-0.14029836654663086,-3.5633292198181152
1403715273947143000,-0.10113029181957245,0.024423545226454735,0.08742132782936096,9.009868621826172,-1.6009693145751953,-3.494738817214966
1403715273952143000,-0.0006409585475921631,0.03458583354949951,0.09699331223964691,9.286731719970703,-1.8319227695465088,-3.345442295074463
1403715273957143000,0.07667182385921478,0.029212718829512596,0.10263856500387192,9.066933631896973,-0.7283823490142822,-3.6415467262268066
1403715273962143000,0.0906999409198761,0.03822614252567291,0.07126779854297638,9.198212623596191,0.27993252873420715,-3.6585521697998047
1403715273967143000,0.07499310374259949,0.03617371618747711,0.08104752004146576,8.603102684020996,0.23064444959163666,-3.641627788543701
1403715273972143000,0.08263367414474487,-0.0008461847901344299,0.07538320869207382,9.060007095336914,-0.286346435546875,-3.722468852996826
1403715273977143000,0.10396799445152283,0.03222372382879257,0.07662136107683182,9.280389785766602,-0.35120758414268494,-3.780087947845459
1403715273982143000,0.11818113923072815,0.010474825277924538,0.0692116916179657,8.99001693725586,1.0934706926345825,-3.807018280029297
1403715273987143000,0.020215213298797607,0.03257004916667938,0.06027410551905632,9.124037742614746,2.4791014194488525,-3.921992301940918
1403715273992143000,-0.12260201573371887,0.006041552871465683,0.07841891795396805,8.731627464294434,3.385425090789795,-3.912442445755005
1403715273997143000,-0.2560594081878662,0.019529467448592186,0.0842713713645935,9.483470916748047,2.2083873748779297,-4.028329849243164
1403715274002143000,-0.2915840148925781,0.022951288148760796,0.10054311156272888,8.71633243560791,-0.6326407194137573,-3.2788193225860596
1403715274007143000,-0.18966560065746307,5.486421287059784e-05,0.10940861701965332,9.24326229095459,-3.300304889678955,-3.489748477935791
1403715274012143000,0.010740980505943298,0.044849202036857605,0.09363412111997604,8.922141075134277,-4.264942169189453,-2.967869281768799
1403715274017143000,0.20525974035263062,0.017769021913409233,0.07847541570663452,9.36723804473877,-2.900437831878662,-3.68711519241333
1403715274022143000,0.29224708676338196,0.03128556162118912,0.06571175158023834,9.551188468933105,-0.07876494526863098,-3.8529434204101562
1403715274027143000,0.2283182442188263,0.0670676976442337,0.025153912603855133,8.93034839630127,2.156665086746216,-4.005560874938965
1403715274032143000,0.11033114790916443,0.03362678736448288,0.04009194299578667,8.167016983032227,2.9343347549438477,-3.6455676555633545
1403715274037143000,-0.014934442937374115,0.002168789505958557,0.0725955069065094,9.137541770935059,2.125300407409668,-4.049197196960449
1403715274042143000,-0.1075378805398941,0.0012830663472414017,0.1239757165312767,9.032379150390625,1.1613141298294067,-3.9377310276031494
1403715274047143000,-0.14477723836898804,0.010637471452355385,0.1235998347401619,9.060529708862305,0.5142405033111572,-3.8749778270721436
1403715274052143000,-0.14078494906425476,0.02378351055085659,0.14870643615722656,9.050941467285156,-0.14509257674217224,-3.482149839401245
1403715274057143000,-0.12118484079837799,0.01699109561741352,0.10799910128116608,9.43483829498291,-0.9118994474411011,-3.782886266708374
1403715274062143000,-0.05722612887620926,0.042464472353458405,0.08032956719398499,9.384685516357422,-1.451837420463562,-3.5277645587921143
1403715274067143000,0.024226903915405273,0.03306201100349426,0.062441032379865646,9.018094062805176,-1.5398273468017578,-3.452683448791504
1403715274072143000,0.10272432863712311,0.041815146803855896,0.04657901078462601,9.23850154876709,-1.3947019577026367,-3.6052792072296143
1403715274077143000,0.15622961521148682,0.040605753660202026,0.06146290898323059,8.749053001403809,-0.3539309799671173,-3.6727347373962402
1403715274082143000,0.14156076312065125,0.045289620757102966,0.06436526775360107,9.361154556274414,1.341132402420044,-3.9833672046661377
1403715274087143000,0.06415185332298279,0.043487548828125,0.08501385152339935,8.725820541381836,2.042680501937866,-3.740410566329956
1403715274092143000,-0.03059890866279602,0.019756918773055077,0.09015016257762909,8.59885311126709,1.8467472791671753,-3.816542387008667
1403715274097143000,-0.11550154536962509,0.007672855630517006,0.09366238862276077,9.003521919250488,0.871126115322113,-3.653979539871216
1403715274102143000,-0.13309454917907715,0.009668061509728432,0.10609731823205948,9.002989768981934,0.09208753705024719,-3.710350275039673
1403715274107143000,-0.10834019631147385,0.004703100770711899,0.1096574068069458,9.27127456665039,-0.5521865487098694,-3.6365714073181152
1403715274112143000,-0.07050163298845291,0.024568947032094002,0.10680843889713287,8.977202415466309,-0.9740568995475769,-3.3907418251037598
1403715274117143000,0.002309054136276245,0.004893314093351364,0.10044164210557938,9.009825706481934,-1.3103914260864258,-3.405158519744873
1403715274122143000,0.06699836254119873,0.010995456948876381,0.07731233537197113,9.621420860290527,-1.1448696851730347,-3.705179452896118
1403715274127143000,0.10426086187362671,0.04318571090698242,0.05168044939637184,9.223204612731934,-0.3190487027168274,-3.617352247238159
1403715274132143000,0.11283180117607117,0.021801067516207695,0.05120059847831726,8.734107971191406,0.33986103534698486,-3.6755833625793457
1403715274137143000,0.08411213755607605,0.03632078319787979,0.06501355022192001,9.18492317199707,1.125808835029602,-3.7156171798706055
1403715274142143000,0.03610677272081375,0.027621036395430565,0.09214530140161514,8.590997695922852,1.5613577365875244,-3.619019031524658
1403715274147143000,-0.032578714191913605,0.003138674423098564,0.10193896293640137,9.144817352294922,1.276719570159912,-3.7822084426879883
1403715274152143000,-0.09238641709089279,0.006230706349015236,0.09474107623100281,8.921355247497559,0.5145912766456604,-3.6439568996429443
1403715274157143000,-0.09125590324401855,-0.007593223825097084,0.08437441289424896,9.059385299682617,-0.47042638063430786,-3.660766124725342
1403715274162143000,-0.04757804423570633,0.01745671220123768,0.07897081226110458,9.44169807434082,-0.8824594616889954,-3.7080605030059814
1403715274167143000,0.005210995674133301,0.02018379233777523,0.0790327787399292,8.952994346618652,-0.6609535217285156,-3.5694305896759033
1403715274172143000,0.03272983431816101,0.015403656288981438,0.07974760979413986,9.00179386138916,-0.19284790754318237,-3.5697638988494873
1403715274177143000,0.030645087361335754,0.018713371828198433,0.08875275403261185,8.872007369995117,0.33104124665260315,-3.675877332687378
1403715274182143000,0.011045493185520172,0.008245700970292091,0.08853930979967117,9.004024505615234,0.42234277725219727,-3.6835358142852783
1403715274187143000,-3.553926944732666e-05,0.021029120311141014,0.08988070487976074,9.370936393737793,0.14733938872814178,-3.9199423789978027
1403715274192143000,0.008319348096847534,0.032199591398239136,0.07325522601604462,9.018251419067383,-0.4948873519897461,-3.5847976207733154
1403715274197143000,0.04372622072696686,0.027402693405747414,0.07888517528772354,9.164098739624023,-0.49045106768608093,-3.650482177734375
1403715274202143000,0.07015153765678406,0.03481590747833252,0.06720168888568878,8.944307327270508,0.07284154742956161,-3.6178925037384033
1403715274207143000,0.04559142887592316,0.013627056032419205,0.06575281918048859,8.914640426635742,1.1544265747070312,-3.7901010513305664
1403715274212143000,-0.014640949666500092,0.021300869062542915,0.07476416230201721,8.965740203857422,1.4638864994049072,-3.8479952812194824
1403715274217143000,-0.07617777585983276,0.004732303321361542,0.0731116384267807,9.013046264648438,0.9919732213020325,-3.791201114654541
1403715274222143000,-0.09417340904474258,0.004972660914063454,0.08429232984781265,9.19083309173584,0.10995016992092133,-3.701511859893799
1403715274227143000,-0.07496757805347443,0.012607423588633537,0.07688747346401215,9.051176071166992,-0.7202396392822266,-3.5452487468719482
1403715274232143000,-0.02452990785241127,0.012522758916020393,0.07060521841049194,9.181001663208008,-1.0005687475204468,-3.6092517375946045
1403715274237143000,0.021532803773880005,0.027916083112359047,0.06719771772623062,9.171845436096191,-0.5733256340026855,-3.4710981845855713
1403715274242143000,0.042409688234329224,0.01661907322704792,0.06296637654304504,8.83869457244873,-0.24301809072494507,-3.6099729537963867
1403715274247143000,0.04942983388900757,0.013829631730914116,0.06550005823373795,8.863861083984375,0.2819049060344696,-3.479322910308838
1403715274252143000,0.037419334053993225,0.002007370814681053,0.06902638077735901,9.06955337524414,0.4305364489555359,-3.748220443725586
1403715274257143000,0.01283542811870575,0.004158796742558479,0.07886703312397003,8.86513614654541,0.4300801753997803,-3.6835591793060303
1403715274262143000,-0.0046261027455329895,-0.0005455184727907181,0.08656680583953857,9.240530014038086,0.5924712419509888,-3.8631930351257324
1403715274267143000,-0.02142319828271866,0.01124320738017559,0.09434911608695984,9.085265159606934,0.4585331976413727,-3.7575621604919434
1403715274272143000,-0.044517144560813904,0.008453546091914177,0.08519767224788666,8.994233131408691,0.3853652775287628,-3.685121774673462
1403715274277143000,-0.046582452952861786,0.0012961514294147491,0.09838636964559555,9.05961799621582,0.03581054508686066,-3.6855521202087402
1403715274282143000,-0.036743856966495514,0.0005978066474199295,0.08727489411830902,8.88770580291748,-0.2908632755279541,-3.546382427215576
1403715274287143000,-0.012931212782859802,-0.005007632076740265,0.08858497440814972,9.254674911499023,-0.40773510932922363,-3.7330942153930664
1403715274292143000,0.012426413595676422,0.006249630823731422,0.07333198189735413,9.279513359069824,-0.3352561891078949,-3.764798641204834
1403715274297143000,0.03269626200199127,0.017555853351950645,0.06557916104793549,9.271421432495117,-0.15461039543151855,-3.7480173110961914
1403715274302143000,0.041724659502506256,0.030090847983956337,0.05726365000009537,9.067471504211426,0.19033417105674744,-3.7566030025482178
1403715274307143000,0.03336140513420105,0.037688031792640686,0.05594095215201378,9.109588623046875,0.6070476174354553,-3.8301680088043213
1403715274312143000,0.002457939088344574,0.03832758218050003,0.07403304427862167,8.832261085510254,0.6895490884780884,-3.668083906173706
1403715274317143000,-0.02497250586748123,0.01949026621878147,0.07054095715284348,8.823708534240723,0.5189036130905151,-3.7256898880004883
1403715274322143000,-0.041701652109622955,0.00831279344856739,0.07962997257709503,8.962211608886719,0.3558279573917389,-3.7501349449157715
1403715274327143000,-0.04584677517414093,0.015400506556034088,0.08029188215732574,9.149413108825684,0.1662800908088684,-3.7991559505462646
1403715274332143000,-0.036720238626003265,0.029338648542761803,0.07463309168815613,9.230123519897461,-0.17768824100494385,-3.790175676345825
1403715274337143000,-0.021363496780395508,0.03778906166553497,0.06845855712890625,9.197400093078613,-0.30743199586868286,-3.69986629486084
1403715274342143000,0.00311124324798584,0.04120399057865143,0.0726890116930008,9.099349021911621,-0.372779905796051,-3.5691559314727783
1403715274347143000,0.025633856654167175,0.0382184237241745,0.08102256059646606,8.789122581481934,-0.20173801481723785,-3.5859501361846924
1403715274352143000,0.033437617123126984,0.02005050517618656,0.07615342736244202,9.002998352050781,0.24578221142292023,-3.626985788345337
1403715274357143000,0.02356940507888794,0.016696872189641,0.08588409423828125,9.003811836242676,0.46492040157318115,-3.7331862449645996
1403715274362143000,0.0004378706216812134,0.011186497285962105,0.07318025082349777,9.077072143554688,0.694441556930542,-3.80669903755188
1403715274367143000,-0.03460419178009033,0.021713925525546074,0.07741113007068634,9.43661117553711,0.6317722201347351,-3.8713772296905518
1403715274372143000,-0.047956377267837524,0.03570861369371414,0.08040042221546173,8.985943794250488,0.22458794713020325,-3.7249550819396973
1403715274377143000,-0.04093518853187561,0.026487691327929497,0.07470710575580597,8.976893424987793,-0.4439776837825775,-3.463637113571167
1403715274382143000,0.007223233580589294,0.0186790619045496,0.08387555181980133,8.870734214782715,-0.94242262840271,-3.340238332748413
1403715274387143000,0.052785322070121765,0.0018468387424945831,0.06229424476623535,8.821884155273438,-0.7973493337631226,-3.405630588531494
1403715274392143000,0.08426009118556976,-0.007795581594109535,0.06481444835662842,9.288395881652832,0.09063488990068436,-3.7002248764038086
1403715274397143000,0.06403470039367676,0.006286364048719406,0.05657719448208809,9.168697357177734,0.9708662629127502,-3.8716509342193604
1403715274402143000,0.0060471296310424805,0.015919802710413933,0.06844072788953781,9.146302223205566,1.625007152557373,-3.936777114868164
1403715274407143000,-0.06596483290195465,0.024375079199671745,0.09148724377155304,9.284451484680176,1.4047731161117554,-3.8957841396331787
1403715274412143000,-0.12201031297445297,0.030723920091986656,0.09711366146802902,8.872392654418945,0.13271208107471466,-3.595210313796997
1403715274417143000,-0.10037461668252945,0.023637613281607628,0.11030714213848114,8.847153663635254,-0.8866982460021973,-3.4397034645080566
1403715274422143000,-0.026368703693151474,0.009679706767201424,0.09779247641563416,8.928648948669434,-1.5154669284820557,-3.4620845317840576
1403715274427143000,0.051336586475372314,0.004818469285964966,0.08376263082027435,9.001734733581543,-1.2710580825805664,-3.4947855472564697
1403715274432143000,0.09402737021446228,0.01187657006084919,0.060741160064935684,9.450586318969727,-0.3477868437767029,-3.8707566261291504
1403715274437143000,0.09048537909984589,0.0321669727563858,0.051018472760915756,9.265002250671387,0.6887722015380859,-3.976428985595703
1403715274442143000,0.052812352776527405,0.04536496102809906,0.06143112853169441,8.964811325073242,1.161830186843872,-3.780423164367676
1403715274447143000,0.0019510164856910706,0.03335976600646973,0.07396439462900162,8.924812316894531,1.2510308027267456,-3.699455738067627
1403715274452143000,-0.04771576076745987,0.03051537461578846,0.0892982929944992,8.89130687713623,0.9634408950805664,-3.6842575073242188
1403715274457143000,-0.08082819730043411,0.02503177337348461,0.09486453235149384,9.142548561096191,0.522733211517334,-3.612480878829956
1403715274462143000,-0.07601509243249893,0.018835822120308876,0.10052675008773804,8.969398498535156,-0.23504367470741272,-3.5798048973083496
1403715274467143000,-0.06617517024278641,0.015455378219485283,0.06712818890810013,9.009856224060059,-0.5106130242347717,-3.6441385746002197
1403715274472143000,-0.02139083296060562,0.023770352825522423,0.062196552753448486,9.466561317443848,-0.5592252612113953,-3.797651529312134
1403715274477143000,0.017881184816360474,0.04173637181520462,0.061535485088825226,9.107197761535645,-0.77996826171875,-3.5923357009887695
1403715274482143000,0.04936802387237549,0.046640388667583466,0.05787551403045654,9.00952434539795,-0.29802823066711426,-3.5106759071350098
1403715274487143000,0.0696948915719986,0.03138144314289093,0.0754542276263237,8.815240859985352,0.0007715568062849343,-3.5844500064849854
1403715274492143000,0.06275816261768341,0.026395099237561226,0.06004337966442108,8.946832656860352,0.48977741599082947,-3.708059310913086
1403715274497143000,0.036826178431510925,0.013140147551894188,0.060635026544332504,8.989025115966797,0.6867234110832214,-3.610968828201294
1403715274502143000,-0.005165912210941315,0.0021265242248773575,0.04556117579340935,9.078556060791016,0.9003081321716309,-3.905078887939453
1403715274507143000,-0.04234223812818527,0.013385118916630745,0.05311869457364082,9.003100395202637,0.729891836643219,-3.7341108322143555
1403715274512143000,-0.06138503551483154,0.016150956973433495,0.07258772850036621,9.35305118560791,0.11922746896743774,-3.8640310764312744
1403715274517143000,-0.05852556228637695,0.025712212547659874,0.09296578168869019,8.78955078125,-0.05277515575289726,-3.709000825881958
1403715274522143000,-0.04587467014789581,0.028523115441203117,0.10673724114894867,8.977776527404785,-0.274480402469635,-3.521334171295166
1403715274527143000,-0.010216385126113892,0.02155141346156597,0.10812266170978546,9.189356803894043,-0.4638153910636902,-3.6840641498565674
1403715274532143000,0.0157717764377594,0.013806279748678207,0.08662311732769012,8.84663200378418,-0.5211180448532104,-3.4635331630706787
1403715274537143000,0.0367952361702919,0.006279585883021355,0.07538247108459473,9.182092666625977,-0.22794534265995026,-3.708106756210327
1403715274542143000,0.04742914438247681,0.013374382629990578,0.06713743507862091,8.912447929382324,-0.14629212021827698,-3.65077805519104
1403715274547143000,0.049569472670555115,0.01335684210062027,0.06984201073646545,9.369653701782227,0.3207111954689026,-3.821836471557617
1403715274552143000,0.0340643972158432,0.02723405323922634,0.07959513366222382,9.101595878601074,0.6297128796577454,-3.724125385284424
1403715274557143000,0.001758284866809845,0.025674225762486458,0.08089201152324677,8.914327621459961,0.8840056657791138,-3.7980871200561523
1403715274562143000,-0.026411525905132294,0.016626885160803795,0.07593655586242676,9.019362449645996,0.3804146647453308,-3.570216178894043
1403715274567143000,-0.037684954702854156,0.023061947897076607,0.06563804298639297,9.100491523742676,0.21083244681358337,-3.750051259994507
1403715274572143000,-0.03893543779850006,0.016073396429419518,0.05250503867864609,9.010848045349121,0.18364541232585907,-3.7013955116271973
1403715274577143000,-0.043031781911849976,0.020356765016913414,0.061568453907966614,9.2396879196167,0.36116284132003784,-3.7830495834350586
1403715274582143000,-0.04090656340122223,0.03848302364349365,0.0818820595741272,8.993585586547852,0.26971134543418884,-3.7826437950134277
1403715274587143000,-0.03872937709093094,0.019505063071846962,0.08169620484113693,8.871047973632812,-0.27859535813331604,-3.4720263481140137
1403715274592143000,-0.012043088674545288,0.037570975720882416,0.0920168086886406,9.279454231262207,-0.3249906003475189,-3.7814865112304688
1403715274597143000,0.022294268012046814,0.029902605339884758,0.08452650904655457,8.577190399169922,-0.9937343597412109,-3.291187286376953
1403715274602143000,0.06905882060527802,0.011736555024981499,0.06966788321733475,9.45036506652832,-0.8058573007583618,-3.7061376571655273
1403715274607143000,0.10316111147403717,0.03211311250925064,0.07493970543146133,8.757431030273438,-0.0054231672547757626,-3.5605885982513428
1403715274612143000,0.07728742063045502,0.008382325991988182,0.04968956857919693,9.086631774902344,0.9582506418228149,-3.7325472831726074
1403715274617143000,0.028272151947021484,0.026245681568980217,0.06627397984266281,9.284612655639648,1.4813055992126465,-3.8627402782440186
1403715274622143000,-0.04175882041454315,0.02219933085143566,0.062178462743759155,8.776196479797363,1.1628499031066895,-3.725311040878296
1403715274627143000,-0.08094312250614166,0.012568486854434013,0.07517209649085999,9.322017669677734,0.5502640604972839,-3.8643317222595215
1403715274632143000,-0.08572722971439362,0.02646503411233425,0.10189787298440933,8.708559036254883,-0.135111004114151,-3.5224127769470215
1403715274637143000,-0.06956686824560165,0.016700198873877525,0.08033660799264908,9.205856323242188,-0.6621437668800354,-3.488387107849121
1403715274642143000,-0.019969001412391663,0.024448400363326073,0.08171543478965759,9.41753101348877,-0.8503711223602295,-3.732614755630493
1403715274647143000,0.022120364010334015,0.021541127935051918,0.060390882194042206,8.756648063659668,-0.5705569386482239,-3.5613718032836914
1403715274652143000,0.050247982144355774,0.025848696008324623,0.05366544425487518,9.613968849182129,-0.20915158092975616,-3.8543248176574707
1403715274657143000,0.059266045689582825,0.03484062850475311,0.04952339828014374,8.822554588317871,-0.09561200439929962,-3.6329073905944824
1403715274662143000,0.05853930115699768,0.03207724541425705,0.05233043059706688,9.207521438598633,0.3785019516944885,-3.796914577484131
1403715274667143000,0.041592076420784,0.04547186195850372,0.07596608996391296,9.0863037109375,0.6413054466247559,-3.813913345336914
1403715274672143000,0.0003239661455154419,0.03332183510065079,0.08248128741979599,8.596752166748047,1.0963010787963867,-3.8640055656433105
1403715274677143000,-0.04027511179447174,0.025809960439801216,0.09228697419166565,9.24926471710205,0.8755124807357788,-3.8808374404907227
1403715274682143000,-0.07405796647071838,0.023068415001034737,0.09772057831287384,8.839592933654785,0.3220129907131195,-3.5957493782043457
1403715274687143000,-0.07256761193275452,0.012471551075577736,0.09912048280239105,8.863059043884277,-0.25500941276550293,-3.6200454235076904
1403715274692143000,-0.040239669382572174,0.017437195405364037,0.09419336915016174,9.131117820739746,-0.7321798801422119,-3.4880623817443848
1403715274697143000,0.005969591438770294,0.021554550155997276,0.0830402672290802,9.278787612915039,-0.9312853813171387,-3.617164134979248
1403715274702143000,0.05012936890125275,0.03275684267282486,0.08171568810939789,9.033690452575684,-0.4819316864013672,-3.5689361095428467
1403715274707143000,0.06559053063392639,0.038385987281799316,0.06974020600318909,9.541677474975586,0.09101960808038712,-3.7805283069610596
1403715274712143000,0.051567986607551575,0.05162816494703293,0.06772221624851227,8.783020973205566,0.5635786056518555,-3.6343367099761963
1403715274717143000,0.017986677587032318,0.03208796679973602,0.058681655675172806,9.03730297088623,0.8586179614067078,-3.692188024520874
1403715274722143000,-0.012201562523841858,0.033442482352256775,0.07471074163913727,9.061821937561035,0.640781044960022,-3.643148899078369
1403715274727143000,-0.03887750208377838,0.022378308698534966,0.07133501023054123,8.504557609558105,0.453605592250824,-3.5709240436553955
1403715274732143000,-0.04521395266056061,0.004105499014258385,0.07959285378456116,9.07592487335205,0.21540549397468567,-3.554407835006714
1403715274737143000,-0.04599069058895111,-0.0014121513813734055,0.08308961987495422,8.93675708770752,-0.11990611255168915,-3.692624807357788
1403715274742143000,-0.02573348581790924,0.004810629412531853,0.0711575299501419,9.271364212036133,-0.20816951990127563,-3.67647385597229
1403715274747143000,-0.00037732720375061035,0.019489267840981483,0.08308570086956024,9.238536834716797,-0.21586015820503235,-3.700244903564453
1403715274752143000,0.006059758365154266,0.030766351148486137,0.06156005337834358,9.009889602661133,-0.1377025991678238,-3.5527524948120117
1403715274757143000,0.027075648307800293,0.017531590536236763,0.08938132226467133,8.978087425231934,0.05707373842597008,-3.5693166255950928
1403715274762143000,0.025017522275447845,0.022943178191781044,0.06780054420232773,9.206509590148926,-0.1390843391418457,-3.609812021255493
1403715274767143000,0.03336554765701294,0.014559531584382057,0.09280183166265488,8.86433219909668,0.3441857397556305,-3.545450448989868
1403715274772143000,0.012406736612319946,0.0076927077025175095,0.0677155926823616,9.109674453735352,0.3029794991016388,-3.741093397140503
1403715274777143000,0.0009999275207519531,0.011937392875552177,0.08438632637262344,9.312697410583496,0.5833010077476501,-3.9205853939056396
1403715274782143000,-0.01729556918144226,0.026581792160868645,0.07820475101470947,9.288910865783691,0.3570024073123932,-3.879986047744751
1403715274787143000,-0.027755022048950195,0.03837230056524277,0.08095762133598328,9.116868019104004,0.519913911819458,-3.814795970916748
1403715274792143000,-0.042338110506534576,0.03562859445810318,0.08601239323616028,8.642667770385742,-0.029080688953399658,-3.6110634803771973
1403715274797143000,-0.030534900724887848,0.022355763241648674,0.07892142236232758,9.091902732849121,-0.2673681974411011,-3.6107208728790283
1403715274802143000,-0.003144994378089905,0.026366407051682472,0.09140851348638535,9.12447452545166,-0.5203778147697449,-3.651036262512207
1403715274807143000,0.012996770441532135,0.01599564589560032,0.069210946559906,8.741025924682617,-0.1297968477010727,-3.5538177490234375
1403715274812143000,0.02081006020307541,0.008455459028482437,0.06979015469551086,9.173922538757324,0.00029680877923965454,-3.7491767406463623
1403715274817143000,0.029820874333381653,0.021711232140660286,0.07052727788686752,9.336366653442383,0.27854230999946594,-3.8139374256134033
1403715274822143000,0.023535609245300293,0.040462858974933624,0.07189670205116272,9.419439315795898,0.5664355754852295,-3.9279561042785645
1403715274827143000,-0.0037052184343338013,0.04317888617515564,0.06916242092847824,8.717772483825684,0.6720635890960693,-3.618651866912842
1403715274832143000,-0.028976090252399445,0.032147519290447235,0.0656914934515953,8.879651069641113,0.2565399706363678,-3.6022472381591797
1403715274837143000,-0.02155347913503647,0.026499507948756218,0.09207756817340851,8.993939399719238,-0.15159328281879425,-3.6598963737487793
1403715274842143000,-0.013091951608657837,0.015197983011603355,0.08938749134540558,8.912860870361328,-0.11730723083019257,-3.6031882762908936
1403715274847143000,-0.016422823071479797,-3.298744559288025e-06,0.0957145020365715,8.978614807128906,0.25619271397590637,-3.7178142070770264
1403715274852143000,-0.016465499997138977,0.014077339321374893,0.08383529633283615,9.132223129272461,-0.08002486824989319,-3.732957601547241
1403715274857143000,-0.0018151849508285522,0.0265281293541193,0.07808806002140045,9.490449905395508,-0.20310088992118835,-3.732314109802246
1403715274862143000,0.01236705482006073,0.02993333898484707,0.06637302786111832,9.010432243347168,-0.24970559775829315,-3.5363590717315674
1403715274867143000,0.01464015245437622,0.03345959633588791,0.05655917525291443,9.059972763061523,0.14032797515392303,-3.6263535022735596
1403715274872143000,0.01930837333202362,0.019481433555483818,0.08026468753814697,8.797940254211426,0.041598208248615265,-3.5697858333587646
1403715274877143000,0.0191316157579422,0.02710776962339878,0.08731107413768768,9.035285949707031,0.04178395867347717,-3.610771417617798
1403715274882143000,0.014269858598709106,0.01468777097761631,0.10615745931863785,8.971331596374512,0.34788456559181213,-3.6434428691864014
1403715274887143000,-0.01568073034286499,0.01200789026916027,0.08383115381002426,9.118376731872559,0.6237759590148926,-3.6763546466827393
1403715274892143000,-0.033315591514110565,0.016791844740509987,0.08090628683567047,9.189766883850098,0.34561049938201904,-3.7414326667785645
1403715274897143000,-0.04102064669132233,0.01802743785083294,0.06909424811601639,9.09134578704834,-0.16859465837478638,-3.6350924968719482
1403715274902143000,-0.014355644583702087,0.01666836626827717,0.06769508123397827,9.206282615661621,-0.15903408825397491,-3.6265456676483154
1403715274907143000,0.0018781498074531555,0.018811462447047234,0.07272209227085114,8.880049705505371,-0.18650777637958527,-3.5943572521209717
1403715274912143000,0.015774205327033997,0.017450476065278053,0.07898828387260437,9.026371002197266,-0.06522725522518158,-3.6433801651000977
1403715274917143000,0.02620856463909149,0.018125498667359352,0.0997944250702858,9.182270050048828,-0.030464045703411102,-3.7492520809173584
1403715274922143000,0.021344900131225586,0.018953589722514153,0.08096328377723694,9.101244926452637,0.33826306462287903,-3.675844669342041
1403715274927143000,0.0075092315673828125,0.0210056584328413,0.08234457671642303,9.215946197509766,0.6625342965126038,-3.765428304672241
1403715274932143000,-0.019856400787830353,0.02364202030003071,0.0663570910692215,8.855304718017578,0.44964858889579773,-3.675753593444824
1403715274937143000,-0.019289568066596985,0.018093815073370934,0.07051865756511688,9.05882740020752,0.004033240955322981,-3.73301362991333
1403715274942143000,-0.012993589043617249,0.010416325181722641,0.07065540552139282,9.084029197692871,-0.07587338238954544,-3.6842472553253174
1403715274947143000,-0.003811672329902649,0.021612366661429405,0.08101880550384521,9.002760887145996,0.16530956327915192,-3.692443609237671
1403715274952143000,-0.005284219980239868,0.016056237742304802,0.09203143417835236,8.994162559509277,0.139541894197464,-3.692525625228882
1403715274957143000,-0.0018828660249710083,0.024483853951096535,0.08790216594934464,9.246673583984375,-0.09388945251703262,-3.789886951446533
1403715274962143000,0.0031666606664657593,0.02801290713250637,0.08729622513055801,9.18991756439209,0.005424481816589832,-3.716416358947754
1403715274967143000,-0.0037126317620277405,0.022290287539362907,0.06921146810054779,8.95340633392334,0.1228800043463707,-3.5613367557525635
1403715274972143000,-0.004422485828399658,0.011725174263119698,0.07128942012786865,8.920607566833496,0.1540503352880478,-3.602180242538452
1403715274977143000,0.0010272413492202759,0.00759359635412693,0.06637361645698547,9.091775894165039,-0.13587205111980438,-3.765385866165161
1403715274982143000,0.01366335153579712,0.0202344860881567,0.07881104201078415,9.263668060302734,0.021127527579665184,-3.7574446201324463
1403715274987143000,0.012312933802604675,0.02447308413684368,0.08232875168323517,9.12553882598877,0.1822248250246048,-3.7247982025146484
1403715274992143000,0.002420090138912201,0.023150606080889702,0.09139922261238098,8.9618558883667,0.44204947352409363,-3.8473825454711914
1403715274997143000,-0.015142999589443207,0.02864917181432247,0.08725222945213318,9.30433464050293,0.2739005386829376,-3.8390300273895264
1403715275002143000,-0.01928906887769699,0.04179064929485321,0.08180080354213715,8.944916725158691,0.053745388984680176,-3.545401096343994
1403715275007143000,-0.017053645104169846,0.020877180621027946,0.07552661746740341,8.847334861755371,-0.12027546018362045,-3.586331844329834
1403715275012143000,-0.008748114109039307,0.00765867717564106,0.07961621135473251,8.79800033569336,-0.08132254332304001,-3.6190896034240723
1403715275017143000,0.005217596888542175,0.010455170646309853,0.08093591034412384,9.148911476135254,-0.16872656345367432,-3.6923725605010986
1403715275022143000,0.0185350701212883,0.023632297292351723,0.08095066994428635,9.189885139465332,-0.053212668746709824,-3.732841968536377
1403715275027143000,0.019323527812957764,0.023814113810658455,0.06908656656742096,9.214778900146484,0.17312422394752502,-3.748983144760132
1403715275032143000,0.013040415942668915,0.039241157472133636,0.07328075915575027,9.17410659790039,0.4905143678188324,-3.75724720954895
1403715275037143000,-0.008007556200027466,0.03483594208955765,0.07198138535022736,8.937037467956543,0.4115545451641083,-3.692007064819336
1403715275042143000,-0.01925789564847946,0.03331342339515686,0.06711024045944214,8.994612693786621,0.2332697957754135,-3.6432108879089355
1403715275047143000,-0.02203402668237686,0.022354731336236,0.08319297432899475,8.823325157165527,0.11660949140787125,-3.54606294631958
1403715275052143000,-0.011572986841201782,0.01119835302233696,0.08586511015892029,8.9695463180542,-0.015812715515494347,-3.554060935974121
1403715275057143000,-0.006677977740764618,0.009715957567095757,0.08508692681789398,9.148759841918945,-0.06986054033041,-3.659680128097534
1403715275062143000,0.003139905631542206,0.0181244146078825,0.07195692509412766,9.173463821411133,-0.02828299254179001,-3.6513447761535645
1403715275067143000,0.008797712624073029,0.020295435562729836,0.06835277378559113,9.352864265441895,0.06765297800302505,-3.7898645401000977
1403715275072143000,0.008783794939517975,0.03211415559053421,0.07958176732063293,9.026782989501953,0.33489465713500977,-3.650996685028076
1403715275077143000,-0.0009345263242721558,0.02992909960448742,0.0762338936328888,9.068208694458008,0.36121082305908203,-3.70009708404541
1403715275082143000,-0.010808661580085754,0.02435862086713314,0.08105272054672241,8.896896362304688,0.21533378958702087,-3.545552968978882
1403715275087143000,-0.007340885698795319,0.023752709850668907,0.0816848948597908,9.02734375,-0.02941364049911499,-3.594407320022583
1403715275092143000,0.0031275153160095215,0.015433566644787788,0.10115683078765869,8.953476905822754,0.05875192955136299,-3.6191177368164062
1403715275097143000,-0.004540607333183289,0.013222919777035713,0.08372561633586884,8.920585632324219,0.2064044028520584,-3.6437346935272217
1403715275102143000,-0.002482466399669647,0.00905943289399147,0.08518093079328537,9.263382911682129,0.1586950123310089,-3.7410950660705566
1403715275107143000,-0.007371529936790466,0.013208543881773949,0.06640706956386566,9.124227523803711,-0.020688703283667564,-3.748995065689087
1403715275112143000,-0.0003384053707122803,0.022984100505709648,0.072594553232193,9.16578197479248,0.29635074734687805,-3.814603328704834
1403715275117143000,-0.005840107798576355,0.02303493581712246,0.07133114337921143,8.88842487335205,0.12360702455043793,-3.5697009563446045
1403715275122143000,-0.010797522962093353,0.02101329155266285,0.06628105044364929,9.206765174865723,0.13344267010688782,-3.8225576877593994
1403715275127143000,-0.00598105788230896,0.024426443502306938,0.07953756302595139,9.01874828338623,-0.15220201015472412,-3.5942482948303223
1403715275132143000,0.0031734108924865723,0.020983902737498283,0.08521483093500137,9.059654235839844,0.08364640921354294,-3.7088937759399414
1403715275137143000,0.006730630993843079,0.013915294781327248,0.08730924129486084,8.977716445922852,0.11629559844732285,-3.6188182830810547
1403715275142143000,0.00036919116973876953,0.0111630167812109,0.08109080046415329,9.13272476196289,0.33763331174850464,-3.757459878921509
1403715275147143000,-0.003164947032928467,0.020167233422398567,0.07051330804824829,9.2471284866333,0.18305493891239166,-3.8063676357269287
1403715275152143000,-0.005275554955005646,0.018093666061758995,0.06971652805805206,8.994203567504883,0.1824202835559845,-3.7493107318878174
1403715275157143000,-0.0065853893756866455,0.026575906202197075,0.07126714289188385,8.986019134521484,0.14135071635246277,-3.6268248558044434
1403715275162143000,-0.013591781258583069,0.016832144930958748,0.07890048623085022,9.059813499450684,0.19835004210472107,-3.733271837234497
1403715275167143000,-0.006695002317428589,0.027169669046998024,0.08446546643972397,9.17385482788086,-0.054019637405872345,-3.7574164867401123
1403715275172143000,0.003156110644340515,0.02932395599782467,0.09360863268375397,9.018308639526367,-0.07870898395776749,-3.6679675579071045
1403715275177143000,0.008790269494056702,0.025843700394034386,0.0872962698340416,8.98564338684082,-0.02240939252078533,-3.585930824279785
1403715275182143000,0.007413417100906372,0.021644240245223045,0.07818622887134552,9.149005889892578,0.2140018343925476,-3.667618989944458
1403715275187143000,0.007317021489143372,0.01802806369960308,0.07612083107233047,9.067757606506348,0.23211702704429626,-3.7412378787994385
1403715275192143000,-0.0038340389728546143,0.02222445420920849,0.06348196417093277,9.051414489746094,0.16566705703735352,-3.6106855869293213
1403715275197143000,-0.003816545009613037,0.01747121475636959,0.06982777267694473,9.10055923461914,0.1900448054075241,-3.798234701156616
1403715275202143000,-0.010097846388816833,0.025205185636878014,0.06850755214691162,9.051501274108887,0.20586612820625305,-3.594414710998535
1403715275207143000,-0.011595800518989563,0.027254192158579826,0.08510433882474899,9.198600769042969,0.1186940148472786,-3.7901761531829834
1403715275212143000,-0.010812252759933472,0.03137858957052231,0.08316129446029663,8.80620288848877,0.02721002697944641,-3.4640605449676514
1403715275217143000,-0.005221828818321228,0.01887044496834278,0.08381922543048859,9.108016014099121,-0.06319092214107513,-3.6268844604492188
1403715275222143000,0.005923792719841003,0.022958772256970406,0.08869621902704239,9.001873016357422,0.04228981211781502,-3.58626389503479
1403715275227143000,0.005257144570350647,0.01039254292845726,0.07403530925512314,8.969914436340332,0.15843528509140015,-3.6433207988739014
1403715275232143000,0.001085139811038971,0.01667594723403454,0.0712256133556366,9.035170555114746,0.1411566287279129,-3.7003839015960693
1403715275237143000,-0.002444654703140259,0.014726679772138596,0.06426137685775757,9.034887313842773,0.05927647650241852,-3.675833225250244
1403715275242143000,0.003179892897605896,0.020987866446375847,0.07879546284675598,9.288314819335938,0.15700936317443848,-3.8227102756500244
1403715275247143000,-0.0017019808292388916,0.024430645629763603,0.08450566977262497,8.84764289855957,0.28027021884918213,-3.553656578063965
1403715275252143000,-0.007311418652534485,0.018833784386515617,0.08871395885944366,9.166011810302734,0.1746184080839157,-3.7737231254577637
1403715275257143000,-0.01016281545162201,0.025126924738287926,0.08732366561889648,8.90380859375,0.011114229448139668,-3.6272804737091064
1403715275262143000,-0.0024997293949127197,0.025819716975092888,0.08798280358314514,9.214553833007812,0.06778105348348618,-3.684274911880493
1403715275267143000,0.0010811537504196167,0.023025302216410637,0.08030927926301956,8.904451370239258,0.14107149839401245,-3.6271378993988037
1403715275272143000,-0.0058957114815711975,0.010457254946231842,0.0718904435634613,8.945259094238281,0.19070355594158173,-3.6680150032043457
1403715275277143000,-0.00036104023456573486,0.012494472786784172,0.0656227171421051,9.15682315826416,-0.08708508312702179,-3.757197618484497
1403715275282143000,0.005930684506893158,0.01742572896182537,0.07608821988105774,9.181962966918945,0.06743218004703522,-3.7409420013427734
1403715275287143000,0.0004192069172859192,0.030709465965628624,0.07192392647266388,9.1987886428833,0.21441860496997833,-3.7327373027801514
1403715275292143000,-0.006557069718837738,0.025262432172894478,0.08871397376060486,8.961816787719727,0.3370828628540039,-3.6598005294799805
1403715275297143000,-0.0066338106989860535,0.03278300166130066,0.07754185795783997,9.051033973693848,0.06833713501691818,-3.675779342651367
1403715275302143000,-0.006003387272357941,0.01878328062593937,0.0907226949930191,9.059459686279297,-0.013384214602410793,-3.700489044189453
1403715275307143000,-0.0038124769926071167,0.02715630643069744,0.07897316664457321,9.010825157165527,0.13334862887859344,-3.643439531326294
1403715275312143000,-0.0024142861366271973,0.011193221434950829,0.07819382101297379,8.855486869812012,0.20633994042873383,-3.6108484268188477
1403715275317143000,-0.0074211955070495605,0.00833711214363575,0.0740124061703682,9.07532024383545,-0.06258831918239594,-3.741022825241089
1403715275322143000,0.0017398670315742493,0.016722431406378746,0.07188841700553894,9.059099197387695,-0.06208078935742378,-3.716583490371704
1403715275327143000,0.006739139556884766,0.02303817681968212,0.07535238564014435,9.30497932434082,0.19034183025360107,-3.798274517059326
1403715275332143000,0.00038711726665496826,0.030076218768954277,0.0789608508348465,9.002628326416016,0.4177859425544739,-3.6023778915405273
1403715275337143000,-0.010103434324264526,0.026526225730776787,0.08170532435178757,9.1573486328125,0.10053683817386627,-3.692028760910034
1403715275342143000,-0.00734807550907135,0.03136038780212402,0.07613594830036163,8.936578750610352,-0.021166518330574036,-3.6188580989837646
1403715275347143000,0.0010564923286437988,0.025786297395825386,0.08172549307346344,9.117269515991211,0.12543050944805145,-3.6434438228607178
1403715275352143000,0.0011079907417297363,0.022341730073094368,0.08168396353721619,8.871768951416016,0.2298211306333542,-3.602766513824463
1403715275357143000,-0.00452028214931488,0.011877132579684258,0.06840578466653824,8.920448303222656,0.14141066372394562,-3.61902117729187
1403715275362143000,-0.006766423583030701,0.004758803173899651,0.06916786730289459,9.08362865447998,-0.05381475389003754,-3.716531991958618
1403715275367143000,0.0010397285223007202,0.016037432476878166,0.07539426535367966,9.149442672729492,0.05208720266819,-3.7247071266174316
1403715275372143000,0.005373746156692505,0.02236231230199337,0.08233612775802612,9.23957347869873,0.33638760447502136,-3.7982094287872314
1403715275377143000,-0.006576091051101685,0.030798694118857384,0.08318567276000977,9.002409934997559,0.29605722427368164,-3.676032543182373
1403715275382143000,-0.014365822076797485,0.02793179638683796,0.08169744908809662,9.108402252197266,0.07688011974096298,-3.7166216373443604
1403715275387143000,-0.006672978401184082,0.02577187679708004,0.08583243191242218,9.03515625,0.027681197971105576,-3.651515245437622
1403715275392143000,0.001093849539756775,0.029288088902831078,0.0838313102722168,8.961793899536133,0.0911848396062851,-3.63543963432312
1403715275397143000,-0.0030591189861297607,0.02233912982046604,0.07470255345106125,9.067532539367676,0.16570180654525757,-3.6434969902038574
1403715275402143000,-0.005244895815849304,0.013950647786259651,0.06911490857601166,8.969213485717773,-0.012646901421248913,-3.6024093627929688
1403715275407143000,0.0009696707129478455,0.015975983813405037,0.06844448298215866,9.124424934387207,-0.021267134696245193,-3.765505313873291
1403715275412143000,0.008044987916946411,0.018811939284205437,0.0809897854924202,9.174152374267578,0.25438690185546875,-3.8227152824401855
1403715275417143000,-0.002306431531906128,0.03143830597400665,0.07333531975746155,9.157915115356445,0.3610974848270416,-3.708397626876831
1403715275422143000,-0.01640387624502182,0.02798924781382084,0.08031055331230164,9.124950408935547,0.22444139420986176,-3.716651439666748
1403715275427143000,-0.01789098232984543,0.03212440758943558,0.0747290700674057,8.986011505126953,-0.02119382657110691,-3.6268129348754883
1403715275432143000,-0.007324278354644775,0.028575031086802483,0.07678321748971939,9.01882553100586,0.02581900544464588,-3.676055669784546
1403715275437143000,-0.002361610531806946,0.021613923832774162,0.07969152927398682,8.912519454956055,0.08319057524204254,-3.4885807037353516
1403715275442143000,-0.0038189589977264404,0.016035860404372215,0.06984391808509827,9.001981735229492,0.028294382616877556,-3.6678428649902344
1403715275447143000,0.0016886219382286072,0.012488134205341339,0.07258252799510956,8.985509872436523,-0.021022167056798935,-3.65962553024292
1403715275452143000,0.010825738310813904,0.012527503073215485,0.07962359488010406,9.12478256225586,0.11581515520811081,-3.7573013305664062
1403715275457143000,0.0018439441919326782,0.020956357941031456,0.0795535147190094,9.353849411010742,0.23830357193946838,-3.789795160293579
1403715275462143000,-0.005179107189178467,0.032183773815631866,0.07822702825069427,8.994425773620605,0.3465547263622284,-3.6432814598083496
1403715275467143000,-0.014343276619911194,0.025146057829260826,0.07894288003444672,9.067867279052734,0.15043605864048004,-3.70866322517395
1403715275472143000,-0.012270689010620117,0.02719022147357464,0.08792182803153992,8.93700885772705,0.06728892773389816,-3.6434099674224854
1403715275477143000,-0.008671104907989502,0.02793046273291111,0.08312754333019257,9.018889427185059,0.009668591432273388,-3.6353676319122314
1403715275482143000,-0.0031359270215034485,0.014610638841986656,0.08453633636236191,9.091995239257812,-0.029750097543001175,-3.5864455699920654
1403715275487143000,0.00029036402702331543,0.013232072815299034,0.07746125757694244,8.90403938293457,-0.05304604396224022,-3.6269545555114746
1403715275492143000,0.008740589022636414,0.004821855574846268,0.07535254955291748,9.140668869018555,0.010561719536781311,-3.700197696685791
1403715275497143000,0.01230950653553009,0.0194928627461195,0.08103621751070023,9.214747428894043,0.27866992354393005,-3.7572457790374756
1403715275502143000,-0.00032438337802886963,0.021669993177056313,0.06981898844242096,9.1825590133667,0.28769218921661377,-3.7001965045928955
1403715275507143000,-0.009407848119735718,0.03009999357163906,0.07680095732212067,9.108859062194824,0.37962982058525085,-3.806518077850342
1403715275512143000,-0.013610363006591797,0.032137759029865265,0.07339814305305481,8.89637565612793,0.17431868612766266,-3.6270928382873535
1403715275517143000,-0.009412720799446106,0.030684297904372215,0.07885925471782684,8.994311332702637,0.08307696133852005,-3.7250940799713135
1403715275522143000,-0.006617635488510132,0.022337770089507103,0.0817599818110466,8.830913543701172,0.026414375752210617,-3.562055826187134
1403715275527143000,-0.0024785101413726807,0.02021716721355915,0.07612419873476028,9.050958633422852,-0.04513859376311302,-3.6759889125823975
1403715275532143000,0.0023841634392738342,0.011829053983092308,0.07958590984344482,8.870962142944336,-0.045839324593544006,-3.610731363296509
1403715275537143000,0.010868430137634277,0.007585050538182259,0.07336623966693878,9.108171463012695,0.0673309788107872,-3.7654216289520264
1403715275542143000,0.012313857674598694,0.02163401059806347,0.085170678794384,9.214994430541992,0.31184476613998413,-3.74914813041687
1403715275547143000,0.0003633350133895874,0.024490581825375557,0.07609331607818604,9.068130493164062,0.3457977771759033,-3.7167439460754395
1403715275552143000,-0.013607203960418701,0.030016152188181877,0.07747359573841095,9.125167846679688,0.35426628589630127,-3.732987880706787
1403715275557143000,-0.016414009034633636,0.02936251275241375,0.08519913256168365,8.953550338745117,0.16538755595684052,-3.635209083557129
1403715275562143000,-0.014303594827651978,0.02579374425113201,0.07819191366434097,9.002485275268555,-0.006251676473766565,-3.716970682144165
1403715275567143000,-0.004521727561950684,0.019493473693728447,0.08243939280509949,8.887717247009277,-0.021355628967285156,-3.594637155532837
1403715275572143000,0.00105256587266922,0.013927830383181572,0.07964788377285004,9.034737586975098,-0.03732240945100784,-3.667771339416504
1403715275577143000,0.009380444884300232,0.011119106784462929,0.07953030616044998,9.009869575500488,0.0023173720110207796,-3.675861120223999
1403715275582143000,0.009435944259166718,0.010396650061011314,0.07615000009536743,9.034826278686523,0.1002877801656723,-3.765547037124634
1403715275587143000,0.008793450891971588,0.018865427002310753,0.07961689680814743,9.288644790649414,0.28001868724823,-3.7898643016815186
1403715275592143000,-0.003079637885093689,0.024456312879920006,0.07393527776002884,9.117111206054688,0.3130883574485779,-3.7083868980407715
1403715275597143000,-0.016401447355747223,0.028652960434556007,0.0761219784617424,9.100757598876953,0.2880553603172302,-3.7331533432006836
1403715275602143000,-0.013604678213596344,0.030742423608899117,0.07825269550085068,9.100576400756836,0.09199816733598709,-3.6840872764587402
1403715275607143000,-0.011547759175300598,0.01323673129081726,0.07608512043952942,8.89625072479248,0.010391446761786938,-3.6273112297058105
1403715275612143000,-0.004527941346168518,0.015988482162356377,0.08105302602052689,9.026704788208008,-0.02936924807727337,-3.602696418762207
1403715275617143000,-0.0003338456153869629,0.012511923909187317,0.07964790612459183,8.977386474609375,-0.09489549696445465,-3.626776933670044
1403715275622143000,0.006605140864849091,0.010412197560071945,0.07535093277692795,9.034536361694336,-0.07922611385583878,-3.6675591468811035
1403715275627143000,0.015016838908195496,0.01118776760995388,0.07614175975322723,9.222512245178223,0.08429822325706482,-3.757246732711792
1403715275632143000,0.004607237875461578,0.025148166343569756,0.08099737018346786,9.117425918579102,0.3780144155025482,-3.7165770530700684
1403715275637143000,-0.005185149610042572,0.027216194197535515,0.0788443386554718,9.051688194274902,0.31251832842826843,-3.6841158866882324
1403715275642143000,-0.012217625975608826,0.028647949919104576,0.07615841180086136,9.059712409973145,0.26348477602005005,-3.7085633277893066
1403715275647143000,-0.012919694185256958,0.03498970717191696,0.07962613552808762,9.010798454284668,0.0760626345872879,-3.716942548751831
1403715275652143000,-0.010117724537849426,0.02440393529832363,0.08027514070272446,8.855186462402344,0.010564932599663734,-3.504983901977539
1403715275657143000,-0.0024435147643089294,0.022965939715504646,0.08383260667324066,8.944927215576172,0.0029518052469938993,-3.5700843334198
1403715275662143000,0.005201563239097595,0.01393253542482853,0.07824572920799255,9.0098295211792,-0.15246476233005524,-3.618567943572998
1403715275667143000,0.012912563979625702,0.005478097125887871,0.07187853008508682,9.156892776489258,-0.005559414625167847,-3.6757936477661133
1403715275672143000,0.01089140772819519,0.018090611323714256,0.07333794981241226,9.14957332611084,0.24763892590999603,-3.7736868858337402
1403715275677143000,0.004567354917526245,0.024459755048155785,0.07820628583431244,9.10903549194336,0.3693370223045349,-3.6837897300720215
1403715275682143000,-0.00590108335018158,0.025920270010828972,0.07676497846841812,9.157845497131348,0.3127479553222656,-3.741105556488037
1403715275687143000,-0.015687592327594757,0.027264339849352837,0.07472947239875793,9.182500839233398,0.21480245888233185,-3.700390338897705
1403715275692143000,-0.013615995645523071,0.03347775340080261,0.0803336352109909,8.912797927856445,0.0349523201584816,-3.6434922218322754
1403715275697143000,-0.010816596448421478,0.023660367354750633,0.07751677930355072,8.887693405151367,0.010582967661321163,-3.5621321201324463
1403715275702143000,-0.001768752932548523,0.016749365255236626,0.0775538980960846,9.059024810791016,-0.10315769910812378,-3.618671417236328
1403715275707143000,0.01011928915977478,0.01463734544813633,0.07754618674516678,9.01010513305664,-0.07029260694980621,-3.66767954826355
1403715275712143000,0.013629034161567688,0.01102898083627224,0.07394597679376602,9.140880584716797,0.06794752925634384,-3.773746967315674
1403715275717143000,0.012933507561683655,0.020941587164998055,0.08380693942308426,8.994482040405273,0.30431684851646423,-3.7329018115997314
1403715275722143000,-0.00030530989170074463,0.024521371349692345,0.07754187285900116,9.100722312927246,0.328892320394516,-3.7327880859375
1403715275727143000,-0.011507973074913025,0.023077568039298058,0.08021621406078339,9.272470474243164,0.3375476598739624,-3.798092842102051
1403715275732143000,-0.0177854523062706,0.03140433132648468,0.08030325174331665,9.125600814819336,0.2715113162994385,-3.6516098976135254
1403715275737143000,-0.017786666750907898,0.02789698727428913,0.07820641994476318,8.879594802856445,0.03441872075200081,-3.6355886459350586
1403715275742143000,-0.011542119085788727,0.01603987254202366,0.08033110201358795,8.887494087219238,-0.04597871005535126,-3.5945727825164795
1403715275747143000,-0.001075252890586853,0.013214631006121635,0.0789673924446106,9.124482154846191,-0.19222183525562286,-3.675710916519165
1403715275752143000,0.007334202527999878,0.013193311169743538,0.07956773042678833,9.018381118774414,0.027298813685774803,-3.7249319553375244
1403715275757143000,0.010844200849533081,0.020873675122857094,0.06981690227985382,9.075668334960938,0.15704478323459625,-3.765442371368408
1403715275762143000,0.01088683307170868,0.02171611599624157,0.07542568445205688,9.043241500854492,0.32077449560165405,-3.683887481689453
1403715275767143000,-0.0031097233295440674,0.02098475582897663,0.07816684246063232,9.14167594909668,0.32947367429733276,-3.7247283458709717
1403715275772143000,-0.011496424674987793,0.028568508103489876,0.08097314834594727,9.264369010925293,0.32121339440345764,-3.7247262001037598
1403715275777143000,-0.017786554992198944,0.027917740866541862,0.08107256889343262,8.88823127746582,0.17302265763282776,-3.5946950912475586
1403715275782143000,-0.015728555619716644,0.02168491668999195,0.08588318526744843,8.985637664794922,0.02692570351064205,-3.7335259914398193
1403715275787143000,-0.015021391212940216,0.013956312090158463,0.07678607106208801,8.969478607177734,-0.05406271666288376,-3.529114246368408
1403715275792143000,-0.0024653077125549316,0.015272289514541626,0.07891227304935455,9.18208122253418,-0.08652647584676743,-3.6920909881591797
1403715275797143000,0.006622940301895142,0.01314382441341877,0.07472610473632812,9.04263973236084,-0.08732599765062332,-3.73284912109375
1403715275802143000,0.01154915988445282,0.018157390877604485,0.07257787883281708,9.059226036071777,0.1659722626209259,-3.741027593612671
1403715275807143000,0.014415696263313293,0.02728850208222866,0.0782608836889267,9.092389106750488,0.2884272336959839,-3.6920177936553955
1403715275812143000,-0.004515886306762695,0.023714682087302208,0.08657645434141159,9.183045387268066,0.49206799268722534,-3.7247633934020996
1403715275817143000,-0.015017405152320862,0.03701097518205643,0.08371642231941223,9.207180976867676,0.29595041275024414,-3.7331435680389404
1403715275822143000,-0.02056809514760971,0.030063970014452934,0.07545678317546844,8.969435691833496,0.05919966101646423,-3.594766616821289
1403715275827143000,-0.012924045324325562,0.0292989332228899,0.07823202759027481,8.928465843200684,-0.012642010115087032,-3.700640916824341
1403715275832143000,-0.005219772458076477,0.020202985033392906,0.07258734107017517,8.945090293884277,-0.04629282280802727,-3.5454559326171875
1403715275837143000,0.005242735147476196,0.020857559517025948,0.07477936893701553,9.206138610839844,-0.11982160061597824,-3.8143649101257324
1403715275842143000,0.014288686215877533,0.02368973381817341,0.07408822327852249,9.164976119995117,-0.07074698060750961,-3.7491018772125244
1403715275847143000,0.015721619129180908,0.034907132387161255,0.074620820581913,9.181754112243652,0.08538550138473511,-3.8142566680908203
1403715275852143000,0.012333959341049194,0.034949563443660736,0.08587957918643951,8.970480918884277,0.47589218616485596,-3.6759161949157715
1403715275857143000,-0.008699223399162292,0.030712319537997246,0.07611335813999176,9.289034843444824,0.3855023980140686,-3.8143484592437744
1403715275862143000,-0.017137065529823303,0.03769075870513916,0.0823584645986557,8.961766242980957,0.2956574857234955,-3.5947253704071045
1403715275867143000,-0.02130318433046341,0.027179526165127754,0.07899250835180283,8.904176712036133,-0.12771828472614288,-3.6111257076263428
1403715275872143000,-0.015030547976493835,0.01881573162972927,0.07750406861305237,8.985601425170898,-0.10315904766321182,-3.602644443511963
1403715275877143000,0.0052671730518341064,0.018149280920624733,0.08032496273517609,9.059277534484863,-0.14409653842449188,-3.626824378967285
1403715275882143000,0.01224450021982193,0.02016403339803219,0.07540286332368851,9.37724781036377,-0.09554431587457657,-3.7979164123535156
1403715275887143000,0.019195809960365295,0.03417918086051941,0.08162384480237961,9.059195518493652,0.2155698537826538,-3.7083330154418945
1403715275892143000,0.007360860705375671,0.03006122075021267,0.07682126760482788,9.01904010772705,0.39414629340171814,-3.708434581756592
1403715275897143000,-0.00870715081691742,0.034222401678562164,0.0774957537651062,9.215291976928711,0.4024088978767395,-3.773576259613037
1403715275902143000,-0.018497198820114136,0.027865981683135033,0.07405790686607361,8.888895034790039,0.2799523174762726,-3.6353952884674072
1403715275907143000,-0.017070654779672623,0.023001356050372124,0.07684889435768127,9.116792678833008,-0.14474043250083923,-3.7088382244110107
1403715275912143000,-0.008723646402359009,0.0202674251049757,0.07400941848754883,9.03446102142334,-0.2674196660518646,-3.6513671875
1403715275917143000,0.00873362272977829,0.0265540461987257,0.06978797912597656,9.418296813964844,-0.07031648606061935,-3.879875659942627
1403715275922143000,0.017890185117721558,0.05241173505783081,0.07749916613101959,9.639041900634766,0.2728472352027893,-3.9122602939605713
1403715275927143000,0.0017443522810935974,0.08659624308347702,0.07051011174917221,9.214452743530273,0.4205476641654968,-4.001856803894043
1403715275932143000,-0.018480464816093445,0.0726814940571785,0.0636247992515564,8.601625442504883,0.23903556168079376,-3.5620720386505127
1403715275937143000,-0.02064395695924759,0.0516110435128212,0.07482831180095673,8.716845512390137,0.2230643928050995,-3.5374655723571777
1403715275942143000,-0.0157749205827713,0.036805637180805206,0.07681673020124435,8.725305557250977,-0.1281471699476242,-3.594625949859619
1403715275947143000,-0.0009719878435134888,0.024311905726790428,0.09353909641504288,9.076096534729004,0.16640998423099518,-3.7339015007019043
1403715275952143000,0.003907307982444763,0.04268132150173187,0.08945873379707336,9.091875076293945,0.09911660850048065,-3.659743309020996
1403715275957143000,0.0003010407090187073,0.03653120994567871,0.07673409581184387,8.943811416625977,0.00934082455933094,-3.528712034225464
1403715275962143000,0.002447269856929779,0.022969888523221016,0.06705418974161148,8.862709045410156,0.1014593169093132,-3.3490703105926514
1403715275967143000,0.006024152040481567,0.007397519424557686,0.07334300875663757,9.108255386352539,-0.11846007406711578,-3.520160675048828
1403715275972143000,0.01298658549785614,0.013751184567809105,0.08301138877868652,9.214648246765137,0.19861166179180145,-3.634692430496216
1403715275977143000,0.003888443112373352,0.03213711827993393,0.08592082560062408,9.468823432922363,0.4096646010875702,-3.7167305946350098
1403715275982143000,-0.014340490102767944,0.04979460686445236,0.07685208320617676,9.37045955657959,0.1401287168264389,-3.8061470985412598
1403715275987143000,-0.017182666808366776,0.030251046642661095,0.07194595783948898,8.561593055725098,0.06831727921962738,-3.382817268371582
1403715275992143000,-0.004484653472900391,0.018726175650954247,0.0774918869137764,9.247026443481445,-0.17601703107357025,-3.5533947944641113
1403715275997143000,0.009501397609710693,0.03263292461633682,0.09356244653463364,8.928140640258789,0.12513509392738342,-3.6681857109069824
1403715276002143000,0.005955979228019714,0.021502217277884483,0.10607980191707611,9.273015975952148,0.5894838571548462,-3.8152146339416504
1403715276007143000,-0.024897664785385132,0.03845197707414627,0.08940977603197098,9.109478950500488,0.5394758582115173,-3.6761221885681152
1403715276012143000,-0.041029274463653564,-0.004731183871626854,0.07556869089603424,8.423166275024414,-0.16119776666164398,-3.5457653999328613
1403715276017143000,-0.028243742883205414,-0.002261430025100708,0.0634763315320015,9.386048316955566,-0.3145405054092407,-3.7003183364868164
1403715276022143000,0.0067863985896110535,0.014596108347177505,0.07244832068681717,9.336709976196289,-0.5109937191009521,-3.6583406925201416
1403715276027143000,0.03338153660297394,0.04407108575105667,0.05586950480937958,9.107999801635742,-0.16943393647670746,-3.6994383335113525
1403715276032143000,0.03249350190162659,0.02254740707576275,0.04765138775110245,8.650629043579102,0.18122027814388275,-3.4630002975463867
1403715276037143000,0.02328677475452423,0.011129682883620262,0.06439250707626343,8.750534057617188,0.6544402241706848,-3.618834972381592
1403715276042143000,0.005250602960586548,0.0024942904710769653,0.08029922842979431,8.784202575683594,0.9163565635681152,-3.587246894836426
1403715276047143000,-0.027457870543003082,0.024910012260079384,0.08578483760356903,9.394991874694824,0.5010151267051697,-3.863797426223755
1403715276052143000,-0.043703995645046234,0.017737532034516335,0.08169863373041153,8.429488182067871,0.0026338950265198946,-3.260197639465332
1403715276057143000,-0.021485231816768646,-0.030509501695632935,0.09419672936201096,8.740311622619629,-0.21099796891212463,-3.2921154499053955
1403715276062143000,-0.0004713684320449829,-0.01340152882039547,0.09786868840456009,8.813752174377441,-0.15344199538230896,-3.4633939266204834
1403715276067143000,0.010929957032203674,-0.03580482304096222,0.10697159171104431,9.345603942871094,0.12448795884847641,-3.77447772026062
1403715276072143000,0.009578987956047058,0.006857754662632942,0.07463279366493225,9.344675064086914,0.010511412285268307,-3.765632390975952
1403715276077143000,0.005205169320106506,-0.0011326801031827927,0.06193628907203674,8.830615997314453,0.18251819908618927,-3.6098244190216064
1403715276082143000,-0.0017391666769981384,0.003547726199030876,0.07602924853563309,9.403986930847168,0.29677796363830566,-3.805196762084961
1403715276087143000,-0.0016402453184127808,0.013917850330471992,0.08794363588094711,9.166991233825684,0.3201204240322113,-3.8062403202056885
1403715276092143000,-0.007263258099555969,0.05505160987377167,0.06650341302156448,8.977575302124023,-0.12698906660079956,-3.7413508892059326
1403715276097143000,0.005221500992774963,0.011319013312458992,0.07631183415651321,8.650696754455566,-0.005067143123596907,-3.513278007507324
1403715276102143000,-0.0052534788846969604,0.0012650880962610245,0.05847626551985741,9.206831932067871,0.14991851150989532,-3.986079692840576
1403715276107143000,-0.013090252876281738,0.01109994761645794,0.08020363748073578,8.742326736450195,0.6220260858535767,-3.750392198562622
1403715276112143000,-0.026281408965587616,0.02363085187971592,0.07840372622013092,9.354449272155762,0.1838124692440033,-3.978057622909546
1403715276117143000,-0.019244268536567688,0.033001579344272614,0.08096269518136978,8.51016902923584,-0.41254350543022156,-3.2513933181762695
1403715276122143000,0.008125193417072296,-0.011687442660331726,0.08236028999090195,9.156867027282715,-0.3070067763328552,-3.985197067260742
1403715276127143000,0.01932135969400406,0.024119799956679344,0.07972925901412964,9.044148445129395,0.35104286670684814,-3.642449378967285
1403715276132143000,0.012286394834518433,0.020830916240811348,0.09065978974103928,9.32189655303955,0.4991327226161957,-4.018253326416016
1403715276137143000,-0.005998745560646057,0.06156355142593384,0.08309167623519897,8.895206451416016,0.035561271011829376,-3.5377938747406006
1403715276142143000,-0.0003277212381362915,0.01354573480784893,0.08095545321702957,8.780930519104004,-0.07758782804012299,-3.4555370807647705
1403715276147143000,0.0025538355112075806,0.020722022280097008,0.08579999208450317,9.516887664794922,0.10128159821033478,-3.8223960399627686
1403715276152143000,0.0011207088828086853,0.024885451421141624,0.0943509116768837,8.692244529724121,0.4519341289997101,-3.6273019313812256
1403715276157143000,-0.012959569692611694,0.04670657962560654,0.07679634541273117,9.695821762084961,0.2229827642440796,-4.043162822723389
1403715276162143000,-0.018017631024122238,0.03810708224773407,0.07400714606046677,8.568376541137695,0.1813906878232956,-3.268462896347046
1403715276167143000,-0.017113305628299713,-0.0029310937970876694,0.05646275728940964,9.240045547485352,0.026606041938066483,-3.7327651977539062
1403715276172143000,-0.00868302583694458,0.015059303492307663,0.06771896779537201,8.839101791381836,0.06964966654777527,-3.529433250427246
1403715276177143000,0.0018115192651748657,-0.0021582264453172684,0.07487373054027557,9.509157180786133,-0.028804033994674683,-3.9939699172973633
1403715276182143000,0.003151431679725647,0.04484402388334274,0.06151030957698822,9.213313102722168,-0.014425053261220455,-3.7738213539123535
1403715276187143000,0.004617080092430115,0.010721633210778236,0.05445946007966995,8.782380104064941,0.235780730843544,-3.4551262855529785
1403715276192143000,-0.003075242042541504,0.007419081404805183,0.06009857356548309,9.003318786621094,0.22119833528995514,-3.6265804767608643
1403715276197143000,-0.0003085881471633911,-0.004312449134886265,0.08087106049060822,8.98608112335205,0.2331750988960266,-3.668276786804199
1403715276202143000,0.00039890408515930176,0.025714470073580742,0.09077859669923782,9.622773170471191,0.21780718863010406,-3.9209179878234863
1403715276207143000,0.0003215223550796509,0.036513276398181915,0.0937439426779747,8.822240829467773,0.0010689496994018555,-3.5047624111175537
1403715276212143000,-0.00739838182926178,0.017534343525767326,0.09071116149425507,9.018445014953613,0.09049879014492035,-3.7244269847869873
1403715276217143000,-0.014391079545021057,0.01965579204261303,0.07192377746105194,8.716569900512695,0.11794035136699677,-3.4478585720062256
1403715276222143000,-0.0003155320882797241,-0.000879296101629734,0.09706002473831177,9.084139823913574,0.09416431933641434,-3.6440157890319824
1403715276227143000,0.006044276058673859,0.03340043127536774,0.10597573965787888,9.630170822143555,0.026516597718000412,-3.7818896770477295
1403715276232143000,0.002464190125465393,0.03018180839717388,0.09208039939403534,8.740811347961426,0.1380513459444046,-3.5613417625427246
1403715276237143000,0.006608538329601288,0.015380796045064926,0.08256237208843231,9.043278694152832,0.14977899193763733,-3.6183369159698486
1403715276242143000,0.002409510314464569,0.02311568520963192,0.06710529327392578,8.76529598236084,0.04591796174645424,-3.618878126144409
1403715276247143000,0.003936141729354858,-0.002284958027303219,0.06899946182966232,9.059812545776367,0.24720586836338043,-3.6358695030212402
1403715276252143000,0.001226469874382019,0.0334797203540802,0.08031567931175232,9.631563186645508,0.40763646364212036,-3.9127776622772217
1403715276257143000,-0.016477685421705246,0.03776755928993225,0.07466674596071243,8.691824913024902,0.3854486048221588,-3.6182615756988525
1403715276262143000,-0.024254418909549713,0.005001751706004143,0.061512626707553864,8.610700607299805,0.1922033727169037,-3.537743330001831
1403715276267143000,-0.017821483314037323,0.01672304980456829,0.06240535154938698,9.263205528259277,-0.18388472497463226,-3.6592886447906494
1403715276272143000,-0.0009944736957550049,0.0012744497507810593,0.06076762452721596,8.969261169433594,-0.10461151599884033,-3.6356046199798584
1403715276277143000,0.0032529085874557495,0.016654936596751213,0.06543658673763275,9.7122802734375,0.0671103298664093,-3.9043710231781006
1403715276282143000,0.00040762871503829956,0.05733626335859299,0.07616777718067169,8.936567306518555,0.2719968855381012,-3.544283390045166
1403715276287143000,-0.008117727935314178,0.011423973366618156,0.0747719258069992,8.56987190246582,0.10805825889110565,-3.455610752105713
1403715276292143000,-0.008765429258346558,0.0068396274000406265,0.08320216834545135,9.11670207977295,-0.02148384414613247,-3.6677029132843018
1403715276297143000,0.006044603884220123,-0.007217979058623314,0.09233300387859344,9.043768882751465,-0.02153261937201023,-3.6842234134674072
1403715276302143000,0.013729356229305267,0.018776798620820045,0.09467121958732605,9.679596900939941,0.1498478353023529,-4.010456085205078
1403715276307143000,0.003141433000564575,0.04966127872467041,0.08710487186908722,8.781570434570312,0.3208954334259033,-3.634586811065674
1403715276312143000,-0.012296460568904877,0.010860303416848183,0.09292186051607132,8.986997604370117,0.35261306166648865,-3.6431972980499268
1403715276317143000,-0.017916694283485413,0.021578004583716393,0.0866369903087616,9.067466735839844,-0.05466392636299133,-3.610945224761963
1403715276322143000,-0.01084495335817337,-0.0039031533524394035,0.09229446202516556,8.634572982788086,-0.012604552321135998,-3.5950679779052734
1403715276327143000,0.002587631344795227,-0.007813628762960434,0.09766243398189545,9.655299186706543,-0.061745427548885345,-3.8553576469421387
1403715276332143000,0.014371916651725769,0.05394680052995682,0.08696871995925903,9.646836280822754,0.019043806940317154,-3.976820468902588
1403715276337143000,0.00796864926815033,0.032414741814136505,0.06706500053405762,8.708111763000488,0.1394699662923813,-3.4718754291534424
1403715276342143000,-0.0031095147132873535,0.016133753582835197,0.05043559521436691,9.166380882263184,0.2382001131772995,-3.6189157962799072
1403715276347143000,-0.005886837840080261,0.01578293927013874,0.06919221580028534,8.69174861907959,0.16687801480293274,-3.7166543006896973
1403715276352143000,-0.004477106034755707,-0.005063053220510483,0.0691247433423996,9.426370620727539,0.10965613275766373,-3.847635507583618
1403715276357143000,-0.0010202974081039429,0.033394113183021545,0.07468920201063156,9.428139686584473,0.30476662516593933,-3.870978593826294
1403715276362143000,-0.010165475308895111,0.04223587363958359,0.07475398480892181,8.700608253479004,0.24637086689472198,-3.700336217880249
1403715276367143000,-0.018581409007310867,0.028918346390128136,0.05653461441397667,9.115445137023926,-0.03798363730311394,-3.455981731414795
1403715276372143000,-0.011547252535820007,0.015117708593606949,0.06576437503099442,8.724403381347656,-0.029126178473234177,-3.5375492572784424
1403715276377143000,-0.00515960156917572,-0.0016348902136087418,0.06714509427547455,8.855117797851562,0.010686138644814491,-3.7250144481658936
1403715276382143000,-0.0010244697332382202,0.013802485540509224,0.09199598431587219,9.524497985839844,0.002015379024669528,-3.8467702865600586
1403715276387143000,0.004509150981903076,0.035743750631809235,0.09014686942100525,9.198579788208008,0.14985214173793793,-3.7406184673309326
1403715276392143000,0.0031508952379226685,0.03249550610780716,0.0880536288022995,8.969710350036621,0.13259269297122955,-3.5373778343200684
1403715276397143000,0.0032152533531188965,0.029908297583460808,0.08928848803043365,8.928810119628906,0.10896021872758865,-3.4638941287994385
1403715276402143000,0.0004732087254524231,0.0025999248027801514,0.0739520713686943,8.699581146240234,-0.03863070532679558,-3.5700619220733643
1403715276407143000,0.005224242806434631,-0.003696105442941189,0.07743918895721436,9.059432983398438,0.14069803059101105,-3.7084569931030273
1403715276412143000,0.007243335247039795,0.022283783182501793,0.08940118551254272,9.459989547729492,0.2313363403081894,-3.8874216079711914
1403715276417143000,0.00031750649213790894,0.03104272671043873,0.08944965153932571,9.092649459838867,0.18332459032535553,-3.8395044803619385
1403715276422143000,-0.014990240335464478,0.035033680498600006,0.07897976040840149,9.03515625,0.28065770864486694,-3.5786638259887695
1403715276427143000,-0.015007421374320984,0.03064805082976818,0.07326007634401321,9.009988784790039,0.1571185290813446,-3.577861785888672
1403715276432143000,-0.00731813907623291,0.010263318195939064,0.0752488300204277,8.650765419006348,-0.2839701473712921,-3.38201904296875
1403715276437143000,-0.0003539770841598511,0.00044262222945690155,0.055826157331466675,9.336760520935059,-0.23343072831630707,-3.8222014904022217
1403715276442143000,0.019216902554035187,0.020368332043290138,0.0721500962972641,9.198720932006836,0.1574278175830841,-3.830777883529663
1403715276447143000,0.01853640377521515,0.027416644617915154,0.0852878987789154,9.232333183288574,0.49965885281562805,-3.937527894973755
1403715276452143000,-0.0051854997873306274,0.04261045902967453,0.07256295531988144,9.133166313171387,0.49253448843955994,-3.684293746948242
1403715276457143000,-0.026140227913856506,0.026605935767292976,0.0747736394405365,8.684021949768066,0.3206580579280853,-3.5614821910858154
1403715276462143000,-0.02135469764471054,0.016518661752343178,0.07598647475242615,8.871289253234863,-0.29140591621398926,-3.503995656967163
1403715276467143000,-0.0025011003017425537,0.006815105676651001,0.07589825987815857,9.335962295532227,-0.32249876856803894,-3.7894864082336426
1403715276472143000,0.016487866640090942,0.016089918091893196,0.08127183467149734,9.223579406738281,0.06878121942281723,-3.8476452827453613
1403715276477143000,0.014411211013793945,0.049777545034885406,0.08597948402166367,9.900754928588867,0.40163981914520264,-4.149313449859619
1403715276482143000,-0.003935366868972778,0.06369315832853317,0.07040980458259583,8.903719902038574,0.31235960125923157,-3.7329304218292236
1403715276487143000,-0.013585440814495087,0.04330644756555557,0.0677717924118042,9.076125144958496,0.16703522205352783,-3.6592888832092285
1403715276492143000,-0.0023560822010040283,0.04867289960384369,0.06903782486915588,9.15662956237793,-0.2410208135843277,-3.6501595973968506
1403715276497143000,0.019992969930171967,0.02913903258740902,0.08850572258234024,8.969549179077148,-0.05414200946688652,-3.6921494007110596
1403715276502143000,0.026261158287525177,0.04805766046047211,0.10210457444190979,9.21600341796875,0.606077253818512,-3.815237522125244
1403715276507143000,-0.0018054991960525513,0.05037976801395416,0.0852864533662796,8.94622802734375,0.7587237358093262,-3.7335617542266846
1403715276512143000,-0.02424050122499466,0.032238155603408813,0.08165549486875534,9.075610160827637,0.20613695681095123,-3.76631760597229
1403715276517143000,-0.026894941926002502,0.03338315337896347,0.06775452941656113,8.985175132751465,-0.20662425458431244,-3.5452330112457275
1403715276522143000,0.0025544315576553345,0.026378022506833076,0.07947666943073273,8.854419708251953,-0.34645113348960876,-3.364542245864868
1403715276527143000,0.030511587858200073,0.011043978855013847,0.09001907706260681,9.205585479736328,-0.1865672469139099,-3.568988800048828
1403715276532143000,0.024778150022029877,0.03765619546175003,0.07966673374176025,9.149720191955566,0.4090574085712433,-3.5615968704223633
1403715276537143000,-0.007451608777046204,0.005577968433499336,0.06853033602237701,8.759248733520508,0.8733776211738586,-3.457063913345337
1403715276542143000,-0.04233143478631973,0.0005735699087381363,0.055962126702070236,8.946657180786133,0.48351624608039856,-3.5215952396392822
1403715276547143000,-0.04291974753141403,-0.0014105020090937614,0.07670609652996063,8.666818618774414,0.011904551647603512,-3.2926323413848877
1403715276552143000,-0.017716489732265472,-0.005587641149759293,0.08643936365842819,9.47517204284668,-0.7320348024368286,-3.7070248126983643
1403715276557143000,0.011567756533622742,0.03418005257844925,0.09226475656032562,8.936285972595215,-0.4383048117160797,-3.544480085372925
1403715276562143000,0.03243207931518555,0.00644269771873951,0.07210841774940491,8.69188117980957,-0.06390596181154251,-3.4964635372161865
1403715276567143000,0.038776032626628876,0.016725724563002586,0.07132957875728607,9.04322624206543,0.3514559864997864,-3.6599626541137695
1403715276572143000,0.022093206644058228,0.010961111634969711,0.07539358735084534,8.840550422668457,0.5983152389526367,-3.6025962829589844
1403715276577143000,-0.0114755779504776,0.02578517608344555,0.06961026787757874,9.061112403869629,0.6079074740409851,-3.864109754562378
1403715276582143000,-0.021385498344898224,0.017635801807045937,0.08794693648815155,8.652368545532227,0.3623737394809723,-3.5538363456726074
1403715276587143000,-0.027042187750339508,-0.008271684870123863,0.0832468718290329,8.806344985961914,-0.10532776266336441,-3.6107537746429443
1403715276592143000,-0.01363980770111084,0.0021040458232164383,0.09992438554763794,9.01837158203125,0.11574140936136246,-3.6112968921661377
1403715276597143000,-0.015582442283630371,0.01576274074614048,0.08178167045116425,9.263907432556152,-0.006150695960968733,-3.716853141784668
1403715276602143000,-0.013614669442176819,0.01962517760694027,0.06195560097694397,9.09100341796875,-0.11226768791675568,-3.561837673187256
1403715276607143000,-0.007394872605800629,0.010583912953734398,0.06901587545871735,8.813841819763184,-0.14369137585163116,-3.5204505920410156
1403715276612143000,0.008707180619239807,0.010419508442282677,0.07966303825378418,9.141342163085938,-0.0034973786678165197,-3.7076053619384766
1403715276617143000,0.019318409264087677,0.025064742192626,0.08180400729179382,9.329350471496582,0.0856519341468811,-3.732323408126831
1403715276622143000,0.013753868639469147,0.046044036746025085,0.06375090777873993,9.198310852050781,0.10800495743751526,-3.7812962532043457
1403715276627143000,0.0025677233934402466,0.03583738952875137,0.05576544627547264,9.059548377990723,0.2612632215023041,-3.6020658016204834
1403715276632143000,-0.004616498947143555,0.016706613823771477,0.0800396203994751,8.946078300476074,0.35406023263931274,-3.798341989517212
1403715276637143000,-0.0143805593252182,0.02072395570576191,0.09007319808006287,9.027877807617188,0.4449141025543213,-3.700878858566284
1403715276642143000,-0.017164606600999832,0.04461687058210373,0.08672700822353363,9.059257507324219,-0.06978584080934525,-3.814936876296997
1403715276647143000,-0.007374338805675507,0.0021709129214286804,0.07909082621335983,8.781383514404297,-0.25896531343460083,-3.5294382572174072
1403715276652143000,-0.0031713247299194336,-0.00275361817330122,0.07045754790306091,9.426719665527344,0.07724052667617798,-3.9042863845825195
1403715276657143000,-0.005960583686828613,0.008241528645157814,0.09552566707134247,8.73404312133789,0.4166165888309479,-3.627040386199951
1403715276662143000,-0.010775044560432434,0.006786404177546501,0.09620846807956696,9.574188232421875,-0.04086819663643837,-3.8302927017211914
1403715276667143000,-0.0024808496236801147,0.02601204626262188,0.08581850677728653,8.739649772644043,-0.3228486180305481,-3.340876817703247
1403715276672143000,0.0193147212266922,-0.004040957428514957,0.06567244231700897,9.647069931030273,-0.27209725975990295,-4.017989635467529
1403715276677143000,0.02006717026233673,0.036797814071178436,0.0692681148648262,9.239360809326172,0.3869021236896515,-3.8306849002838135
1403715276682143000,0.005298331379890442,0.02429063804447651,0.08027438819408417,9.02820873260498,0.669277012348175,-3.8473994731903076
1403715276687143000,-0.012263283133506775,0.06506814807653427,0.07673265039920807,9.140727996826172,0.17336590588092804,-3.7328450679779053
1403715276692143000,-0.012997835874557495,0.010674184188246727,0.07534058392047882,8.585254669189453,0.05310526117682457,-3.325253486633301
1403715276697143000,-0.007341861724853516,0.019328849390149117,0.06627283990383148,9.55772876739502,0.07853750139474869,-4.075868606567383
1403715276702143000,-0.012260973453521729,0.022952334955334663,0.06793136149644852,8.740753173828125,0.20693011581897736,-3.676379442214966
1403715276707143000,-0.010202690958976746,0.04051145911216736,0.06925664842128754,9.45940113067627,0.14151301980018616,-3.9617419242858887
1403715276712143000,-0.005287602543830872,0.04710634797811508,0.07115048915147781,8.780231475830078,-0.08839169889688492,-3.2353012561798096
1403715276717143000,0.0067582279443740845,-0.002858169376850128,0.07943890243768692,9.435667991638184,0.08294115215539932,-3.920076847076416
1403715276722143000,-0.0002057105302810669,0.03598931431770325,0.08595427870750427,8.815166473388672,0.4430752694606781,-3.660278558731079
1403715276727143000,-0.0044930726289749146,0.04183410108089447,0.0908537432551384,9.165740013122559,0.2482377290725708,-3.692044973373413
1403715276732143000,-0.008103057742118835,0.044810615479946136,0.0866609513759613,8.829925537109375,-0.005453833844512701,-3.333082675933838
1403715276737143000,-0.005970679223537445,0.014890238642692566,0.08090217411518097,8.806474685668945,0.058215994387865067,-3.43119478225708
1403715276742143000,0.004632636904716492,0.03185488283634186,0.09202318638563156,9.263545989990234,0.13343609869480133,-3.765902042388916
1403715276747143000,0.012282252311706543,0.0375760942697525,0.09288409352302551,9.173274040222168,0.24181511998176575,-3.6436591148376465
1403715276752143000,0.008716903626918793,0.051624469459056854,0.07697431743144989,8.886849403381348,-0.02023739367723465,-3.5532405376434326
1403715276757143000,0.0023907124996185303,0.024767687544226646,0.06364289671182632,8.626724243164062,0.33511093258857727,-3.26802396774292
1403715276762143000,0.0031040161848068237,0.016530146822333336,0.07945223152637482,9.313767433166504,0.32716798782348633,-3.7977802753448486
1403715276767143000,-0.00945001095533371,0.025621840730309486,0.085744708776474,9.051673889160156,0.29776886105537415,-3.9053807258605957
1403715276772143000,-0.019127309322357178,0.036364294588565826,0.08319465070962906,8.888169288635254,0.11845146119594574,-3.4239399433135986
1403715276777143000,-0.021980084478855133,-0.0005354518070816994,0.06512756645679474,8.683104515075684,-0.2537958025932312,-2.916599750518799
1403715276782143000,0.002366773784160614,-0.016158444806933403,0.08580561727285385,9.66334342956543,-0.08988519757986069,-3.6907317638397217
1403715276787143000,0.002442404627799988,0.019994540140032768,0.08795946836471558,9.385669708251953,0.16718679666519165,-3.9863905906677246
1403715276792143000,-0.011440172791481018,0.020233383402228355,0.07612685859203339,8.757686614990234,0.05337965488433838,-3.391411781311035
1403715276797143000,-0.003808140754699707,0.0008937157690525055,0.06843078136444092,8.993264198303223,-0.20915724337100983,-3.364704132080078
1403715276802143000,0.01147131621837616,-0.009726755321025848,0.07323936372995377,9.419354438781738,0.016956433653831482,-3.560100793838501
1403715276807143000,0.015089988708496094,0.03186776489019394,0.08588993549346924,9.60859203338623,0.6630917191505432,-4.124527454376221
1403715276812143000,-0.0037471577525138855,0.04054810106754303,0.08820565044879913,8.472017288208008,0.3382321298122406,-3.4972822666168213
1403715276817143000,-0.014412544667720795,-0.0073314327746629715,0.0697992816567421,8.715740203857422,0.04419610649347305,-3.7496535778045654
1403715276822143000,-0.005367539823055267,0.009891459718346596,0.08008885383605957,9.696258544921875,0.16546596586704254,-3.806236743927002
1403715276827143000,-0.00862950086593628,0.03246616572141647,0.07542084902524948,9.468859672546387,0.384804368019104,-4.002084732055664
1403715276832143000,-0.016963668167591095,0.05297771841287613,0.07283374667167664,8.32393741607666,-0.33964279294013977,-3.415235996246338
1403715276837143000,0.00587812066078186,-0.01006235834211111,0.08041735738515854,8.853667259216309,-0.26558735966682434,-3.6026744842529297
1403715276842143000,0.020565301179885864,0.031519725918769836,0.07942302525043488,10.02229118347168,0.12470422685146332,-3.895487070083618
1403715276847143000,-0.0017055273056030273,0.04844742268323898,0.07118377089500427,8.43139362335205,0.30264222621917725,-3.553403854370117
1403715276852143000,-0.019792307168245316,0.006790049374103546,0.06865034252405167,8.749788284301758,-0.005695515777915716,-3.4878218173980713
1403715276857143000,0.0030095577239990234,0.004699280485510826,0.10259614884853363,9.065969467163086,-0.15122218430042267,-3.447174072265625
1403715276862143000,0.0030986592173576355,0.03213145583868027,0.08007586002349854,9.703685760498047,0.0857328325510025,-3.953263521194458
1403715276867143000,-0.014845505356788635,0.03586091101169586,0.06648081541061401,8.627737045288086,0.18116697669029236,-3.5206239223480225
1403715276872143000,-0.015690401196479797,0.007784441113471985,0.0643896535038948,8.847663879394531,-0.04805104061961174,-3.470885992050171
1403715276877143000,0.008464343845844269,0.029708033427596092,0.10514222085475922,9.889259338378906,-0.3960331082344055,-3.8873095512390137
1403715276882143000,-0.0030946731567382812,0.08707872778177261,0.05731797590851784,8.683511734008789,0.2513512670993805,-3.9298958778381348
1403715276887143000,-0.011981278657913208,0.0338921993970871,0.06722494959831238,8.457415580749512,0.10648367553949356,-3.3907933235168457
1403715276892143000,0.012779057025909424,0.0030984487384557724,0.10254786908626556,9.271339416503906,-0.4010314643383026,-3.592682123184204
1403715276897143000,0.018253251910209656,0.07614157348871231,0.08285961300134659,9.579814910888672,-0.026621082797646523,-4.108231544494629
1403715276902143000,-0.003683842718601227,0.04093130677938461,0.06881071627140045,8.113106727600098,0.29770776629447937,-3.3920414447784424
1403715276907143000,-0.0022708922624588013,-0.002900380641222,0.08741900324821472,8.81587028503418,0.1936364471912384,-3.2514595985412598
1403715276912143000,0.012026257812976837,0.026182999834418297,0.1230078786611557,9.4986572265625,0.009329068474471569,-3.585031032562256
1403715276917143000,-0.005354136228561401,0.04660062491893768,0.07549126446247101,9.24625015258789,-0.0020647377241402864,-3.864274024963379
1403715276922143000,-0.023244082927703857,0.0002683177590370178,0.05694932863116264,8.325620651245117,0.4701647460460663,-3.2691712379455566
1403715276927143000,-0.012287572026252747,-0.01227467693388462,0.08978957682847977,9.46084976196289,0.15424272418022156,-3.6173605918884277
1403715276932143000,0.0099557563662529,0.056791022419929504,0.09330957382917404,9.6121826171875,-0.09652528166770935,-4.025985240936279
1403715276937143000,-0.009210050106048584,0.04848112165927887,0.035933662205934525,8.537010192871094,0.15311945974826813,-3.5627355575561523
1403715276942143000,-0.00017579644918441772,0.012046711519360542,0.07828807830810547,9.44605541229248,0.6244649291038513,-3.609832763671875
1403715276947143000,0.007898479700088501,0.06878485530614853,0.09330782294273376,9.735583305358887,-0.01676820032298565,-3.9115068912506104
1403715276952143000,-0.004597023129463196,0.06531496345996857,0.06081796810030937,8.583786964416504,0.04211457446217537,-3.758922576904297
1403715276957143000,-0.004325732588768005,0.0073304325342178345,0.06253007054328918,9.143157958984375,0.07185861468315125,-3.9292900562286377
1403715276962143000,-0.001000821590423584,0.05891459435224533,0.08141304552555084,9.57436752319336,0.13405738770961761,-3.6498117446899414
1403715276967143000,-0.0039634257555007935,0.042809002101421356,0.07942129671573639,8.41280746459961,-0.3273852467536926,-3.6035497188568115
1403715276972143000,-0.01150524616241455,-0.0053078969940543175,0.0459262877702713,8.684621810913086,0.07484882324934006,-3.5948574542999268
1403715276977143000,-0.0017303600907325745,0.008397644385695457,0.08514058589935303,9.650175094604492,0.5943633317947388,-3.845581293106079
1403715276982143000,-0.009548366069793701,0.051932401955127716,0.08978821337223053,8.601706504821777,0.353097528219223,-3.47271728515625
1403715276987143000,-0.02119472622871399,0.000462481752038002,0.06996691972017288,8.871073722839355,0.4405001699924469,-3.6522157192230225
1403715276992143000,0.003937393426895142,0.016110071912407875,0.09777233749628067,9.795489311218262,0.36200836300849915,-3.8293237686157227
1403715276997143000,0.0065930187702178955,0.06583508104085922,0.0891464501619339,8.960162162780762,0.2840321362018585,-3.6758639812469482
1403715277002143000,0.006095007061958313,0.018600458279252052,0.0741502195596695,8.495107650756836,0.3442692756652832,-3.252875804901123
1403715277007143000,0.02079254388809204,0.011183599010109901,0.10913043469190598,9.510098457336426,0.6189728379249573,-3.748347759246826
1403715277012143000,0.007906340062618256,0.05594512075185776,0.0939142256975174,9.172725677490234,0.3134397268295288,-3.6840574741363525
1403715277017143000,-0.008745536208152771,0.006827332079410553,0.0719732940196991,8.143392562866211,0.11230076104402542,-3.3026890754699707
1403715277022143000,-0.0029647350311279297,-0.03571004047989845,0.07580684125423431,9.3392333984375,0.2777673006057739,-3.5694093704223633
1403715277027143000,-0.003294810652732849,0.026642179116606712,0.09104163944721222,9.629908561706543,0.17168070375919342,-3.9442524909973145
1403715277032143000,-0.025576304644346237,0.01882771961390972,0.040492184460163116,8.412802696228027,0.011453679762780666,-3.1712841987609863
1403715277037143000,-0.01412876695394516,-0.059489838778972626,0.044621579349040985,8.775642395019531,-0.18334151804447174,-3.6509010791778564
1403715277042143000,0.017035193741321564,0.015569044277071953,0.08211030811071396,9.752748489379883,-0.11347222328186035,-3.828812837600708
1403715277047143000,0.009315788745880127,0.03209708631038666,0.06327693164348602,8.28320598602295,0.29610636830329895,-3.571380376815796
1403715277052143000,-0.009169116616249084,-0.03372523933649063,0.0850866436958313,8.833941459655762,0.36298465728759766,-3.562582492828369
1403715277057143000,0.0031069666147232056,0.052116259932518005,0.11859889328479767,10.209860801696777,0.20015178620815277,-4.212188720703125
1403715277062143000,-0.0075498223304748535,0.08045437186956406,0.10486125200986862,8.943398475646973,-0.10454507172107697,-3.7910311222076416
1403715277067143000,-0.012019127607345581,0.01367870531976223,0.08633581548929214,8.226978302001953,0.3941230773925781,-3.4411873817443848
1403715277072143000,0.0026578158140182495,0.032967813313007355,0.11465764790773392,9.794833183288574,0.053132496774196625,-3.967956066131592
1403715277077143000,0.0014787092804908752,0.07060927897691727,0.09245370328426361,8.428279876708984,-0.382419615983963,-3.611673355102539
1403715277082143000,0.009388014674186707,-0.017131131142377853,0.049803465604782104,8.423048973083496,0.08278007805347443,-3.5067176818847656
1403715277087143000,0.027806200087070465,9.57101583480835e-05,0.09872806072235107,9.51928997039795,0.3936687707901001,-3.854038715362549
1403715277092143000,0.0009482502937316895,0.055516816675662994,0.06310000270605087,8.657707214355469,0.2394518256187439,-3.7327773571014404
1403715277097143000,-0.02485296130180359,-0.008710118010640144,0.037039950489997864,8.63421630859375,0.3445257842540741,-3.2697336673736572
1403715277102143000,-0.0036652088165283203,0.0028203073889017105,0.08920758217573166,9.730342864990234,0.1654011309146881,-3.542863607406616
1403715277107143000,-0.015103213489055634,0.06927543133497238,0.056739725172519684,9.50619125366211,-0.12668418884277344,-4.042073726654053
1403715277112143000,-0.013543769717216492,0.02625082992017269,0.03495386615395546,8.788811683654785,-0.0782223641872406,-3.449063777923584
1403715277117143000,0.0020328909158706665,0.020285462960600853,0.08317610621452332,9.380664825439453,0.5171239972114563,-3.4387989044189453
1403715277122143000,-0.0033757686614990234,0.08117244392633438,0.09016883373260498,9.091490745544434,0.05228171870112419,-3.9033024311065674
1403715277127143000,-0.017877917736768723,0.01794028840959072,0.057865213602781296,8.45405101776123,-0.18586181104183197,-3.5147716999053955
1403715277132143000,-0.002213507890701294,-0.004348328337073326,0.0824510008096695,9.461974143981934,0.19799037277698517,-3.6354260444641113
1403715277137143000,0.012098148465156555,0.06025463342666626,0.10068551450967789,9.2874174118042,-0.11967888474464417,-3.853666067123413
1403715277142143000,0.0016954541206359863,0.01938392035663128,0.06060102581977844,8.240814208984375,-0.20058497786521912,-3.5872533321380615
1403715277147143000,0.006237313151359558,-0.023780234158039093,0.07195564359426498,9.511428833007812,0.38426682353019714,-3.603365182876587
1403715277152143000,0.010638996958732605,0.015552999451756477,0.09038674086332321,9.035347938537598,0.12968769669532776,-3.9519336223602295
1403715277157143000,-0.006120279431343079,-0.013608042150735855,0.05820638686418533,8.812689781188965,-0.04472284018993378,-4.232294082641602
1403715277162143000,-0.009156905114650726,0.008321642875671387,0.08156838268041611,9.667596817016602,0.7662507891654968,-4.002618789672852
1403715277167143000,-0.017802953720092773,0.04941307753324509,0.0962914526462555,8.766263008117676,0.04035935178399086,-3.764191150665283
1403715277172143000,-0.016626153141260147,0.013846658170223236,0.05473998188972473,8.74657154083252,-0.4481765925884247,-4.231166362762451
1403715277177143000,0.0109158456325531,-0.00022995099425315857,0.08286479115486145,9.273416519165039,0.3652225136756897,-4.012115955352783
1403715277182143000,0.01580514758825302,0.058012962341308594,0.10973917692899704,8.577377319335938,0.059701863676309586,-3.7251956462860107
1403715277187143000,-0.0011159181594848633,-0.009175130166113377,0.06935650110244751,8.150213241577148,0.28578099608421326,-3.995349884033203
1403715277192143000,0.010120421648025513,-0.014564531855285168,0.11069700866937637,9.46255874633789,0.7623363733291626,-4.288194179534912
1403715277197143000,-0.013661175966262817,0.06457879394292831,0.11108323931694031,8.829769134521484,-0.1700930893421173,-3.570399045944214
1403715277202143000,-0.012323617935180664,-0.021919336169958115,0.0824170857667923,8.452424049377441,-0.036719225347042084,-4.305230140686035
1403715277207143000,0.02368725836277008,0.021658064797520638,0.09261921793222427,9.705121040344238,0.16860608756542206,-4.148562431335449
1403715277212143000,0.004539363086223602,0.049971066415309906,0.08394955098628998,8.396356582641602,-0.19549575448036194,-3.316992998123169
1403715277217143000,0.0037326663732528687,-0.029865972697734833,0.05528169497847557,8.895726203918457,0.3191547989845276,-3.6921753883361816
1403715277222143000,0.017972737550735474,0.024309935048222542,0.094774529337883,9.97655200958252,0.6899265646934509,-3.8297836780548096
1403715277227143000,-0.029104232788085938,0.051489412784576416,0.050461068749427795,7.938953399658203,0.18986095488071442,-3.148071527481079
1403715277232143000,-0.03251206874847412,-0.049835801124572754,0.04498513042926788,8.543493270874023,0.10041511803865433,-3.668961763381958
1403715277237143000,-0.01268818974494934,0.001981101930141449,0.090496726334095,10.392366409301758,0.4442736804485321,-3.966888427734375
1403715277242143000,-0.04177258908748627,0.04925660043954849,0.044638436287641525,8.250389099121094,-0.11534679681062698,-3.285813570022583
1403715277247143000,-0.025448329746723175,-0.0409388467669487,0.05368286371231079,9.083246231079102,-0.35053130984306335,-3.6192262172698975
1403715277252143000,0.014653623104095459,0.044210031628608704,0.115694560110569,10.619132041931152,0.046493250876665115,-3.688326835632324
1403715277257143000,-0.004707768559455872,0.09275152534246445,0.07729831337928772,7.433055877685547,-0.15271005034446716,-3.155222177505493
1403715277262143000,0.01102912425994873,-0.014588670805096626,0.07680650055408478,9.33727741241455,0.2633124589920044,-3.84855318069458
1403715277267143000,0.03124624490737915,0.08961602300405502,0.11217286437749863,9.72304630279541,0.34755557775497437,-4.3669633865356445
1403715277272143000,-0.0034579336643218994,0.02363904006779194,0.05815320461988449,7.163309097290039,-0.009711670689284801,-3.3924930095672607
1403715277277143000,0.0018746554851531982,-0.053102344274520874,0.0811411514878273,9.101238250732422,0.4285389482975006,-4.093820571899414
1403715277282143000,-0.004298761487007141,0.05740063637495041,0.10876026004552841,9.601712226867676,0.3138104975223541,-3.771557092666626
1403715277287143000,-0.03008653223514557,-0.021132955327630043,0.06848952919244766,7.856462001800537,-0.042854879051446915,-3.3677420616149902
1403715277292143000,-0.011393629014492035,-0.057600729167461395,0.08195041120052338,9.964879035949707,0.21588198840618134,-3.9953665733337402
1403715277297143000,-0.009188055992126465,0.0750117227435112,0.10576686263084412,9.721765518188477,0.2673576772212982,-3.8862051963806152
1403715277302143000,-0.020829521119594574,0.007850343361496925,0.0712231993675232,8.093419075012207,-0.12271557748317719,-3.3917884826660156
1403715277307143000,-0.0029353052377700806,-0.0248604454100132,0.08136820793151855,9.981099128723145,-0.18537424504756927,-4.1891770362854
1403715277312143000,0.012397170066833496,0.09689969569444656,0.09889793395996094,8.75959587097168,-0.03640080615878105,-3.6334283351898193
1403715277317143000,0.01557614654302597,-0.0014159278944134712,0.07065346091985703,8.175361633300781,-0.2441568821668625,-3.537980079650879
1403715277322143000,0.030712217092514038,0.018319105729460716,0.0730392336845398,10.446809768676758,0.3453673720359802,-3.8943519592285156
1403715277327143000,0.012276649475097656,0.08601237088441849,0.06938087940216064,8.98842716217041,0.25635209679603577,-3.7482759952545166
1403715277332143000,-0.008962571620941162,-0.036523476243019104,0.039235763251781464,8.035242080688477,0.09862419217824936,-3.441437244415283
1403715277337143000,-0.009242810308933258,0.00015273503959178925,0.05758097022771835,10.269498825073242,0.8134523630142212,-4.311461925506592
1403715277342143000,-0.03602078557014465,0.07253289967775345,0.058999620378017426,8.531774520874023,0.28615689277648926,-3.58599591255188
1403715277347143000,-0.0466589629650116,-0.055956415832042694,0.04584648087620735,8.248693466186523,-0.04118851572275162,-3.310035467147827
1403715277352143000,-0.015634700655937195,0.016697125509381294,0.0707673653960228,10.562607765197754,0.16176341474056244,-4.114369869232178
1403715277357143000,-0.009493216872215271,0.06134698539972305,0.0867377370595932,8.301278114318848,-0.44673460721969604,-3.292466402053833
1403715277362143000,0.0073824599385261536,-0.04807078838348389,0.09318237751722336,9.146044731140137,-0.0654478371143341,-3.767136812210083
1403715277367143000,0.0306740403175354,0.09222573786973953,0.11264775693416595,9.933316230773926,0.14380447566509247,-3.9516141414642334
1403715277372143000,0.02687382698059082,0.047458767890930176,0.09792701154947281,8.014732360839844,-0.3325267434120178,-3.4471006393432617
1403715277377143000,0.04584825038909912,-0.01889709010720253,0.12054197490215302,9.326512336730957,0.4349840581417084,-3.709578514099121
1403715277382143000,0.02916806936264038,0.11738022416830063,0.12164168804883957,9.259037017822266,0.6075168251991272,-3.844973564147949
1403715277387143000,-0.008241429924964905,0.017419660463929176,0.078188456594944,7.4182353019714355,0.3995814323425293,-3.327096939086914
1403715277392143000,-0.012272708117961884,-0.03896019607782364,0.08503879606723785,9.94105339050293,0.8526845574378967,-3.749969005584717
1403715277397143000,-0.036028847098350525,0.09028387814760208,0.07829850912094116,9.126031875610352,0.11016198247671127,-3.829864263534546
1403715277402143000,-0.04868173599243164,-0.025514094159007072,0.020324908196926117,7.488807678222656,-0.17993424832820892,-3.180756092071533
1403715277407143000,-0.020497605204582214,-0.03056570515036583,0.04841187968850136,10.168338775634766,0.3710298240184784,-3.7729339599609375
1403715277412143000,-0.022009514272212982,0.09769200533628464,0.05462890490889549,8.921374320983887,-0.34818848967552185,-3.5842976570129395
1403715277417143000,-0.0038757696747779846,-0.026678573340177536,0.04789908975362778,8.805318832397461,0.05733747035264969,-3.3670589923858643
1403715277422143000,0.02311064302921295,0.038539305329322815,0.09818616509437561,10.78158950805664,0.23872590065002441,-3.9182357788085938
1403715277427143000,0.008872002363204956,0.1056557223200798,0.0868547260761261,7.484347343444824,-0.08753577619791031,-3.6599137783050537
1403715277432143000,0.022717952728271484,-0.04573151469230652,0.10778237134218216,9.0592622756958,0.5174275040626526,-3.8573012351989746
1403715277437143000,0.010368712246418,0.11976992338895798,0.11142759025096893,10.300243377685547,0.24061861634254456,-3.9515020847320557
1403715277442143000,-0.003246903419494629,0.0518999919295311,0.08468034863471985,7.115122318267822,-0.24438884854316711,-2.7223591804504395
1403715277447143000,0.003168925642967224,-0.07385402172803879,0.10025402903556824,9.842789649963379,0.5167393684387207,-3.398925304412842
1403715277452143000,-0.02063656598329544,0.08151853084564209,0.08546561747789383,9.5322904586792,0.22558781504631042,-3.4538192749023438
1403715277457143000,-0.0285356305539608,-0.018531043082475662,0.0528983548283577,8.23575496673584,-0.3819161355495453,-3.1880674362182617
1403715277462143000,0.0004460960626602173,-0.04104035347700119,0.07327073067426682,10.421836853027344,0.3860620856285095,-3.6172034740448
1403715277467143000,-0.006606206297874451,0.08225999772548676,0.07970712333917618,9.418560028076172,-0.6191715002059937,-3.1416125297546387
1403715277472143000,0.010798677802085876,-0.043702177703380585,0.06400039792060852,8.725213050842285,0.06597471237182617,-3.2606289386749268
1403715277477143000,0.023072898387908936,0.025617467239499092,0.0785275548696518,10.431801795959473,0.548916220664978,-3.4693992137908936
1403715277482143000,-0.010864287614822388,0.061470016837120056,0.05745071545243263,8.465316772460938,0.25336670875549316,-3.283025026321411
1403715277487143000,-0.008046291768550873,-0.04803796857595444,0.06466702371835709,9.623958587646484,0.5070655941963196,-3.856992244720459
1403715277492143000,-0.022567950189113617,0.052379973232746124,0.0777711495757103,9.702936172485352,0.12710483372211456,-3.6094319820404053
1403715277497143000,-0.01725659891963005,0.01758594997227192,0.08244823664426804,7.885434627532959,-0.1363341361284256,-3.4484617710113525
1403715277502143000,-0.004506811499595642,-0.016203179955482483,0.08496151864528656,9.867804527282715,0.2735813856124878,-4.117436408996582
1403715277507143000,-0.007343284785747528,0.040482260286808014,0.10215026140213013,9.97216510772705,-0.20086222887039185,-4.131277561187744
1403715277512143000,0.0043167173862457275,-0.0015634763985872269,0.10404519736766815,7.8772172927856445,0.008172792382538319,-3.6449646949768066
1403715277517143000,0.006723672151565552,0.02308276854455471,0.0794859528541565,8.618082046508789,0.5252468585968018,-3.422849178314209
1403715277522143000,0.0032480210065841675,0.033157505095005035,0.06440731883049011,9.000821113586426,-0.2820972204208374,-3.5519516468048096
1403715277527143000,0.02475634217262268,-0.044916316866874695,0.08004362136125565,9.64901351928711,0.4025912880897522,-3.8978214263916016
1403715277532143000,0.005363546311855316,0.00699337013065815,0.07805927097797394,10.307244300842285,0.22122345864772797,-4.360436916351318
1403715277537143000,-0.0016774609684944153,0.054807379841804504,0.0624578557908535,8.052945137023926,0.4750262200832367,-3.373246908187866
1403715277542143000,-0.012807242572307587,0.04200826585292816,0.05229787155985832,8.749370574951172,0.8274279832839966,-3.3246517181396484
1403715277547143000,-0.04370155930519104,0.0796806588768959,0.03945207595825195,10.328782081604004,-0.396645188331604,-4.098293781280518
1403715277552143000,-0.010947324335575104,0.032426558434963226,0.0721442922949791,8.521905899047852,-0.19179579615592957,-3.6611123085021973
1403715277557143000,-0.0023979246616363525,0.04803849756717682,0.07567685097455978,8.365230560302734,0.17531688511371613,-3.465043067932129
1403715277562143000,0.001004643738269806,0.09780318289995193,0.05799821764230728,8.467001914978027,-0.3087961673736572,-3.249500036239624
