#timestamp [ns],w_RS_S_x [rad s^-1],w_RS_S_y [rad s^-1],w_RS_S_z [rad s^-1],a_RS_S_x [m s^-2],a_RS_S_y [m s^-2],a_RS_S_z [m s^-2]
1403715273262143000,-0.0020943951023931952,0.017453292519943295,0.07749261878854824,9.087495666666666,0.13075533333333333,-3.693838166666666
1403715273267143000,-0.0013962634015954637,0.019547687622336492,0.07819075048934597,9.079323458333333,0.122583125,-3.693838166666666
1403715273272143000,-0.0020943951023931952,0.016755160819145562,0.0747000919853573,9.038462416666666,0.14709974999999997,-3.6693215416666662
1403715273277143000,-0.0027925268031909274,0.020943951023931952,0.07819075048934597,9.07115125,0.122583125,-3.67749375
1403715273282143000,-0.0020943951023931952,0.020943951023931952,0.07888888219014369,9.079323458333333,0.13075533333333333,-3.702010375
1403715273287143000,0.0,0.021642082724729686,0.07958701389094143,9.054806833333332,0.07354987499999999,-3.693838166666666
1403715273292143000,-0.0013962634015954637,0.023038346126325153,0.07400196028455958,9.095667875,0.13892754166666665,-3.6611493333333334
1403715273297143000,-0.003490658503988659,0.02234021442552742,0.08028514559173915,9.062979041666667,0.07354987499999999,-3.6693215416666662
1403715273302143000,-0.0041887902047863905,0.017453292519943295,0.07609635538695278,9.136528916666666,0.14709974999999997,-3.702010375
1403715273307143000,-0.0013962634015954637,0.01815142422074103,0.07958701389094143,9.054806833333332,0.06537766666666667,-3.6366327083333334
1403715273312143000,-0.0020943951023931952,0.02024581932313422,0.07400196028455958,9.087495666666666,0.13892754166666665,-3.6693215416666662
1403715273317143000,-0.003490658503988659,0.021642082724729686,0.08028514559173915,9.046634625,0.11441091666666667,-3.67749375
1403715273322143000,-0.0027925268031909274,0.020943951023931952,0.07888888219014369,9.079323458333333,0.17161637500000002,-3.751043625
1403715273327143000,-0.0020943951023931952,0.023038346126325153,0.07958701389094143,9.054806833333332,0.11441091666666667,-3.702010375
1403715273332143000,-0.0041887902047863905,0.01884955592153876,0.07609635538695278,9.079323458333333,0.07354987499999999,-3.702010375
1403715273337143000,-0.003490658503988659,0.021642082724729686,0.07958701389094143,9.054806833333332,0.13075533333333333,-3.6693215416666662
1403715273342143000,-0.005585053606381855,0.02234021442552742,0.07819075048934597,9.087495666666666,0.10623870833333333,-3.718354791666666
1403715273347143000,-0.0027925268031909274,0.021642082724729686,0.0767944870877505,9.062979041666667,0.13892754166666665,-3.67749375
1403715273352143000,-0.0020943951023931952,0.016057029118347832,0.0767944870877505,9.038462416666666,0.0980665,-3.7346992083333332
1403715273357143000,-0.003490658503988659,0.01884955592153876,0.0747000919853573,9.062979041666667,0.122583125,-3.742871416666666
1403715273362143000,-0.0027925268031909274,0.019547687622336492,0.08028514559173915,9.038462416666666,0.0980665,-3.7346992083333332
1403715273367143000,-0.0013962634015954637,0.01815142422074103,0.0767944870877505,9.087495666666666,0.13075533333333333,-3.67749375
1403715273372143000,-0.0027925268031909274,0.019547687622336492,0.07819075048934597,9.030290208333332,0.11441091666666667,-3.67749375
1403715273377143000,-0.004886921905584123,0.016755160819145562,0.07120943348136866,9.079323458333333,0.17978858333333333,-3.67749375
1403715273382143000,0.0006981317007977319,0.02024581932313422,0.07749261878854824,9.038462416666666,0.0980665,-3.693838166666666
1403715273387143000,0.0006981317007977319,0.019547687622336492,0.07609635538695278,9.095667875,0.15527195833333335,-3.702010375
1403715273392143000,-0.0013962634015954637,0.023038346126325153,0.08098327729253688,9.07115125,0.11441091666666667,-3.693838166666666
1403715273397143000,-0.003490658503988659,0.02024581932313422,0.08028514559173915,9.095667875,0.11441091666666667,-3.7346992083333332
1403715273402143000,-0.0027925268031909274,0.02234021442552742,0.07958701389094143,9.030290208333332,0.11441091666666667,-3.6856659583333333
1403715273407143000,-0.004872575402259827,0.021996330469846725,0.07565594464540482,9.084917068481445,0.09876292198896408,-3.6771750450134277
1403715273412143000,-0.0013902932405471802,0.022692548111081123,0.07774480432271957,9.076784133911133,0.09061780571937561,-3.7016122341156006
1403715273417143000,-0.0034908652305603027,0.021297797560691833,0.07494110614061356,9.076777458190918,0.04983160272240639,-3.7505295276641846
1403715273422143000,-0.0034864991903305054,0.021293776109814644,0.0770437940955162,9.03596019744873,0.09062809497117996,-3.7016074657440186
1403715273427143000,-0.0013904273509979248,0.022694412618875504,0.07704897969961166,9.093038558959961,0.12331634759902954,-3.726133346557617
1403715273432143000,0.0007050037384033203,0.01990029215812683,0.07914388924837112,9.05236530303955,0.09875817596912384,-3.6771416664123535
1403715273437143000,-0.0034776031970977783,0.020599331706762314,0.07635391503572464,9.06048583984375,0.09057611227035522,-3.6608376502990723
1403715273442143000,-0.003476575016975403,0.01920647919178009,0.07845332473516464,9.093023300170898,0.17229658365249634,-3.7017414569854736
1403715273447143000,-0.004187643527984619,0.02268720045685768,0.08053237944841385,9.035918235778809,0.11513939499855042,-3.7179369926452637
1403715273452143000,1.0475516319274902e-05,0.019903823733329773,0.07914962619543076,9.093074798583984,0.1559622436761856,-3.7017054557800293
1403715273457143000,-4.0531158447265625e-06,0.02059154026210308,0.08122486621141434,9.003424644470215,0.05794934183359146,-3.7015342712402344
1403715273462143000,-0.0034839659929275513,0.01990341767668724,0.07425504177808762,9.076693534851074,0.12334584444761276,-3.734307289123535
1403715273467143000,-0.0013895779848098755,0.021992024034261703,0.07705115526914597,9.035940170288086,0.1232910081744194,-3.6853229999542236
1403715273472143000,-0.004866361618041992,0.017811674624681473,0.07915175706148148,9.101303100585938,0.12321960180997849,-3.6527512073516846
1403715273477143000,-0.0007013231515884399,0.023380529135465622,0.08332619816064835,8.995137214660645,0.13147109746932983,-3.7016026973724365
1403715273482143000,-0.003485932946205139,0.01850348338484764,0.0798393115401268,9.04408073425293,0.14782172441482544,-3.7179999351501465
1403715273487143000,-0.0034916549921035767,0.022685954347252846,0.08192645758390427,9.027779579162598,0.10697142034769058,-3.71791672706604
1403715273492143000,9.953975677490234e-06,0.021995872259140015,0.07635799795389175,9.068575859069824,0.13962870836257935,-3.685357093811035
1403715273497143000,-0.0020851939916610718,0.02199520170688629,0.08124002069234848,9.09306812286377,0.13961301743984222,-3.701676845550537
1403715273502143000,-0.0020832866430282593,0.019902696833014488,0.07845044881105423,9.076743125915527,0.14779244363307953,-3.693538188934326
1403715273507143000,-0.002782687544822693,0.019203949719667435,0.07914728671312332,9.068564414978027,0.15596896409988403,-3.701704740524292
1403715273512143000,-0.002089858055114746,0.022688718512654305,0.08123176544904709,9.052364349365234,0.0660770833492279,-3.677091598510742
1403715273517143000,-0.00487421452999115,0.02199460193514824,0.08193502575159073,9.093140602111816,0.09055245667695999,-3.6689932346343994
1403715273522143000,-0.003481149673461914,0.02059909701347351,0.07635202258825302,9.060423851013184,0.11512398719787598,-3.6934962272644043
1403715273527143000,-0.002085849642753601,0.019903941079974174,0.07774991542100906,9.09302043914795,0.1559947431087494,-3.7261838912963867
1403715273532143000,-0.0014004111289978027,0.02198980748653412,0.08052646368741989,9.03598403930664,0.08248750865459442,-3.734205484390259
1403715273537143000,-0.0034943222999572754,0.022691937163472176,0.07703838497400284,9.076643943786621,0.12339608371257782,-3.783224105834961
1403715273542143000,-0.003496900200843811,0.024781981483101845,0.07633056491613388,9.044194221496582,-0.007367502432316542,-3.7341196537017822
1403715273547143000,-0.010472372174263,0.019200902432203293,0.07710310071706772,8.912904739379883,0.5399454236030579,-3.685913562774658
1403715273552143000,-0.016018033027648926,0.013630147092044353,0.09381312876939774,9.321447372436523,0.26206523180007935,-3.7672245502471924
1403715273557143000,-0.027924954891204834,0.031035838648676872,0.07980484515428543,8.889054298400879,-0.12999048829078674,-3.619738817214966
1403715273562143000,-0.0014089643955230713,0.01013033464550972,0.09307374805212021,9.134666442871094,-0.35904771089553833,-3.5217044353485107
1403715273567143000,0.02853618562221527,0.03805485740303993,0.06583427637815475,9.224617004394531,-0.8901603817939758,-3.6684587001800537
1403715273572143000,0.05790911614894867,0.012908786535263062,0.06170407682657242,8.849234580993652,-0.19539648294448853,-3.513430118560791
1403715273577143000,0.06074894964694977,0.019939810037612915,0.051307328045368195,9.28874683380127,0.4911409914493561,-3.759171724319458
1403715273582143000,0.02429504692554474,0.023488111793994904,0.06959333270788193,8.831472396850586,1.4959708452224731,-3.6708548069000244
1403715273587143000,-0.04976430535316467,0.01302444189786911,0.08359503000974655,9.068219184875488,1.7247111797332764,-3.972820281982422
1403715273592143000,-0.10675376653671265,0.019896671175956726,0.0980890616774559,9.148746490478516,0.7603872418403625,-3.6948351860046387
1403715273597143000,-0.10472370684146881,0.024756211787462234,0.10765165835618973,8.93764591217041,-0.5631413459777832,-3.6605544090270996
1403715273602143000,-0.05795982480049133,0.021236609667539597,0.10072333365678787,8.88859748840332,-1.1358577013015747,-3.3338441848754883
1403715273607143000,0.015295729041099548,0.005994826555252075,0.10279551893472672,9.689495086669922,-1.250586748123169,-3.6774063110351562
1403715273612143000,0.08082883059978485,0.0491788275539875,0.05117253214120865,9.126909255981445,-1.2581956386566162,-3.6521921157836914
1403715273617143000,0.12351496517658234,0.014308912679553032,0.05128077417612076,8.710387229919434,0.08250882476568222,-3.4972047805786133
1403715273622143000,0.10601408779621124,0.03605803847312927,0.053533561527729034,9.133426666259766,1.3736798763275146,-3.7440288066864014
1403715273627143000,0.02831357717514038,-0.006475798785686493,0.07730937749147415,8.726933479309082,1.9941219091415405,-3.752509355545044
1403715273632143000,-0.058504924178123474,0.017132803797721863,0.07240971177816391,9.86626148223877,1.2676528692245483,-4.127121448516846
1403715273637143000,-0.08724510669708252,0.056091148406267166,0.07349766045808792,8.627189636230469,-0.1871463656425476,-3.5462381839752197
1403715273642143000,-0.056533247232437134,-0.007432799786329269,0.10004165023565292,8.374947547912598,-0.2690674364566803,-3.431849956512451
1403715273647143000,-0.03692832589149475,0.011554453521966934,0.08192507177591324,9.746214866638184,-0.2448187619447708,-3.7425615787506104
1403715273652143000,-0.03488685190677643,0.026846103370189667,0.0658632144331932,8.83171272277832,-0.03192581981420517,-3.562775135040283
1403715273657143000,-0.021597057580947876,-0.01147828996181488,0.06169923394918442,9.15022087097168,0.12330561131238937,-3.7101266384124756
1403715273662143000,-0.012575849890708923,0.03174509480595589,0.09237467497587204,9.003443717956543,-0.07285607606172562,-3.6279101371765137
1403715273667143000,-0.0014345943927764893,0.008724266663193703,0.09862322360277176,8.979425430297852,-0.2280639261007309,-3.7502269744873047
1403715273672143000,0.0320296436548233,0.030405092984437943,0.09305886179208755,9.56737995147705,-0.9151239395141602,-3.5787100791931152
1403715273677143000,0.08710169792175293,0.04563320800662041,0.07913542538881302,8.792318344116211,-1.070475697517395,-3.4231340885162354
1403715273682143000,0.11724281311035156,0.003826986998319626,0.07153769582509995,8.571226119995117,0.3521900177001953,-3.6035494804382324
1403715273687143000,0.07678519189357758,0.014402611181139946,0.06124801188707352,9.655893325805664,1.4796477556228638,-3.9070284366607666
1403715273692143000,-0.006473660469055176,0.043020665645599365,0.040903009474277496,8.887249946594238,1.447100043296814,-3.9804019927978516
1403715273697143000,-0.06579475104808807,-0.005915019661188126,0.0674566701054573,8.496419906616211,1.4549626111984253,-3.6626741886138916
1403715273702143000,-0.1088421642780304,0.007369145750999451,0.11074665933847427,9.43440055847168,1.1447938680648804,-3.8748362064361572
1403715273707143000,-0.15356436371803284,0.02331189624965191,0.10910344868898392,8.895591735839844,0.2375180721282959,-3.7593603134155273
1403715273712143000,-0.14028647541999817,0.007359862327575684,0.11394020169973373,9.410418510437012,-1.0048984289169312,-3.53848934173584
1403715273717143000,-0.06820061802864075,0.03939605504274368,0.11111172288656235,9.139264106750488,-2.053767442703247,-3.3684468269348145
1403715273722143000,0.06848914921283722,0.01629379391670227,0.09428354352712631,9.067107200622559,-2.0703887939453125,-3.556323528289795
1403715273727143000,0.14851102232933044,0.03526071459054947,0.049769915640354156,9.502662658691406,-1.4219249486923218,-3.579113721847534
1403715273732143000,0.1918383538722992,0.04990740865468979,0.02545713633298874,8.865774154663086,-0.19524841010570526,-3.627418279647827
1403715273737143000,0.17861804366111755,0.006733108311891556,0.04726400226354599,8.709418296813965,1.5214519500732422,-3.7767200469970703
1403715273742143000,0.07824088633060455,0.03559142351150513,0.0423097088932991,9.643301010131836,2.8450474739074707,-4.091342926025391
1403715273747143000,-0.06241422891616821,0.029804736375808716,0.06992533057928085,8.324592590332031,2.9276041984558105,-3.8231942653656006
1403715273752143000,-0.16984359920024872,-0.011516910046339035,0.07801956683397293,8.700467109680176,1.6426132917404175,-3.8020055294036865
1403715273757143000,-0.19190821051597595,0.0037919487804174423,0.1209876611828804,9.205586433410645,0.15573714673519135,-3.645308017730713
1403715273762143000,-0.16255150735378265,0.005277231335639954,0.11046301573514938,9.213669776916504,-1.5209296941757202,-3.653988838195801
1403715273767143000,-0.0781046599149704,0.017083361744880676,0.11464022845029831,9.270879745483398,-1.676447868347168,-3.3594772815704346
1403715273772143000,0.015447735786437988,0.04291427135467529,0.08666297048330307,9.3776216506958,-1.9298419952392578,-3.5639705657958984
1403715273777143000,0.117765873670578,0.03373750299215317,0.07216242700815201,8.6943941116333,-1.2014119625091553,-3.3415720462799072
1403715273782143000,0.14652034640312195,0.023434557020664215,0.04150267690420151,9.25743293762207,0.0008810073486529291,-3.7095022201538086
1403715273787143000,0.12837092578411102,0.054161787033081055,0.03461853414773941,9.22266674041748,0.9489661455154419,-3.8411102294921875
1403715273792143000,0.06818833947181702,0.00530257448554039,0.05274427682161331,8.080252647399902,1.6925290822982788,-3.588658332824707
1403715273797143000,-0.013478443026542664,0.009576447308063507,0.06615842133760452,9.435500144958496,1.9612540006637573,-4.184168338775635
1403715273802143000,-0.08110448718070984,0.021967068314552307,0.10725574940443039,8.569965362548828,1.2669343948364258,-3.6544811725616455
1403715273807143000,-0.12426520884037018,-0.01572263613343239,0.12729963660240173,9.12450122833252,0.5643845200538635,-3.9719462394714355
1403715273812143000,-0.12351247668266296,0.043622344732284546,0.10002321749925613,9.336936950683594,-0.49794095754623413,-3.3174891471862793
1403715273817143000,-0.0754205584526062,-0.006014592945575714,0.11327754706144333,8.594962120056152,-0.9314389228820801,-3.464625597000122
1403715273822143000,-0.023617103695869446,0.001883961260318756,0.06578510254621506,10.235255241394043,-1.6344001293182373,-3.87428879737854
1403715273827143000,0.07739883661270142,0.07004126906394958,0.031590141355991364,8.995552062988281,-1.699856162071228,-3.570910692214966
1403715273832143000,0.14298096299171448,0.007243666797876358,0.04708079248666763,8.245820045471191,-0.3755730092525482,-3.300654649734497
1403715273837143000,0.13747382164001465,0.029044628143310547,0.05912483483552933,9.476644515991211,1.3328821659088135,-3.841783285140991
1403715273842143000,0.05194671452045441,0.017306823283433914,0.07796619087457657,8.661931037902832,2.1329352855682373,-3.890829563140869
1403715273847143000,-0.039866238832473755,0.013014204800128937,0.0668468102812767,9.49976634979248,1.6269166469573975,-4.135534286499023
1403715273852143000,-0.08373376727104187,0.0470125749707222,0.08264338225126266,8.577983856201172,0.2047249674797058,-3.391655921936035
1403715273857143000,-0.0684298425912857,-0.0011058840900659561,0.09928848594427109,8.603523254394531,-0.38331493735313416,-3.6931798458099365
1403715273862143000,-0.04462596774101257,0.016432959586381912,0.08959009498357773,9.542156219482422,-0.2693161964416504,-3.595508575439453
1403715273867143000,-0.025828465819358826,0.021965395659208298,0.0763184204697609,8.864665985107422,-0.1381385326385498,-3.6034467220306396
1403715273872143000,-0.010474234819412231,0.00316057913005352,0.06444870680570602,9.06914234161377,-0.2933497428894043,-3.668811798095703
1403715273877143000,0.004884436726570129,0.020610565319657326,0.07842925935983658,9.207724571228027,-0.105500228703022,-3.6933083534240723
1403715273882143000,0.015344485640525818,0.02055269666016102,0.07217096537351608,8.611522674560547,0.18860282003879547,-3.5546064376831055
1403715273887143000,0.018176674842834473,0.0010799188166856766,0.09034427255392075,9.305503845214844,0.33562350273132324,-3.750962495803833
1403715273892143000,0.0028079450130462646,0.03455726429820061,0.09452024847269058,9.32129955291748,0.311119943857193,-3.7834153175354004
1403715273897143000,-0.007717505097389221,0.020551778376102448,0.11337292939424515,8.69282341003418,0.5153852701187134,-3.70198130607605
1403715273902143000,-0.0195244699716568,0.020594503730535507,0.10984434932470322,9.231786727905273,0.18843254446983337,-3.701758623123169
1403715273907143000,-0.012609794735908508,0.035247206687927246,0.09793037921190262,9.12624454498291,-0.5796358585357666,-3.6030678749084473
1403715273912143000,0.03202389180660248,0.017772357910871506,0.06721123307943344,9.020552635192871,-1.217624306678772,-3.6361796855926514
1403715273917143000,0.08581744134426117,0.02133622020483017,0.05403413623571396,9.355473518371582,-0.25256967544555664,-3.7012789249420166
1403715273922143000,0.07807907462120056,0.02763283997774124,0.04366510361433029,8.732789993286133,1.096117615699768,-3.8087551593780518
1403715273927143000,0.018003374338150024,0.01934058964252472,0.03467526286840439,9.034797668457031,1.5857480764389038,-3.8420042991638184
1403715273932143000,-0.05113314092159271,0.01163671538233757,0.0717279240489006,8.929498672485352,1.6999180316925049,-3.7690088748931885
1403715273937143000,-0.12356936931610107,0.005960807204246521,0.0849163755774498,9.066939353942871,1.1363451480865479,-3.7852084636688232
1403715273942143000,-0.13886968791484833,0.014981189742684364,0.10909374803304672,9.124773979187012,-0.13835136592388153,-3.563082695007324
1403715273947143000,-0.10042771697044373,0.02406347543001175,0.08743668347597122,9.01009750366211,-1.6027103662490845,-3.498342752456665
1403715273952143000,6.920099258422852e-05,0.03381366282701492,0.09716419130563736,9.287653923034668,-1.8399726152420044,-3.351351022720337
1403715273957143000,0.07664987444877625,0.028964553028345108,0.10284019261598587,9.070030212402344,-0.7350673079490662,-3.643716335296631
1403715273962143000,0.09071992337703705,0.038064662367105484,0.07153210788965225,9.19961929321289,0.2785416543483734,-3.660855293273926
1403715273967143000,0.07533301413059235,0.03590968996286392,0.0812697634100914,8.60358715057373,0.2295723557472229,-3.644218683242798
1403715273972143000,0.08299501240253448,-0.0010178759694099426,0.07564332336187363,9.061899185180664,-0.29341641068458557,-3.7256622314453125
1403715273977143000,0.10391634702682495,0.031790729612112045,0.0770551785826683,9.282225608825684,-0.35888761281967163,-3.7826528549194336
1403715273982143000,0.11792320013046265,0.010169599205255508,0.0695505365729332,8.98693561553955,1.09626042842865,-3.8089444637298584
1403715273987143000,0.01974797248840332,0.03345751762390137,0.06051745265722275,9.119884490966797,2.481466054916382,-3.922447681427002
1403715273992143000,-0.12278008460998535,0.007424652576446533,0.07746165245771408,8.737347602844238,3.36268949508667,-3.9028520584106445
1403715273997143000,-0.2548995018005371,0.01999267190694809,0.08450501412153244,9.477206230163574,2.2059366703033447,-4.0303730964660645
1403715274002143000,-0.29034706950187683,0.02257847785949707,0.1007055714726448,8.714791297912598,-0.6359958052635193,-3.2770273685455322
1403715274007143000,-0.18589024245738983,-0.0019821077585220337,0.10855274647474289,9.236847877502441,-3.3272385597229004,-3.5128023624420166
1403715274012143000,0.015681058168411255,0.041151344776153564,0.08872445672750473,8.909844398498535,-4.352738857269287,-2.992265462875366
1403715274017143000,0.20660874247550964,0.016084402799606323,0.07684428244829178,9.365243911743164,-2.921630620956421,-3.70692777633667
1403715274022143000,0.2916860282421112,0.031149089336395264,0.06598507612943649,9.55225658416748,-0.07279481738805771,-3.85654354095459
1403715274027143000,0.2272811233997345,0.06773111969232559,0.025611288845539093,8.922389030456543,2.1578259468078613,-4.012922763824463
1403715274032143000,0.10939310491085052,0.03495084494352341,0.03988479822874069,8.159725189208984,2.913299798965454,-3.644078016281128
1403715274037143000,-0.015002131462097168,0.0026281066238880157,0.07313019782304764,9.126557350158691,2.1160058975219727,-4.05389928817749
1403715274042143000,-0.10689499974250793,0.0010521449148654938,0.1246829405426979,9.02675724029541,1.1610677242279053,-3.940105676651001
1403715274047143000,-0.1438019573688507,0.010077377781271935,0.1238074079155922,9.058806419372559,0.5152655243873596,-3.873983383178711
1403715274052143000,-0.1396111696958542,0.023333482444286346,0.14885853230953217,9.05130386352539,-0.1466882973909378,-3.4811208248138428
1403715274057143000,-0.12006351351737976,0.01645813137292862,0.10834839195013046,9.435345649719238,-0.9148966670036316,-3.7835400104522705
1403715274062143000,-0.056509971618652344,0.042252909392118454,0.08045236021280289,9.386173248291016,-1.4545907974243164,-3.5303399562835693
1403715274067143000,0.024382874369621277,0.03308884799480438,0.06231919676065445,9.019721984863281,-1.5448814630508423,-3.456839084625244
1403715274072143000,0.10245370864868164,0.041505537927150726,0.046975769102573395,9.241177558898926,-1.3972890377044678,-3.6116464138031006
1403715274077143000,0.15550640225410461,0.04010762274265289,0.06172508746385574,8.751766204833984,-0.3506268858909607,-3.6762654781341553
1403715274082143000,0.14090335369110107,0.04509686678647995,0.064696304500103,9.353887557983398,1.3495460748672485,-3.9884402751922607
1403715274087143000,0.06388874351978302,0.043841492384672165,0.08569719642400742,8.718817710876465,2.0430967807769775,-3.7443158626556396
1403715274092143000,-0.030327871441841125,0.019987307488918304,0.09055647999048233,8.595694541931152,1.8389896154403687,-3.8178067207336426
1403715274097143000,-0.11445748805999756,0.007334996946156025,0.09392993897199631,9.001906394958496,0.8583781123161316,-3.654238224029541
1403715274102143000,-0.1319025456905365,0.009387882426381111,0.10630928725004196,9.002219200134277,0.08228904753923416,-3.710228204727173
1403715274107143000,-0.10748960077762604,0.004551541060209274,0.10976121574640274,9.272333145141602,-0.5551663637161255,-3.63633131980896
1403715274112143000,-0.06983233988285065,0.024050012230873108,0.10699277371168137,8.978458404541016,-0.972161591053009,-3.3909149169921875
1403715274117143000,0.0027280598878860474,0.004486300051212311,0.10071868449449539,9.011556625366211,-1.3079770803451538,-3.4076571464538574
1403715274122143000,0.06690414249897003,0.010883092880249023,0.07769117504358292,9.6248779296875,-1.1440091133117676,-3.709851026535034
1403715274127143000,0.10392145812511444,0.042952049523591995,0.05194670706987381,9.224884033203125,-0.3179803490638733,-3.6194019317626953
1403715274132143000,0.11233621835708618,0.021294740960001945,0.05127838999032974,8.73409652709961,0.3441259562969208,-3.677039623260498
1403715274137143000,0.08372202515602112,0.03602123260498047,0.06537257879972458,9.182403564453125,1.1284362077713013,-3.7193126678466797
1403715274142143000,0.03612309694290161,0.027653809636831284,0.09265484660863876,8.587089538574219,1.5615326166152954,-3.6219372749328613
1403715274147143000,-0.03215450048446655,0.003210783004760742,0.1023944690823555,9.141603469848633,1.2754597663879395,-3.7851123809814453
1403715274152143000,-0.09141653776168823,0.005916379392147064,0.09523779898881912,8.920689582824707,0.5070507526397705,-3.645387887954712
1403715274157143000,-0.09002846479415894,-0.008019506931304932,0.08464813977479935,9.06043815612793,-0.48140114545822144,-3.6608965396881104
1403715274162143000,-0.0467815101146698,0.017147742211818695,0.07906707376241684,9.444302558898926,-0.8902673125267029,-3.709773063659668
1403715274167143000,0.005526557564735413,0.019876450300216675,0.07909395545721054,8.955179214477539,-0.6612586379051208,-3.5704681873321533
1403715274172143000,0.03278297185897827,0.015012085437774658,0.07983463257551193,9.004150390625,-0.18726816773414612,-3.5706679821014404
1403715274177143000,0.030692145228385925,0.01849120669066906,0.08894402533769608,8.872780799865723,0.3357405364513397,-3.6772632598876953
1403715274182143000,0.01117020845413208,0.00804060883820057,0.08895624428987503,9.003247261047363,0.42554566264152527,-3.68571138381958
1403715274187143000,2.1904706954956055e-06,0.020605284720659256,0.09029627591371536,9.370436668395996,0.14786173403263092,-3.921954393386841
1403715274192143000,0.008334249258041382,0.03175167739391327,0.0735236331820488,9.020332336425781,-0.49780017137527466,-3.5867745876312256
1403715274197143000,0.04391366243362427,0.02688787132501602,0.07911872118711472,9.167665481567383,-0.4978647828102112,-3.652092695236206
1403715274202143000,0.07047510147094727,0.03455161675810814,0.06731075793504715,8.9467191696167,0.066156305372715,-3.6197240352630615
1403715274207143000,0.04599189758300781,0.013673420064151287,0.06604152172803879,8.91283893585205,1.1531598567962646,-3.7927591800689697
1403715274212143000,-0.014102399349212646,0.021378081291913986,0.07516942173242569,8.961713790893555,1.46338951587677,-3.8503146171569824
1403715274217143000,-0.07540783286094666,0.0045699309557676315,0.07369820028543472,9.010032653808594,0.9893364310264587,-3.7929627895355225
1403715274222143000,-0.09347596764564514,0.00454215332865715,0.08471266180276871,9.190293312072754,0.10682575404644012,-3.70212721824646
1403715274227143000,-0.07468733191490173,0.012212920933961868,0.07697666436433792,9.052281379699707,-0.7184256911277771,-3.5463390350341797
1403715274232143000,-0.0244685560464859,0.012227330356836319,0.07069558650255203,9.183382987976074,-0.9965635538101196,-3.611724376678467
1403715274237143000,0.021597757935523987,0.027580011636018753,0.06726007908582687,9.175566673278809,-0.5714264512062073,-3.4725258350372314
1403715274242143000,0.042536839842796326,0.01639299839735031,0.06307234615087509,8.840921401977539,-0.24431613087654114,-3.6113476753234863
1403715274247143000,0.049571260809898376,0.013623951002955437,0.06593968719244003,8.864895820617676,0.278439998626709,-3.4813830852508545
1403715274252143000,0.03769409656524658,0.0017771795392036438,0.06941873580217361,9.068611145019531,0.42571836709976196,-3.7509565353393555
1403715274257143000,0.013258278369903564,0.003846503794193268,0.07918033748865128,8.864424705505371,0.4255782961845398,-3.685647487640381
1403715274262143000,-0.004172205924987793,-0.0010178647935390472,0.08687948435544968,9.239583969116211,0.5890964865684509,-3.8655357360839844
1403715274267143000,-0.02092932164669037,0.010828077793121338,0.09453039616346359,9.084511756896973,0.45821741223335266,-3.759277105331421
1403715274272143000,-0.04395091533660889,0.008029906079173088,0.08544952422380447,8.994604110717773,0.3846309781074524,-3.685854911804199
1403715274277143000,-0.046049997210502625,0.0010491758584976196,0.09865237027406693,9.060429573059082,0.03328310698270798,-3.685420274734497
1403715274282143000,-0.03629447519779205,0.0003330651670694351,0.08747442811727524,8.889432907104492,-0.2934930622577667,-3.5463051795959473
1403715274287143000,-0.012579947710037231,-0.005202114582061768,0.088856540620327,9.257096290588379,-0.40797847509384155,-3.7341647148132324
1403715274292143000,0.01254299283027649,0.005970116704702377,0.07352133840322495,9.281604766845703,-0.334304541349411,-3.7667295932769775
1403715274297143000,0.032791972160339355,0.017133934423327446,0.06587304919958115,9.273290634155273,-0.15447556972503662,-3.7503812313079834
1403715274302143000,0.04186318814754486,0.029680784791707993,0.05752580612897873,9.068552017211914,0.1888631135225296,-3.758692502975464
1403715274307143000,0.033480510115623474,0.037367504090070724,0.05617982894182205,9.108487129211426,0.6056183576583862,-3.832660436630249
1403715274312143000,0.002766042947769165,0.03803917020559311,0.07433599978685379,8.831038475036621,0.6870032548904419,-3.6697275638580322
1403715274317143000,-0.02444322407245636,0.01918754167854786,0.07080138474702835,8.822915077209473,0.5154651403427124,-3.7266621589660645
1403715274322143000,-0.041172564029693604,0.008028603158891201,0.07985096424818039,8.96190357208252,0.35204267501831055,-3.751044511795044
1403715274327143000,-0.04534761607646942,0.015015725046396255,0.08052519708871841,9.149720191955566,0.1641654074192047,-3.7998151779174805
1403715274332143000,-0.03628802299499512,0.028981242328882217,0.07491254061460495,9.231707572937012,-0.1789505034685135,-3.791274070739746
1403715274337143000,-0.020945072174072266,0.03735509142279625,0.06863658875226974,9.199301719665527,-0.3097040057182312,-3.701310873031616
1403715274342143000,0.00346529483795166,0.040832437574863434,0.0728374794125557,9.101706504821777,-0.3751834034919739,-3.570514440536499
1403715274347143000,0.02578514814376831,0.038005631417036057,0.08121707290410995,8.791645050048828,-0.20354387164115906,-3.586778163909912
1403715274352143000,0.033506497740745544,0.019905537366867065,0.07638659328222275,9.003499031066895,0.2458171844482422,-3.628274917602539
1403715274357143000,0.023721888661384583,0.01641468144953251,0.08617060631513596,9.003149032592773,0.46649885177612305,-3.7346506118774414
1403715274362143000,0.0006896853446960449,0.010850148275494576,0.07363913208246231,9.076031684875488,0.6953521370887756,-3.808528184890747
1403715274367143000,-0.03414145112037659,0.021313698962330818,0.07783278077840805,9.434712409973145,0.6299173831939697,-3.8738017082214355
1403715274372143000,-0.04745502769947052,0.03522997349500656,0.08053015917539597,8.986251831054688,0.22132143378257751,-3.7263190746307373
1403715274377143000,-0.0404827743768692,0.026158630847930908,0.07491833716630936,8.979009628295898,-0.4487409293651581,-3.4644899368286133
1403715274382143000,0.007616788148880005,0.018444038927555084,0.08400044590234756,8.873312950134277,-0.9476381540298462,-3.3417725563049316
1403715274387143000,0.052969858050346375,0.0017038099467754364,0.062377117574214935,8.825090408325195,-0.8003666996955872,-3.407125949859619
1403715274392143000,0.0844656378030777,-0.007971243932843208,0.06521905213594437,9.290092468261719,0.0906335711479187,-3.7016704082489014
1403715274397143000,0.06418560445308685,0.005991194397211075,0.056941159069538116,9.165935516357422,0.9735004901885986,-3.8740241527557373
1403715274402143000,0.0061241984367370605,0.01582818478345871,0.06891153007745743,9.1414794921875,1.6268012523651123,-3.9399964809417725
1403715274407143000,-0.0656622052192688,0.024156935513019562,0.09194774180650711,9.279629707336426,1.4061431884765625,-3.899346113204956
1403715274412143000,-0.12142978608608246,0.03030155599117279,0.0972571149468422,8.871567726135254,0.13129273056983948,-3.595872402191162
1403715274417143000,-0.09983743727207184,0.023340445011854172,0.11047182232141495,8.847665786743164,-0.8903473019599915,-3.4399685859680176
1403715274422143000,-0.025835439562797546,0.009359553456306458,0.09791093319654465,8.929265022277832,-1.5211349725723267,-3.465287685394287
1403715274427143000,0.05154998600482941,0.004488632082939148,0.0839734897017479,9.004140853881836,-1.2751880884170532,-3.4973971843719482
1403715274432143000,0.09415970742702484,0.011578459292650223,0.060990579426288605,9.45357608795166,-0.35059410333633423,-3.8726935386657715
1403715274437143000,0.09068818390369415,0.03179166093468666,0.05131357163190842,9.263766288757324,0.6877031922340393,-3.979398012161255
1403715274442143000,0.052955418825149536,0.04508913308382034,0.061855293810367584,8.961456298828125,1.161189317703247,-3.7845406532287598
1403715274447143000,0.0020091384649276733,0.03322340175509453,0.0744466558098793,8.920801162719727,1.2507821321487427,-3.703284978866577
1403715274452143000,-0.0475035160779953,0.030374616384506226,0.08974630385637283,8.887940406799316,0.9646658897399902,-3.6866979598999023
1403715274457143000,-0.08021494746208191,0.024780120700597763,0.09525797516107559,9.14102554321289,0.5233778357505798,-3.612774610519409
1403715274462143000,-0.07537727057933807,0.01847388967871666,0.10071895271539688,8.970460891723633,-0.23633025586605072,-3.579024076461792
1403715274467143000,-0.06561100482940674,0.015007209032773972,0.06720758229494095,9.011536598205566,-0.513938844203949,-3.644325017929077
1403715274472143000,-0.02094721794128418,0.02343190461397171,0.062345437705516815,9.468886375427246,-0.5631034970283508,-3.7994208335876465
1403715274477143000,0.018074989318847656,0.041528429836034775,0.06165211647748947,9.110196113586426,-0.7837664484977722,-3.594876527786255
1403715274482143000,0.049514323472976685,0.04641188681125641,0.058211542665958405,9.012197494506836,-0.3016062080860138,-3.513288974761963
1403715274487143000,0.06975919008255005,0.03104615956544876,0.07567387074232101,8.816269874572754,0.0007417664164677262,-3.5869369506835938
1403715274492143000,0.06279987096786499,0.026195993646979332,0.06036258488893509,8.945914268493652,0.4911436140537262,-3.710083484649658
1403715274497143000,0.037008270621299744,0.012956257909536362,0.06110206991434097,8.986607551574707,0.6870489716529846,-3.6126585006713867
1403715274502143000,-0.004915669560432434,0.0018016789108514786,0.045742906630039215,9.07539176940918,0.8998141884803772,-3.906691312789917
1403715274507143000,-0.04186570644378662,0.012943949550390244,0.05340709537267685,9.001967430114746,0.7278903126716614,-3.735321044921875
1403715274512143000,-0.06067174673080444,0.01572279818356037,0.07285504788160324,9.353527069091797,0.11515399813652039,-3.865185260772705
1403715274517143000,-0.05794765055179596,0.02543284185230732,0.09303642064332962,8.790813446044922,-0.056427400559186935,-3.7096266746520996
1403715274522143000,-0.04537874460220337,0.028243253007531166,0.10700991004705429,8.97889518737793,-0.27727994322776794,-3.5216493606567383
1403715274527143000,-0.009814739227294922,0.021299205720424652,0.10838983207941055,9.191645622253418,-0.465242475271225,-3.68483304977417
1403715274532143000,0.016007542610168457,0.013581834733486176,0.08679384738206863,8.849139213562012,-0.5224136710166931,-3.464271306991577
1403715274537143000,0.03696742653846741,0.0059642493724823,0.0756346806883812,9.183820724487305,-0.2280779480934143,-3.709523916244507
1403715274542143000,0.04743030667304993,0.012916840612888336,0.06726891547441483,8.91434097290039,-0.14628620445728302,-3.652252674102783
1403715274547143000,0.049574822187423706,0.01294894702732563,0.07011740654706955,9.370736122131348,0.3194890022277832,-3.8242509365081787
1403715274552143000,0.03419776260852814,0.02689603716135025,0.07992934435606003,9.100866317749023,0.6299112439155579,-3.72674822807312
1403715274557143000,0.0020386874675750732,0.025496240705251694,0.08134239166975021,8.912642478942871,0.8832818269729614,-3.800577402114868
1403715274562143000,-0.025783836841583252,0.016415346413850784,0.07640285044908524,9.019248008728027,0.37640056014060974,-3.571577548980713
1403715274567143000,-0.036965593695640564,0.022693244740366936,0.0658879354596138,9.100622177124023,0.205062597990036,-3.7508695125579834
1403715274572143000,-0.038357704877853394,0.01571490615606308,0.05262499302625656,9.010845184326172,0.18057678639888763,-3.701913833618164
1403715274577143000,-0.042527616024017334,0.019915305078029633,0.06173273175954819,9.239033699035645,0.3602883219718933,-3.7837908267974854
1403715274582143000,-0.040490031242370605,0.03802161291241646,0.08192353695631027,8.994343757629395,0.27041441202163696,-3.7834341526031494
1403715274587143000,-0.03838500380516052,0.019168362021446228,0.08190230280160904,8.87290096282959,-0.27714404463768005,-3.472756862640381
1403715274592143000,-0.011894240975379944,0.037357576191425323,0.09234636276960373,9.281082153320312,-0.3261358439922333,-3.7828288078308105
1403715274597143000,0.02225404977798462,0.029556043446063995,0.0847146287560463,8.579428672790527,-0.9968701004981995,-3.292551279067993
1403715274602143000,0.06900966167449951,0.011570964008569717,0.07003623992204666,9.453751564025879,-0.8086437582969666,-3.7095203399658203
1403715274607143000,0.10325539112091064,0.03173963353037834,0.07499774545431137,8.759378433227539,-0.007447308395057917,-3.562361001968384
1403715274612143000,0.07746745645999908,0.00809476152062416,0.049971841275691986,9.084452629089355,0.9570082426071167,-3.735368251800537
1403715274617143000,0.028537973761558533,0.026289504021406174,0.06681735068559647,9.28005599975586,1.4796875715255737,-3.866481304168701
1403715274622143000,-0.041268572211265564,0.02202046476304531,0.06253712624311447,8.773422241210938,1.160854697227478,-3.727668046951294
1403715274627143000,-0.08020693063735962,0.012230652384459972,0.07571762055158615,9.320164680480957,0.5481734275817871,-3.86578369140625
1403715274632143000,-0.08515354990959167,0.02610449306666851,0.10211897641420364,8.709037780761719,-0.1382741928100586,-3.521852493286133
1403715274637143000,-0.06909465789794922,0.0164121575653553,0.08047956973314285,9.207332611083984,-0.661304235458374,-3.489137649536133
1403715274642143000,-0.019585713744163513,0.02412528172135353,0.0818633958697319,9.420080184936523,-0.8493967056274414,-3.734079360961914
1403715274647143000,0.022275149822235107,0.02125054970383644,0.060256876051425934,8.759393692016602,-0.5712264180183411,-3.5622148513793945
1403715274652143000,0.05024942755699158,0.02552815154194832,0.054028578102588654,9.616046905517578,-0.21172761917114258,-3.8564600944519043
1403715274657143000,0.05928605794906616,0.03453978896141052,0.049826644361019135,8.824249267578125,-0.09715599566698074,-3.6358413696289062
1403715274662143000,0.05862398445606232,0.031790003180503845,0.052676014602184296,9.207056999206543,0.37681272625923157,-3.799708127975464
1403715274667143000,0.04184466600418091,0.04503326117992401,0.07643026858568192,9.084236145019531,0.6382195949554443,-3.8163540363311768
1403715274672143000,0.0005531162023544312,0.033160362392663956,0.08274424821138382,8.594189643859863,1.0958529710769653,-3.8659989833831787
1403715274677143000,-0.039787039160728455,0.025499025359749794,0.09251820296049118,9.24693775177002,0.8750693202018738,-3.882284641265869
1403715274682143000,-0.07327528297901154,0.02264626882970333,0.09799481183290482,8.839315414428711,0.3191593885421753,-3.5959768295288086
1403715274687143000,-0.07189750671386719,0.01218440756201744,0.09931322187185287,8.864465713500977,-0.26078474521636963,-3.619812488555908
1403715274692143000,-0.03981520235538483,0.017099767923355103,0.09443750232458115,9.134191513061523,-0.7349885702133179,-3.488959312438965
1403715274697143000,0.0062149763107299805,0.0213102325797081,0.08327078074216843,9.281587600708008,-0.9312375783920288,-3.6196670532226562
1403715274702143000,0.050184935331344604,0.03245248645544052,0.08191879838705063,9.037044525146484,-0.4815037250518799,-3.57033634185791
1403715274707143000,0.0656176209449768,0.03807089105248451,0.07011290639638901,9.542394638061523,0.09053712338209152,-3.783102035522461
1403715274712143000,0.05161748826503754,0.05129682272672653,0.06804975122213364,8.782343864440918,0.5645406246185303,-3.636728048324585
1403715274717143000,0.01813608407974243,0.03180558234453201,0.059025369584560394,9.034963607788086,0.8586517572402954,-3.6945128440856934
1403715274722143000,-0.011846601963043213,0.03317534923553467,0.07504615932703018,9.05963134765625,0.6378955245018005,-3.6453230381011963
1403715274727143000,-0.038398146629333496,0.021924402564764023,0.07148358970880508,8.504622459411621,0.44991442561149597,-3.571431875228882
1403715274732143000,-0.04461720585823059,0.003854820504784584,0.07986780256032944,9.076560974121094,0.21296274662017822,-3.555152654647827
1403715274737143000,-0.0453626811504364,-0.0017466377466917038,0.08328153938055038,8.938130378723145,-0.12182529270648956,-3.693434238433838
1403715274742143000,-0.025102362036705017,0.004569012671709061,0.07144030183553696,9.272974967956543,-0.21178624033927917,-3.6771504878997803
1403715274747143000,-7.420778274536133e-06,0.019215794280171394,0.08330025523900986,9.240482330322266,-0.21994853019714355,-3.701387643814087
1403715274752143000,0.00628305971622467,0.030363811179995537,0.0616898313164711,9.011764526367188,-0.13816452026367188,-3.554433822631836
1403715274757143000,0.027218163013458252,0.017101887613534927,0.08962444216012955,8.979352951049805,0.0577973946928978,-3.5708916187286377
1403715274762143000,0.02512882649898529,0.022709622979164124,0.06797920912504196,9.207950592041016,-0.13826346397399902,-3.611621618270874
1403715274767143000,0.033507347106933594,0.014306261204183102,0.09315464645624161,8.86483383178711,0.34374576807022095,-3.546747922897339
1403715274772143000,0.012580767273902893,0.007357025519013405,0.0680045410990715,9.109321594238281,0.3030940592288971,-3.742708921432495
1403715274777143000,0.0014063715934753418,0.011538693681359291,0.08478321880102158,9.312858581542969,0.5810397863388062,-3.9225223064422607
1403715274782143000,-0.016732200980186462,0.02618713304400444,0.07846734672784805,9.28826904296875,0.35217973589897156,-3.8814542293548584
1403715274787143000,-0.02722160518169403,0.038039494305849075,0.08127815276384354,9.116545677185059,0.5155362486839294,-3.8164031505584717
1403715274792143000,-0.0418921560049057,0.03518008440732956,0.08607611805200577,8.643954277038574,-0.03197247534990311,-3.61159348487854
1403715274797143000,-0.030009746551513672,0.021990831941366196,0.07910648733377457,9.093311309814453,-0.26895177364349365,-3.611609935760498
1403715274802143000,-0.0028366893529891968,0.02618105709552765,0.0916513130068779,9.1264009475708,-0.5223649144172668,-3.652144193649292
1403715274807143000,0.013248875737190247,0.01567908376455307,0.06935658305883408,8.742618560791016,-0.12998560070991516,-3.554340362548828
1403715274812143000,0.020940780639648438,0.008057491853833199,0.07006577402353287,9.175134658813477,0.0007768869400024414,-3.750534772872925
1403715274817143000,0.030030429363250732,0.021318115293979645,0.07080458849668503,9.337859153747559,0.27863049507141113,-3.816042184829712
1403715274822143000,0.02374003827571869,0.04014845937490463,0.07223653048276901,9.418631553649902,0.5647503137588501,-3.9304604530334473
1403715274827143000,-0.0035164058208465576,0.04290924221277237,0.06944204121828079,8.716658592224121,0.6706065535545349,-3.62072491645813
1403715274832143000,-0.028598293662071228,0.031743720173835754,0.06589985638856888,8.880311965942383,0.2539544105529785,-3.603938102722168
1403715274837143000,-0.020949959754943848,0.026163460686802864,0.09236299246549606,8.995339393615723,-0.15456202626228333,-3.660518169403076
1403715274842143000,-0.01256878674030304,0.014993902295827866,0.08958374708890915,8.9138765335083,-0.12189889699220657,-3.603424549102783
1403715274847143000,-0.01604844629764557,-0.0003438834100961685,0.09589336067438126,8.978819847106934,0.25394704937934875,-3.7181777954101562
1403715274852143000,-0.01605112850666046,0.013624629005789757,0.08399716764688492,9.134110450744629,-0.08099484443664551,-3.734175682067871
1403715274857143000,-0.0013775229454040527,0.02620731294155121,0.07843346148729324,9.4933500289917,-0.20372092723846436,-3.7341208457946777
1403715274862143000,0.01255255937576294,0.029663600027561188,0.06657078117132187,9.011990547180176,-0.25260260701179504,-3.5379762649536133
1403715274867143000,0.014671921730041504,0.03316802158951759,0.05683336406946182,9.060318946838379,0.13964945077896118,-3.6281917095184326
1403715274872143000,0.01953655481338501,0.019176211208105087,0.08054324239492416,8.799628257751465,0.041502777487039566,-3.5708072185516357
1403715274877143000,0.019540995359420776,0.026872975751757622,0.0875249132514,9.03632640838623,0.04147955775260925,-3.611680030822754
1403715274882143000,0.014657244086265564,0.014305908232927322,0.10639359802007675,8.970818519592285,0.3437570631504059,-3.6447088718414307
1403715274887143000,-0.015327468514442444,0.011546938680112362,0.08411174267530441,9.117059707641602,0.6215775609016418,-3.678006172180176
1403715274892143000,-0.03276894986629486,0.0164189413189888,0.0812646672129631,9.190470695495605,0.34381890296936035,-3.742898464202881
1403715274897143000,-0.04046139121055603,0.017806636169552803,0.06934279948472977,9.093086242675781,-0.1708538681268692,-3.636262893676758
1403715274902143000,-0.013938412070274353,0.01642617955803871,0.06796368211507797,9.207633018493652,-0.16273744404315948,-3.628086805343628
1403715274907143000,0.002081260085105896,0.018484245985746384,0.07283598929643631,8.881343841552734,-0.1871834695339203,-3.595170736312866
1403715274912143000,0.01604589819908142,0.01710776798427105,0.07913292199373245,9.02828598022461,-0.06465604901313782,-3.6442716121673584
1403715274917143000,0.026503652334213257,0.01781056821346283,0.1000603660941124,9.183465957641602,-0.032003726810216904,-3.7503390312194824
1403715274922143000,0.021649450063705444,0.01851475238800049,0.08127757161855698,9.101265907287598,0.33569955825805664,-3.6774189472198486
1403715274927143000,0.007692113518714905,0.020620234310626984,0.08272009342908859,9.214949607849121,0.6625726222991943,-3.767692804336548
1403715274932143000,-0.019542723894119263,0.02337791584432125,0.06661365181207657,8.8556489944458,0.4500821530818939,-3.6776137351989746
1403715274937143000,-0.018837660551071167,0.017807602882385254,0.07074668258428574,9.060397148132324,0.0008109852788038552,-3.7342424392700195
1403715274942143000,-0.0125521719455719,0.010137083008885384,0.07074794918298721,9.085164070129395,-0.08094833791255951,-3.6852433681488037
1403715274947143000,-0.00348702073097229,0.021289493888616562,0.0812382623553276,9.00324821472168,0.16414818167686462,-3.6935179233551025
1403715274952143000,-0.00488688051700592,0.015702731907367706,0.09239577502012253,8.995231628417969,0.1395851969718933,-3.693474292755127
1403715274957143000,-0.0014030933380126953,0.024096300825476646,0.08818431943655014,9.248420715332031,-0.09730998426675797,-3.7911972999572754
1403715274962143000,0.0034898072481155396,0.02758043259382248,0.0875057652592659,9.191215515136719,0.0006928459042683244,-3.7178070545196533
1403715274967143000,-0.003469899296760559,0.02198820374906063,0.0693889930844307,8.95433521270752,0.12321397662162781,-3.5629384517669678
1403715274972143000,-0.0041711777448654175,0.011520450934767723,0.07147776335477829,8.92171859741211,0.1559131145477295,-3.603790760040283
1403715274977143000,0.0013895034790039062,0.007351899519562721,0.06654860824346542,9.093493461608887,-0.1380634754896164,-3.7667694091796875
1403715274982143000,0.01396586000919342,0.01991596445441246,0.07913964241743088,9.264763832092285,0.017070995643734932,-3.7586770057678223
1403715274987143000,0.012567073106765747,0.02409103512763977,0.08264375478029251,9.125772476196289,0.18048076331615448,-3.7261507511138916
1403715274992143000,0.0027579814195632935,0.022679734975099564,0.0917220488190651,8.962077140808105,0.44209131598472595,-3.8487796783447266
1403715274997143000,-0.014637649059295654,0.028277914971113205,0.08752831071615219,9.304821968078613,0.27037477493286133,-3.8405535221099854
1403715275002143000,-0.018834516406059265,0.041508693248033524,0.08193657547235489,8.94601058959961,0.049638476222753525,-3.5464539527893066
1403715275007143000,-0.016753211617469788,0.02057003602385521,0.0756271556019783,8.848438262939453,-0.12183675915002823,-3.5871098041534424
1403715275012143000,-0.008381560444831848,0.007311088964343071,0.07981381565332413,8.79960823059082,-0.08098491281270981,-3.619779109954834
1403715275017143000,0.005578324198722839,0.010141609236598015,0.08121175318956375,9.150805473327637,-0.17091411352157593,-3.6932687759399414
1403715275022143000,0.018836840987205505,0.023399677127599716,0.08122596889734268,9.19143295288086,-0.056462667882442474,-3.7340610027313232
1403715275027143000,0.019555464386940002,0.023406270891427994,0.06939267367124557,9.215513229370117,0.17237383127212524,-3.7506604194641113
1403715275032143000,0.013267949223518372,0.03875375911593437,0.07362043112516403,9.174049377441406,0.49101483821868896,-3.759181022644043
1403715275037143000,-0.007679194211959839,0.0345461368560791,0.07219783216714859,8.937359809875488,0.4092475473880768,-3.693819761276245
1403715275042143000,-0.01882597804069519,0.03315230458974838,0.06729676574468613,8.99465560913086,0.2294846624135971,-3.644697666168213
1403715275047143000,-0.021625280380249023,0.021962162107229233,0.08333279937505722,8.823660850524902,0.11499745398759842,-3.546560764312744
1403715275052143000,-0.011153638362884521,0.010817961767315865,0.08611734956502914,8.970974922180176,-0.015748243778944016,-3.554633617401123
1403715275057143000,-0.006271466612815857,0.009440567344427109,0.08540720492601395,9.150619506835938,-0.07291033118963242,-3.6607394218444824
1403715275062143000,0.0035059303045272827,0.01782061904668808,0.07216309756040573,9.175002098083496,-0.0319974459707737,-3.6525957584381104
1403715275067143000,0.009097173810005188,0.019923754036426544,0.06868297606706619,9.354315757751465,0.06613469123840332,-3.7914273738861084
1403715275072143000,0.009080573916435242,0.03176254779100418,0.07987790554761887,9.027542114257812,0.33567285537719727,-3.6529080867767334
1403715275077143000,-0.0006881952285766602,0.029672818258404732,0.07638595253229141,9.068178176879883,0.36022260785102844,-3.7019402980804443
1403715275082143000,-0.01045246422290802,0.02407023310661316,0.0812593325972557,8.897089004516602,0.2130240797996521,-3.5466971397399902
1403715275087143000,-0.006971731781959534,0.023382237181067467,0.08192669600248337,9.028010368347168,-0.03203950449824333,-3.595383405685425
1403715275092143000,0.003485575318336487,0.014998089522123337,0.10146728903055191,8.954689979553223,0.05779644846916199,-3.619863271713257
1403715275097143000,-0.004181623458862305,0.012910799123346806,0.08403701335191727,8.921698570251465,0.20493701100349426,-3.644606590270996
1403715275102143000,-0.0020671039819717407,0.00875057838857174,0.08543168753385544,9.264607429504395,0.15590208768844604,-3.7426064014434814
1403715275107143000,-0.006971433758735657,0.012933995574712753,0.06656337529420853,9.125843048095703,-0.023682786151766777,-3.7505576610565186
1403715275112143000,5.736947059631348e-06,0.022700775414705276,0.07287883013486862,9.166136741638184,0.295005738735199,-3.816084861755371
1403715275117143000,-0.005570665001869202,0.02267596125602722,0.07147561758756638,8.889004707336426,0.12323026359081268,-3.571056365966797
1403715275122143000,-0.010455906391143799,0.020611267536878586,0.06657826155424118,9.207050323486328,0.13159602880477905,-3.824131488800049
1403715275127143000,-0.005585730075836182,0.02407843992114067,0.07982147485017776,9.019973754882812,-0.15457844734191895,-3.5952491760253906
1403715275132143000,0.0034875869750976562,0.02059537172317505,0.08541620522737503,9.060588836669922,0.08243851363658905,-3.709726572036743
1403715275137143000,0.006985768675804138,0.01361299492418766,0.0875241681933403,8.979097366333008,0.11501899361610413,-3.619997978210449
1403715275142143000,0.000712171196937561,0.010839143767952919,0.08126265555620193,9.133721351623535,0.33574315905570984,-3.759085178375244
1403715275147143000,-0.0027725398540496826,0.019915428012609482,0.07077779620885849,9.247919082641602,0.1805691123008728,-3.807852029800415
1403715275152143000,-0.004886522889137268,0.017805399373173714,0.07006701081991196,8.994943618774414,0.18059788644313812,-3.7506752014160156
1403715275157143000,-0.006268590688705444,0.02617494761943817,0.07147520035505295,8.986862182617188,0.13960511982440948,-3.6282317638397217
1403715275162143000,-0.013252094388008118,0.0164113100618124,0.07914452999830246,9.060247421264648,0.1968386173248291,-3.7344295978546143
1403715275167143000,-0.0062859803438186646,0.026881974190473557,0.08469974249601364,9.174835205078125,-0.05645091459155083,-3.758575201034546
1403715275172143000,0.0034725069999694824,0.028958294540643692,0.0937734916806221,9.01995849609375,-0.08101828396320343,-3.668665885925293
1403715275177143000,0.009070098400115967,0.025470910593867302,0.08751482516527176,8.987353324890137,-0.023884234949946404,-3.5871431827545166
1403715275182143000,0.007698506116867065,0.021306827664375305,0.07847090810537338,9.150227546691895,0.21310067176818848,-3.6691527366638184
1403715275187143000,0.007681325078010559,0.01781209371984005,0.0763641968369484,9.068514823913574,0.22956177592277527,-3.7425544261932373
1403715275192143000,-0.0034619569778442383,0.022001326084136963,0.06381180137395859,9.052152633666992,0.16411197185516357,-3.6120009422302246
1403715275197143000,-0.0034861862659454346,0.01711694896221161,0.0700700506567955,9.101021766662598,0.18878623843193054,-3.799665689468384
1403715275202143000,-0.009740695357322693,0.02478950098156929,0.06870219856500626,9.052070617675781,0.20491188764572144,-3.5957415103912354
1403715275207143000,-0.01116134226322174,0.026880867779254913,0.08541364222764969,9.199016571044922,0.11513778567314148,-3.791402578353882
1403715275212143000,-0.01045963168144226,0.031028660014271736,0.08333732932806015,8.807503700256348,0.025084977969527245,-3.464752674102783
1403715275217143000,-0.004877880215644836,0.018506348133087158,0.08401615172624588,9.10973834991455,-0.06473410874605179,-3.6280436515808105
1403715275222143000,0.006284937262535095,0.022682443261146545,0.08891613036394119,9.003602027893066,0.04146144911646843,-3.5872349739074707
1403715275227143000,0.005594924092292786,0.01013070996850729,0.07426809519529343,8.970789909362793,0.15595297515392303,-3.6445717811584473
1403715275232143000,0.0014038830995559692,0.016414735466241837,0.07146938890218735,9.035940170288086,0.13967128098011017,-3.7016758918762207
1403715275237143000,-0.002080678939819336,0.014323284849524498,0.0644848570227623,9.036016464233398,0.057972196489572525,-3.6771512031555176
1403715275242143000,0.003503456711769104,0.02061135694384575,0.07914715260267258,9.288872718811035,0.1560298651456833,-3.824101686477661
1403715275247143000,-0.0013865381479263306,0.024066103622317314,0.08475635200738907,8.84812068939209,0.27838218212127686,-3.554891586303711
1403715275252143000,-0.006972506642341614,0.01850741356611252,0.08890966325998306,9.166470527648926,0.17230519652366638,-3.775163173675537
1403715275257143000,-0.009776175022125244,0.02476094290614128,0.08750052005052567,8.905476570129395,0.00885468628257513,-3.6279923915863037
1403715275262143000,-0.002079114317893982,0.025488877668976784,0.08821553736925125,9.215629577636719,0.06598792970180511,-3.685288667678833
1403715275267143000,0.0013968348503112793,0.022675637155771255,0.0805434063076973,8.905388832092285,0.13959600031375885,-3.628150463104248
1403715275272143000,-0.005573108792304993,0.0101276570931077,0.0721706673502922,8.946117401123047,0.18865947425365448,-3.6691203117370605
1403715275277143000,3.3080577850341797e-06,0.012240448966622353,0.06586218625307083,9.158649444580078,-0.08905139565467834,-3.758657455444336
1403715275282143000,0.006290748715400696,0.01712121069431305,0.07634950429201126,9.183022499084473,0.06612542271614075,-3.7424259185791016
1403715275287143000,0.0007172226905822754,0.030377894639968872,0.07218507677316666,9.198904037475586,0.2131781429052353,-3.734410524368286
1403715275292143000,-0.006278678774833679,0.02477356046438217,0.08893906325101852,8.962236404418945,0.33563342690467834,-3.6610894203186035
1403715275297143000,-0.006277859210968018,0.032455530017614365,0.07774247974157333,9.052205085754395,0.06609124690294266,-3.677069664001465
1403715275302143000,-0.005588367581367493,0.018499013036489487,0.0909838005900383,9.060677528381348,-0.015642371028661728,-3.70147705078125
1403715275307143000,-0.0034818947315216064,0.026871994137763977,0.07914911955595016,9.011420249938965,0.13141554594039917,-3.644514799118042
1403715275312143000,-0.002085447311401367,0.010813851840794086,0.07845769077539444,8.856407165527344,0.20493584871292114,-3.611956834793091
1403715275317143000,-0.00697915256023407,0.008044091984629631,0.0742306336760521,9.077044486999512,-0.06457924097776413,-3.7423477172851562
1403715275322143000,0.002089470624923706,0.016414804384112358,0.07214326411485672,9.060714721679688,-0.06455755233764648,-3.717789649963379
1403715275327143000,0.006999880075454712,0.022707583382725716,0.07566941529512405,9.305158615112305,0.18869569897651672,-3.799670934677124
1403715275332143000,0.0007151812314987183,0.029671208932995796,0.07919769734144211,9.002945899963379,0.4173024892807007,-3.604130268096924
1403715275337143000,-0.009755387902259827,0.026184286922216415,0.08193538337945938,9.158320426940918,0.09871407598257065,-3.693502187728882
1403715275342143000,-0.006981462240219116,0.031047632917761803,0.0763377770781517,8.938081741333008,-0.023778874427080154,-3.619809150695801
1403715275347143000,0.0014111697673797607,0.025486018508672714,0.08194587379693985,9.117637634277344,0.12320463359355927,-3.6445369720458984
1403715275352143000,0.0014003664255142212,0.02197643741965294,0.08195305615663528,8.872657775878906,0.2294270545244217,-3.6037845611572266
1403715275357143000,-0.004172489047050476,0.011521262116730213,0.06868166476488113,8.921708106994629,0.13961797952651978,-3.620091438293457
1403715275362143000,-0.006273001432418823,0.004558650776743889,0.06935220211744308,9.085217475891113,-0.056407470256090164,-3.717910051345825
1403715275367143000,0.0014057755470275879,0.015723660588264465,0.07564815133810043,9.150369644165039,0.04977640137076378,-3.726099729537964
1403715275372143000,0.005597829818725586,0.022003967314958572,0.08266014605760574,9.239713668823242,0.33576345443725586,-3.799820899963379
1403715275377143000,-0.006277024745941162,0.030358951538801193,0.08335094898939133,9.002982139587402,0.29481765627861023,-3.677351474761963
1403715275382143000,-0.013952285051345825,0.027574047446250916,0.08192398399114609,9.109297752380371,0.07426148653030396,-3.7179298400878906
1403715275387143000,-0.006279841065406799,0.02547444775700569,0.08611132949590683,9.036067962646484,0.02519150823354721,-3.6525442600250244
1403715275392143000,0.0013938844203948975,0.028957542032003403,0.08402737230062485,8.962556838989258,0.09056428074836731,-3.6362433433532715
1403715275397143000,-0.0027734339237213135,0.021997347474098206,0.07497117668390274,9.068544387817383,0.1640891134738922,-3.6446142196655273
1403715275402143000,-0.004873350262641907,0.01361590251326561,0.06936711817979813,8.97088623046875,-0.015624701045453548,-3.6036109924316406
1403715275407143000,0.001395896077156067,0.01572488807141781,0.06865663081407547,9.12590217590332,-0.023663289844989777,-3.766822576522827
1403715275412143000,0.00837545096874237,0.01851271092891693,0.08124571293592453,9.174554824829102,0.254128634929657,-3.824162721633911
1403715275417143000,-0.002072274684906006,0.031075626611709595,0.07360120862722397,9.157899856567383,0.360210657119751,-3.710137367248535
1403715275422143000,-0.016036495566368103,0.027577025815844536,0.0805496945977211,9.12539291381836,0.22130151093006134,-3.7181334495544434
1403715275427143000,-0.0174437016248703,0.03174977749586105,0.07494092732667923,8.986940383911133,-0.023788293823599815,-3.628030776977539
1403715275432143000,-0.0069796741008758545,0.02826683595776558,0.07703690975904465,9.019639015197754,0.02526153065264225,-3.677029609680176
1403715275437143000,-0.0020747780799865723,0.02128157578408718,0.07985945791006088,8.91370964050293,0.0822710171341896,-3.4893910884857178
1403715275442143000,-0.0034831762313842773,0.015712808817625046,0.07006163150072098,9.003434181213379,0.02527153305709362,-3.6689295768737793
1403715275447143000,0.0020955651998519897,0.01222219504415989,0.07284877449274063,8.987283706665039,-0.023754121735692024,-3.6606950759887695
1403715275452143000,0.011169195175170898,0.012233473360538483,0.07983844727277756,9.125924110412598,0.11517378687858582,-3.7587616443634033
1403715275457143000,0.0021257996559143066,0.02061457931995392,0.07986412197351456,9.354087829589844,0.2376508116722107,-3.7916033267974854
1403715275462143000,-0.004874929785728455,0.031758129596710205,0.07847992330789566,8.994747161865234,0.34381532669067383,-3.644801616668701
1403715275467143000,-0.013949543237686157,0.02478223294019699,0.07914141565561295,9.068405151367188,0.14779624342918396,-3.70986270904541
1403715275472143000,-0.011867806315422058,0.026857890188694,0.08820287138223648,8.938015937805176,0.06604510545730591,-3.644392728805542
1403715275477143000,-0.008372962474822998,0.027566272765398026,0.08331973105669022,9.019718170166016,0.008843806572258472,-3.636206865310669
1403715275482143000,-0.0027775317430496216,0.014319771900773048,0.08472355455160141,9.093462944030762,-0.032098062336444855,-3.58728289604187
1403715275487143000,0.0006939470767974854,0.012907499447464943,0.07772975414991379,8.905728340148926,-0.05646880343556404,-3.6279711723327637
1403715275492143000,0.00908459722995758,0.004563214257359505,0.07564825564622879,9.14247989654541,0.008888346143066883,-3.701615571975708
1403715275497143000,0.012578368186950684,0.019215181469917297,0.08126234263181686,9.215436935424805,0.2785422205924988,-3.758958578109741
1403715275502143000,3.0040740966796875e-05,0.021311979740858078,0.07010512799024582,9.182597160339355,0.2866765558719635,-3.7019267082214355
1403715275507143000,-0.009074166417121887,0.029670897871255875,0.07707250863313675,9.108777046203613,0.3766694664955139,-3.8080127239227295
1403715275512143000,-0.013255923986434937,0.03174321725964546,0.07356403023004532,8.896921157836914,0.17229023575782776,-3.6282260417938232
1403715275517143000,-0.009080842137336731,0.030355803668498993,0.07912715524435043,8.995009422302246,0.08250422775745392,-3.7260231971740723
1403715275522143000,-0.006279468536376953,0.0219650249928236,0.0819290354847908,8.832056045532227,0.025168946012854576,-3.562718629837036
1403715275527143000,-0.0020935088396072388,0.01989993266761303,0.07633557170629501,9.05251407623291,-0.04827665910124779,-3.6769957542419434
1403715275532143000,0.002787843346595764,0.011508196592330933,0.07982578128576279,8.873106002807617,-0.04831046611070633,-3.611631393432617
1403715275537143000,0.011168643832206726,0.0073517970740795135,0.07355194538831711,9.109663963317871,0.06618916243314743,-3.7669031620025635
1403715275542143000,0.012578248977661133,0.021306291222572327,0.08545432239770889,9.215410232543945,0.3112011253833771,-3.7508296966552734
1403715275547143000,0.000707477331161499,0.02409152127802372,0.07638261467218399,9.068246841430664,0.34390348196029663,-3.718247175216675
1403715275552143000,-0.013244912028312683,0.029673108831048012,0.07777776569128036,9.1251802444458,0.35205551981925964,-3.7346131801605225
1403715275557143000,-0.01604725420475006,0.028953924775123596,0.08542626351118088,8.954144477844238,0.16406771540641785,-3.636390209197998
1403715275562143000,-0.013964742422103882,0.025473101064562798,0.07841918617486954,9.003300666809082,-0.00737714022397995,-3.717811107635498
1403715275567143000,-0.004189223051071167,0.019181234762072563,0.08261992782354355,8.889289855957031,-0.023828597739338875,-3.5953335762023926
1403715275572143000,0.0013958066701889038,0.01361917145550251,0.07982578128576279,9.036301612854004,-0.04013132303953171,-3.668846607208252
1403715275577143000,0.00976938009262085,0.010828031226992607,0.0798305943608284,9.011856079101562,0.0007406711811199784,-3.6770167350769043
1403715275582143000,0.009765148162841797,0.010134631767868996,0.07634135335683823,9.036126136779785,0.09888792783021927,-3.7668797969818115
1403715275587143000,0.009095892310142517,0.018520215526223183,0.07986735552549362,9.288825035095215,0.27855435013771057,-3.791623830795288
1403715275592143000,-0.0027729570865631104,0.02409532479941845,0.07428853958845139,9.117229461669922,0.31119996309280396,-3.710083484649658
1403715275597143000,-0.01603877544403076,0.028274819254875183,0.07636981457471848,9.100757598876953,0.28670260310173035,-3.7345314025878906
1403715275602143000,-0.013249114155769348,0.030365590006113052,0.07844305783510208,9.101093292236328,0.09058297425508499,-3.6853113174438477
1403715275607143000,-0.01116316020488739,0.012905973941087723,0.07633640617132187,8.897361755371094,0.008895866572856903,-3.628084659576416
1403715275612143000,-0.0041788071393966675,0.0157096479088068,0.08122914284467697,9.028103828430176,-0.03203592821955681,-3.6035776138305664
1403715275617143000,-2.2649765014648438e-06,0.012216761708259583,0.07982216030359268,8.979253768920898,-0.09734875708818436,-3.6279711723327637
1403715275622143000,0.006977677345275879,0.010133055970072746,0.07563664764165878,9.036420822143555,-0.080970898270607,-3.6688144207000732
1403715275627143000,0.015366166830062866,0.010846510529518127,0.07635390013456345,9.223955154418945,0.08245822787284851,-3.7587780952453613
1403715275632143000,0.004897609353065491,0.024791862815618515,0.08127500861883163,9.117264747619629,0.3765524923801422,-3.7182860374450684
1403715275637143000,-0.004873529076576233,0.026877906173467636,0.07917018979787827,9.051949501037598,0.31116431951522827,-3.6855709552764893
1403715275642143000,-0.011853978037834167,0.0282722357660532,0.07636723667383194,9.06004524230957,0.2621857523918152,-3.709996461868286
1403715275647143000,-0.012568458914756775,0.03454155847430229,0.07982522994279861,9.011279106140137,0.07430923730134964,-3.7178523540496826
1403715275652143000,-0.009760841727256775,0.02406029775738716,0.08054112643003464,8.856539726257324,0.008781597018241882,-3.5055956840515137
1403715275657143000,-0.0020893365144729614,0.022676192224025726,0.08402558416128159,8.946416854858398,0.0006315127247944474,-3.5708858966827393
1403715275662143000,0.005578324198722839,0.013616221025586128,0.07842627912759781,9.012006759643555,-0.15454742312431335,-3.619750738143921
1403715275667143000,0.013275697827339172,0.005264252424240112,0.07216417044401169,9.158854484558105,-0.007464321330189705,-3.677126407623291
1403715275672143000,0.011175200343132019,0.017818892374634743,0.07357700914144516,9.150091171264648,0.24593371152877808,-3.7752227783203125
1403715275677143000,0.004904016852378845,0.024096081033349037,0.07848762720823288,9.10913372039795,0.3683594763278961,-3.685659408569336
1403715275682143000,-0.005565747618675232,0.02549043297767639,0.0770765021443367,9.157990455627441,0.3112136125564575,-3.7427122592926025
1403715275687143000,-0.015326127409934998,0.026886599138379097,0.07497463375329971,9.182527542114258,0.2131253480911255,-3.701843500137329
1403715275692143000,-0.013265490531921387,0.033135320991277695,0.08052269369363785,8.91345500946045,0.03340752795338631,-3.64434552192688
1403715275697143000,-0.010461792349815369,0.02336783893406391,0.07774177938699722,8.889151573181152,0.008837235160171986,-3.562748670578003
1403715275702143000,-0.0013917982578277588,0.016411658376455307,0.0777333453297615,9.060833930969238,-0.10554367303848267,-3.61983585357666
1403715275707143000,0.010462194681167603,0.014316067099571228,0.07773073762655258,9.011919975280762,-0.07278423011302948,-3.6687686443328857
1403715275712143000,0.013959512114524841,0.010842018760740757,0.07425131648778915,9.142305374145508,0.06618726253509521,-3.7750420570373535
1403715275717143000,0.013253599405288696,0.020594175904989243,0.08404714614152908,8.995038032531738,0.3030893802642822,-3.734417676925659
1403715275722143000,1.0371208190917969e-05,0.024092476814985275,0.07777515798807144,9.100913047790527,0.327564537525177,-3.7345452308654785
1403715275727143000,-0.011140093207359314,0.022702403366565704,0.08056790381669998,9.272170066833496,0.33573469519615173,-3.799893379211426
1403715275732143000,-0.017421692609786987,0.031067045405507088,0.08056620508432388,9.125347137451172,0.27025145292282104,-3.6529428958892822
1403715275737143000,-0.01745036244392395,0.02755087986588478,0.07842765003442764,8.880812644958496,0.033413149416446686,-3.6362178325653076
1403715275742143000,-0.011165797710418701,0.01569269597530365,0.08052133768796921,8.8892822265625,-0.04832988977432251,-3.595351457595825
1403715275747143000,-0.000702977180480957,0.01292961835861206,0.07911545783281326,9.126252174377441,-0.19540269672870636,-3.6769285202026367
1403715275752143000,0.007670044898986816,0.012921402230858803,0.07982511073350906,9.019909858703613,0.02530205436050892,-3.7259905338287354
1403715275757143000,0.011164575815200806,0.020604604855179787,0.07007249444723129,9.07670783996582,0.15609638392925262,-3.76692533493042
1403715275762143000,0.01117655634880066,0.02130150981247425,0.07568632811307907,9.04394817352295,0.31938669085502625,-3.685556173324585
1403715275767143000,-0.0027729570865631104,0.020607415586709976,0.07847597450017929,9.141755104064941,0.3275355398654938,-3.7264301776885986
1403715275772143000,-0.011132404208183289,0.028285140171647072,0.0812719538807869,9.264060974121094,0.3193078339099884,-3.7264513969421387
1403715275777143000,-0.017439961433410645,0.027553366497159004,0.08124304562807083,8.888837814331055,0.1722203642129898,-3.595602035522461
1403715275782143000,-0.015364125370979309,0.021282803267240524,0.08609237521886826,8.9870023727417,0.025283142924308777,-3.7341554164886475
1403715275787143000,-0.014638945460319519,0.013610173016786575,0.07704531401395798,8.970924377441406,-0.0565701462328434,-3.5301332473754883
1403715275792143000,-0.002087026834487915,0.015027064830064774,0.07912621647119522,9.183221817016602,-0.08919268101453781,-3.69335675239563
1403715275797143000,0.006967619061470032,0.012924913316965103,0.07492882758378983,9.044514656066895,-0.08906286209821701,-3.7340688705444336
1403715275802143000,0.011864617466926575,0.017812475562095642,0.07286637276411057,9.06045913696289,0.1642317920923233,-3.742464542388916
1403715275807143000,0.01466512680053711,0.026883840560913086,0.0784754678606987,9.0929594039917,0.28669166564941406,-3.6936471462249756
1403715275812143000,-0.004166916012763977,0.023400360718369484,0.08687635511159897,9.18241024017334,0.4909013509750366,-3.726666212081909
1403715275817143000,-0.014636009931564331,0.03664957359433174,0.08405231684446335,9.206836700439453,0.2948117256164551,-3.7345163822174072
1403715275822143000,-0.02022692561149597,0.02965530753135681,0.07565095275640488,8.97053050994873,0.057872384786605835,-3.5955026149749756
1403715275827143000,-0.012575224041938782,0.02895328402519226,0.07841647416353226,8.929848670959473,-0.015539126470685005,-3.701430559158325
1403715275832143000,-0.004874482750892639,0.01988917775452137,0.07285907119512558,8.946428298950195,-0.048353180289268494,-3.5464019775390625
1403715275837143000,0.005571290850639343,0.020613037049770355,0.07492592185735703,9.207656860351562,-0.12171941995620728,-3.8156723976135254
1403715275842143000,0.014647871255874634,0.023400727659463882,0.07424206286668777,9.16688060760498,-0.07273165881633759,-3.750380039215088
1403715275847143000,0.016040802001953125,0.03456109017133713,0.07495108991861343,9.182818412780762,0.08258760720491409,-3.815727949142456
1403715275852143000,0.012555703520774841,0.03454960137605667,0.08617512136697769,8.97026252746582,0.47458162903785706,-3.6775476932525635
1403715275857143000,-0.008349567651748657,0.030379246920347214,0.07639125734567642,9.288308143615723,0.3847871422767639,-3.816234827041626
1403715275862143000,-0.016736626625061035,0.03733092546463013,0.08266191929578781,8.962071418762207,0.2947341203689575,-3.595782518386841
1403715275867143000,-0.02094300091266632,0.026854421943426132,0.07911287993192673,8.905497550964355,-0.13000845909118652,-3.611583948135376
1403715275872143000,-0.01465180516242981,0.018495159223675728,0.0777277871966362,8.987225532531738,-0.10553111135959625,-3.6035103797912598
1403715275877143000,0.005578622221946716,0.01780691184103489,0.08052178472280502,9.060942649841309,-0.14640770852565765,-3.627918004989624
1403715275882143000,0.012569829821586609,0.019924907013773918,0.07564228028059006,9.379111289978027,-0.09733400493860245,-3.7994277477264404
1403715275887143000,0.01953636109828949,0.03385426104068756,0.08195165544748306,9.06038761138916,0.21319231390953064,-3.709791421890259
1403715275892143000,0.007677197456359863,0.02967059426009655,0.07708694785833359,9.019230842590332,0.3929358422756195,-3.7100989818573
1403715275897143000,-0.008356332778930664,0.03386490046977997,0.07778825610876083,9.214850425720215,0.4010975956916809,-3.775446653366089
1403715275902143000,-0.018139243125915527,0.027559049427509308,0.07427411526441574,8.888607025146484,0.2784748375415802,-3.6365625858306885
1403715275907143000,-0.016751259565353394,0.022694597020745277,0.07701750844717026,9.117748260498047,-0.14632651209831238,-3.709604501724243
1403715275912143000,-0.008387058973312378,0.0198970977216959,0.07422161847352982,9.036396980285645,-0.2688966393470764,-3.652343988418579
1403715275917143000,0.009079664945602417,0.02620500698685646,0.07005875557661057,9.41966438293457,-0.07271034270524979,-3.881019353866577
1403715275922143000,0.018188565969467163,0.05200067162513733,0.0777927115559578,9.639267921447754,0.2703982889652252,-3.913757085800171
1403715275927143000,0.0020466744899749756,0.08617567270994186,0.07078956812620163,9.213969230651855,0.4178294539451599,-4.003437519073486
1403715275932143000,-0.018159791827201843,0.07216131687164307,0.06378836184740067,8.602558135986328,0.23758473992347717,-3.562868356704712
1403715275937143000,-0.020240485668182373,0.05125107243657112,0.07496797293424606,8.717110633850098,0.22120805084705353,-3.5384480953216553
1403715275942143000,-0.015372589230537415,0.03659851849079132,0.07701515406370163,8.72587776184082,-0.1299944370985031,-3.5951223373413086
1403715275947143000,-0.0007021427154541016,0.02408280223608017,0.09379566460847855,9.076746940612793,0.16411393880844116,-3.7342734336853027
1403715275952143000,0.004185810685157776,0.042223647236824036,0.08961588889360428,9.093046188354492,0.09869188070297241,-3.6606998443603516
1403715275957143000,0.0007049739360809326,0.03593543916940689,0.07705853134393692,8.946282386779785,0.008805692195892334,-3.530057191848755
1403715275962143000,0.0028292089700698853,0.02268141880631447,0.06732354313135147,8.86474609375,0.09857658296823502,-3.3506522178649902
1403715275967143000,0.006301388144493103,0.007350888103246689,0.07356464117765427,9.110024452209473,-0.1219896525144577,-3.5219459533691406
1403715275972143000,0.013292282819747925,0.013637854717671871,0.08336042612791061,9.215767860412598,0.19667616486549377,-3.636521577835083
1403715275977143000,0.004248425364494324,0.031782254576683044,0.08618471771478653,9.468199729919434,0.40908288955688477,-3.718381643295288
1403715275982143000,-0.013932541012763977,0.04921324551105499,0.07705941051244736,9.369997024536133,0.13964280486106873,-3.8076932430267334
1403715275987143000,-0.016732797026634216,0.029599756002426147,0.0721755102276802,8.562495231628418,0.06592732667922974,-3.383115768432617
1403715275992143000,-0.00416816771030426,0.018520629033446312,0.07774234563112259,9.248653411865234,-0.1792335957288742,-3.5545575618743896
1403715275997143000,0.009755343198776245,0.03243951499462128,0.09379436820745468,8.92993450164795,0.12325537949800491,-3.668813943862915
1403715276002143000,0.006287813186645508,0.021299490705132484,0.10641836374998093,9.272308349609375,0.589018702507019,-3.8164546489715576
1403715276007143000,-0.024411946535110474,0.038044266402721405,0.08967340737581253,9.108627319335938,0.5398423075675964,-3.677798271179199
1403715276012143000,-0.04048195481300354,-0.005314378067851067,0.07560280710458755,8.423981666564941,-0.1627158373594284,-3.546247959136963
1403715276017143000,-0.02788834273815155,-0.002396773546934128,0.06376153975725174,9.387325286865234,-0.3180563449859619,-3.7017176151275635
1403715276022143000,0.006955757737159729,0.01434440165758133,0.07282570749521255,9.338763236999512,-0.5142406821250916,-3.660532236099243
1403715276027143000,0.03347453474998474,0.04363290220499039,0.05610310286283493,9.109752655029297,-0.17071498930454254,-3.7011873722076416
1403715276032143000,0.03281882405281067,0.021967098116874695,0.04776220768690109,8.652365684509277,0.180452361702919,-3.4648377895355225
1403715276037143000,0.02372075617313385,0.010832221247255802,0.06456216424703598,8.749767303466797,0.6543948650360107,-3.6206703186035156
1403715276042143000,0.0055611878633499146,0.0024728644639253616,0.0806744322180748,8.78244686126709,0.9157796502113342,-3.5885629653930664
1403715276047143000,-0.02717779576778412,0.024792330339550972,0.08617303520441055,9.394168853759766,0.49915680289268494,-3.865396022796631
1403715276052143000,-0.0432429164648056,0.01700628735125065,0.08195037394762039,8.431849479675293,0.0004926368710584939,-3.260594606399536
1403715276057143000,-0.020912140607833862,-0.03108280897140503,0.0945076271891594,8.74288272857666,-0.21198660135269165,-3.2932510375976562
1403715276062143000,4.1425228118896484e-06,-0.013625070452690125,0.09797840565443039,8.816352844238281,-0.15472646057605743,-3.464628219604492
1403715276067143000,0.011198535561561584,-0.03590231388807297,0.10704713314771652,9.347002983093262,0.12307583540678024,-3.7753682136535645
1403715276072143000,0.009793996810913086,0.006665537133812904,0.07495377212762833,9.346452713012695,0.008875933475792408,-3.7669527530670166
1403715276077143000,0.005598083138465881,-0.0017407871782779694,0.062401436269283295,8.83200454711914,0.18051595985889435,-3.6119494438171387
1403715276082143000,-0.0013464242219924927,0.0031765513122081757,0.07638341933488846,9.403116226196289,0.29484379291534424,-3.8081114292144775
1403715276087143000,-0.0013906359672546387,0.01362297311425209,0.08822823315858841,9.166339874267578,0.3194168508052826,-3.8079631328582764
1403715276092143000,-0.007006406784057617,0.05477023869752884,0.0665426030755043,8.978682518005371,-0.1298137903213501,-3.7420055866241455
1403715276097143000,0.005585223436355591,0.010779917240142822,0.07634689658880234,8.652698516845703,-0.007499806582927704,-3.513638973236084
1403715276102143000,-0.004891157150268555,0.0010820236057043076,0.05888507515192032,9.2070951461792,0.14815226197242737,-3.9873528480529785
1403715276107143000,-0.01260097324848175,0.01081002689898014,0.08058380335569382,8.741408348083496,0.6217234134674072,-3.7512171268463135
1403715276112143000,-0.02581290900707245,0.023395253345370293,0.07843273133039474,9.35364055633545,0.18068258464336395,-3.97918963432312
1403715276117143000,-0.018850743770599365,0.03236155956983566,0.08123255521059036,8.513840675354004,-0.41617175936698914,-3.2519047260284424
1403715276122143000,0.008331924676895142,-0.012171857059001923,0.08255717903375626,9.159252166748047,-0.30960243940353394,-3.987140655517578
1403715276127143000,0.01955389976501465,0.024092966690659523,0.07988705486059189,9.044008255004883,0.3520030975341797,-3.6447789669036865
1403715276132143000,0.012543171644210815,0.020596681162714958,0.09103681892156601,9.321057319641113,0.4994733929634094,-4.020138740539551
1403715276137143000,-0.0055887699127197266,0.06103530153632164,0.08333421498537064,8.896988868713379,0.03329551964998245,-3.5381298065185547
1403715276142143000,7.703900337219238e-06,0.012888308614492416,0.08123975247144699,8.783388137817383,-0.08110079169273376,-3.4565048217773438
1403715276147143000,0.0028299540281295776,0.02061614766716957,0.08613122254610062,9.517532348632812,0.09865281730890274,-3.8241019248962402
1403715276152143000,0.001376032829284668,0.024745848029851913,0.09453495591878891,8.692813873291016,0.4499927759170532,-3.6284713745117188
1403715276157143000,-0.01251038908958435,0.04640772566199303,0.07707654684782028,9.696023941040039,0.22150741517543793,-4.044290542602539
1403715276162143000,-0.017417818307876587,0.0372791513800621,0.07430414110422134,8.570505142211914,0.18022353947162628,-3.2689945697784424
1403715276167143000,-0.016709208488464355,-0.00309811532497406,0.05681111663579941,9.240069389343262,0.025273578241467476,-3.734508752822876
1403715276172143000,-0.008357763290405273,0.014997237361967564,0.06798259168863297,8.840134620666504,0.06603831052780151,-3.5301897525787354
1403715276177143000,0.002110779285430908,-0.0023994259536266327,0.07493294030427933,9.50959587097168,-0.0318647064268589,-3.995492458343506
1403715276182143000,0.003489941358566284,0.04433334618806839,0.06168948858976364,9.215292930603027,-0.015456253662705421,-3.7748641967773438
1403715276187143000,0.00492037832736969,0.010121717117726803,0.054753415286540985,8.782910346984863,0.2375885397195816,-3.456958770751953
1403715276192143000,-0.0027626752853393555,0.007351016625761986,0.06032293289899826,9.003205299377441,0.2213258147239685,-3.628424644470215
1403715276197143000,1.6897916793823242e-05,-0.004519909620285034,0.08124981075525284,8.987156867980957,0.22945567965507507,-3.669206142425537
1403715276202143000,0.0007442682981491089,0.02548619918525219,0.09102173894643784,9.623308181762695,0.21312250196933746,-3.922044038772583
1403715276207143000,0.000692516565322876,0.035909902304410934,0.0937984511256218,8.823943138122559,0.0005683541530743241,-3.505451202392578
1403715276212143000,-0.00698445737361908,0.01710016280412674,0.09098993986845016,9.019734382629395,0.09059757739305496,-3.726067543029785
1403715276217143000,-0.013937205076217651,0.019163398072123528,0.07218077033758163,8.717618942260742,0.11497554928064346,-3.4485816955566406
1403715276222143000,1.4454126358032227e-05,-0.0010322146117687225,0.09728590399026871,9.085375785827637,0.0904509648680687,-3.6445534229278564
1403715276227143000,0.006313681602478027,0.03316611796617508,0.10635460168123245,9.631941795349121,0.024894699454307556,-3.7831039428710938
1403715276232143000,0.0027828216552734375,0.029625484719872475,0.09240802377462387,8.74218463897705,0.1395188271999359,-3.562742233276367
1403715276237143000,0.006994292140007019,0.015017718076705933,0.08264835923910141,9.044330596923828,0.14770972728729248,-3.620082378387451
1403715276242143000,0.0027853399515151978,0.022661687806248665,0.06726711243391037,8.766674041748047,0.04163770750164986,-3.6198208332061768
1403715276247143000,0.004221081733703613,-0.002412613481283188,0.06940250843763351,9.060565948486328,0.2458001673221588,-3.636646032333374
1403715276252143000,0.001459851861000061,0.03316272795200348,0.08059640973806381,9.631010055541992,0.40930113196372986,-3.9140677452087402
1403715276257143000,-0.016065925359725952,0.03730157017707825,0.07497433573007584,8.692506790161133,0.3846672475337982,-3.6202783584594727
1403715276262143000,-0.023714855313301086,0.004502603784203529,0.06169431656599045,8.611300468444824,0.1885988712310791,-3.5384809970855713
1403715276267143000,-0.017422780394554138,0.01643243432044983,0.06237974017858505,9.264694213867188,-0.18722625076770782,-3.6607611179351807
1403715276272143000,-0.0006890147924423218,0.0010610278695821762,0.060979075729846954,8.971076965332031,-0.10542867332696915,-3.6362240314483643
1403715276277143000,0.003558740019798279,0.01643487811088562,0.06591080874204636,9.71327018737793,0.06603079289197922,-3.9057648181915283
1403715276282143000,0.0007055103778839111,0.056864894926548004,0.07638785988092422,8.937572479248047,0.2702158987522125,-3.546687364578247
1403715276287143000,-0.0076640695333480835,0.01077059656381607,0.07496344298124313,8.570818901062012,0.10680428892374039,-3.4566471576690674
1403715276292143000,-0.00836266577243805,0.006648149341344833,0.0833158865571022,9.117900848388672,-0.023864230141043663,-3.6689565181732178
1403715276297143000,0.006282731890678406,-0.007312294095754623,0.09238334745168686,9.044750213623047,-0.023872407153248787,-3.6852242946624756
1403715276302143000,0.013989150524139404,0.018505889922380447,0.0951932743191719,9.680670738220215,0.14780493080615997,-4.011681079864502
1403715276307143000,0.0034693628549575806,0.04916829243302345,0.08753734081983566,8.782520294189453,0.3193085789680481,-3.6364188194274902
1403715276312143000,-0.011851176619529724,0.01012592576444149,0.09313086420297623,8.986870765686035,0.3519303798675537,-3.6448752880096436
1403715276317143000,-0.0174390971660614,0.021289914846420288,0.0868045762181282,9.068768501281738,-0.05657847225666046,-3.611722946166992
1403715276322143000,-0.010476440191268921,-0.0038778986781835556,0.0923779085278511,8.636371612548828,-0.01568654552102089,-3.5952770709991455
1403715276327143000,0.002829641103744507,-0.007986834272742271,0.09796757251024246,9.656892776489258,-0.06496600061655045,-3.8568274974823
1403715276332143000,0.01466737687587738,0.05339439958333969,0.08751637488603592,9.64774227142334,0.017114002257585526,-3.978740930557251
1403715276337143000,0.008385419845581055,0.03172587975859642,0.06730026751756668,8.70946979522705,0.13953283429145813,-3.4730141162872314
1403715276342143000,-0.0027395039796829224,0.015741471201181412,0.0505724772810936,9.166290283203125,0.23766103386878967,-3.620363712310791
1403715276347143000,-0.005604147911071777,0.01567763462662697,0.06934855133295059,8.692968368530273,0.1642468273639679,-3.7178778648376465
1403715276352143000,-0.004142329096794128,-0.005190052092075348,0.06937970966100693,9.427837371826172,0.1069442555308342,-3.848797559738159
1403715276357143000,-0.000665321946144104,0.03316923603415489,0.07498828321695328,9.427117347717285,0.303130179643631,-3.87319016456604
1403715276362143000,-0.009799152612686157,0.04148491099476814,0.07494264096021652,8.700826644897461,0.24590064585208893,-3.7016196250915527
1403715276367143000,-0.018099099397659302,0.028284359723329544,0.05683223158121109,9.117582321166992,-0.04024814814329147,-3.4567654132843018
1403715276372143000,-0.011159911751747131,0.01497814804315567,0.06586859375238419,8.725950241088867,-0.03195495158433914,-3.5381970405578613
1403715276377143000,-0.00489160418510437,-0.0017417781054973602,0.0672478899359703,8.856610298156738,0.009020942263305187,-3.7260243892669678
1403715276382143000,-0.0006702691316604614,0.013637688010931015,0.0923895314335823,9.525888442993164,0.00056930334540084,-3.848532199859619
1403715276387143000,0.004887402057647705,0.03525185585021973,0.09031134098768234,9.199119567871094,0.14775820076465607,-3.742398262023926
1403715276392143000,0.0034999847412109375,0.03174931928515434,0.0882352963089943,8.970763206481934,0.13128608465194702,-3.538374662399292
1403715276397143000,0.0035043954849243164,0.029652271419763565,0.08963707834482193,8.930051803588867,0.10671454668045044,-3.4648776054382324
1403715276402143000,0.0006976276636123657,0.0024180319160223007,0.07424118369817734,8.70170783996582,-0.04015154764056206,-3.570793628692627
1403715276407143000,0.005598500370979309,-0.0038149356842041016,0.07775042206048965,9.060722351074219,0.13962695002555847,-3.7099101543426514
1403715276412143000,0.0077019184827804565,0.022002164274454117,0.08962368220090866,9.460205078125,0.22952570021152496,-3.889417886734009
1403715276417143000,0.0006784051656723022,0.030359746888279915,0.08959699422121048,9.092893600463867,0.18061497807502747,-3.8402962684631348
1403715276422143000,-0.014631003141403198,0.03455009683966637,0.07917828112840652,9.035605430603027,0.2783803641796112,-3.579486608505249
1403715276427143000,-0.014633417129516602,0.03036186844110489,0.07357826083898544,9.011262893676758,0.15587761998176575,-3.5793211460113525
1403715276432143000,-0.0069784969091415405,0.010071227326989174,0.07564400881528854,8.65288257598877,-0.28536802530288696,-3.3827903270721436
1403715276437143000,1.0281801223754883e-05,0.0003983285278081894,0.056084610521793365,9.338418006896973,-0.23615662753582,-3.82403826713562
1403715276442143000,0.01953953504562378,0.01991387829184532,0.07216722518205643,9.199187278747559,0.15613704919815063,-3.832185983657837
1403715276447143000,0.018823549151420593,0.026881955564022064,0.08546154946088791,9.231293678283691,0.49941784143447876,-3.9385628700256348
1403715276452143000,-0.004865571856498718,0.04224023222923279,0.0729263499379158,9.133124351501465,0.4909029006958008,-3.6858365535736084
1403715276457143000,-0.02582097053527832,0.026135914027690887,0.07497290521860123,8.684490203857422,0.3192594349384308,-3.5631301403045654
1403715276462143000,-0.020940333604812622,0.01638263836503029,0.07632280141115189,8.8731050491333,-0.2934800684452057,-3.5053656101226807
1403715276467143000,-0.002101123332977295,0.006670800969004631,0.07631032913923264,9.338578224182129,-0.32617759704589844,-3.7912755012512207
1403715276472143000,0.01674284040927887,0.015726208686828613,0.08122343569993973,9.223894119262695,0.06621486693620682,-3.8484339714050293
1403715276477143000,0.014716997742652893,0.049164921045303345,0.08617594093084335,9.89989948272705,0.4013531506061554,-4.150230407714844
1403715276482143000,-0.0035136789083480835,0.06313841789960861,0.07078034430742264,8.904542922973633,0.3112904131412506,-3.7343392372131348
1403715276487143000,-0.01324470341205597,0.04292608052492142,0.06799132376909256,9.076324462890625,0.16414350271224976,-3.6609046459198
1403715276492143000,-0.002105012536048889,0.048514410853385925,0.06935294717550278,9.158531188964844,-0.24438782036304474,-3.6522324085235596
1403715276497143000,0.020214781165122986,0.02895902283489704,0.08889494091272354,8.971090316772461,-0.0564495250582695,-3.693115234375
1403715276502143000,0.026503324508666992,0.0478118471801281,0.1022433266043663,9.21498966217041,0.6054279208183289,-3.816343069076538
1403715276507143000,-0.0014333277940750122,0.04990797117352486,0.08551643043756485,8.945188522338867,0.760581910610199,-3.735121250152588
1403715276512143000,-0.023727118968963623,0.03175703436136246,0.0819319561123848,9.07629680633545,0.20504383742809296,-3.7670392990112305
1403715276517143000,-0.026514023542404175,0.03314540535211563,0.06795593351125717,8.987043380737305,-0.2117038071155548,-3.5462660789489746
1403715276522143000,0.0027813464403152466,0.026146749034523964,0.0798373892903328,8.856978416442871,-0.35079067945480347,-3.3663885593414307
1403715276527143000,0.03070428967475891,0.010843267664313316,0.09030722826719284,9.20832347869873,-0.187450110912323,-3.570770263671875
1403715276532143000,0.025155633687973022,0.03736312687397003,0.07991548627614975,9.150111198425293,0.4090866148471832,-3.563295364379883
1403715276537143000,-0.006975442171096802,0.005269521847367287,0.06881219893693924,8.7578763961792,0.8747816681861877,-3.4579498767852783
1403715276542143000,-0.04182283580303192,0.00037608668208122253,0.05618331581354141,8.945525169372559,0.48262518644332886,-3.5228700637817383
1403715276547143000,-0.042532891035079956,-0.0017836317420005798,0.07707127183675766,8.668758392333984,0.008701644837856293,-3.2934486865997314
1403715276552143000,-0.017476454377174377,-0.005883470177650452,0.08675350993871689,9.477507591247559,-0.7351395487785339,-3.709810733795166
1403715276557143000,0.011818289756774902,0.033828165382146835,0.09236680716276169,8.938706398010254,-0.4406506419181824,-3.545834541320801
1403715276562143000,0.0327988862991333,0.005908351391553879,0.07216808944940567,8.693849563598633,-0.06471249461174011,-3.4971976280212402
1403715276567143000,0.03909507393836975,0.016424397006630898,0.07151468843221664,9.044180870056152,0.3521018922328949,-3.661060094833374
1403715276572143000,0.022335976362228394,0.010832278057932854,0.0757318064570427,8.83978271484375,0.5971415042877197,-3.6043083667755127
1403715276577143000,-0.011188492178916931,0.02549026906490326,0.07012022286653519,9.059393882751465,0.605534553527832,-3.8654139041900635
1403715276582143000,-0.020938962697982788,0.017059940844774246,0.0882411077618599,8.651992797851562,0.3600432276725769,-3.554974317550659
1403715276587143000,-0.026516929268836975,-0.00873781181871891,0.08329734951257706,8.807780265808105,-0.10554520040750504,-3.611721992492676
1403715276592143000,-0.013245105743408203,0.0017491895705461502,0.1000780537724495,9.019893646240234,0.11493881791830063,-3.6119282245635986
1403715276597143000,-0.015331685543060303,0.015725577250123024,0.0819234773516655,9.264586448669434,-0.007523974869400263,-3.7179770469665527
1403715276602143000,-0.01323641836643219,0.01920776441693306,0.06238963454961777,9.09327220916748,-0.11368988454341888,-3.5627810955047607
1403715276607143000,-0.006974861025810242,0.010103369131684303,0.06935609132051468,8.815986633300781,-0.14636433124542236,-3.521801233291626
1403715276612143000,0.009076595306396484,0.010141273960471153,0.079830102622509,9.142450332641602,-0.007453076541423798,-3.709712028503418
1403715276617143000,0.019557952880859375,0.02480119839310646,0.08194557577371597,9.330009460449219,0.08234716951847076,-3.7342405319213867
1403715276622143000,0.013956651091575623,0.0457264706492424,0.06379719823598862,9.198881149291992,0.10708576440811157,-3.7831003665924072
1403715276627143000,0.0028215497732162476,0.03526271879673004,0.056152261793613434,9.060036659240723,0.2621591091156006,-3.6039204597473145
1403715276632143000,-0.0042045265436172485,0.01640424132347107,0.08054705709218979,8.945807456970215,0.3521679639816284,-3.799783706665039
1403715276637143000,-0.013952568173408508,0.020595068112015724,0.09034741669893265,9.02736759185791,0.44185641407966614,-3.702094793319702
1403715276642143000,-0.016777709126472473,0.044309914112091064,0.0867718830704689,9.060295104980469,-0.07267259061336517,-3.815549612045288
1403715276647143000,-0.006985694169998169,0.0017222296446561813,0.07911554723978043,8.783559799194336,-0.2607877254486084,-3.529862642288208
1403715276652143000,-0.0027596354484558105,-0.0030978936702013016,0.07076556235551834,9.427823066711426,0.07432931661605835,-3.905845880508423
1403715276657143000,-0.005593106150627136,0.008006688207387924,0.09592532366514206,8.733782768249512,0.4173038899898529,-3.628490447998047
1403715276662143000,-0.01043294370174408,0.006660826504230499,0.09657149761915207,9.574941635131836,-0.04038490727543831,-3.832282066345215
1403715276667143000,-0.0021043717861175537,0.0254279263317585,0.08611827343702316,8.742629051208496,-0.32629355788230896,-3.3418571949005127
1403715276672143000,0.019547268748283386,-0.0044733453541994095,0.06585707515478134,9.648783683776855,-0.27710285782814026,-4.019975185394287
1403715276677143000,0.02024272084236145,0.03665981441736221,0.06941405683755875,9.239425659179688,0.3848956525325775,-3.83240008354187
1403715276682143000,0.005550190806388855,0.024093545973300934,0.08060299605131149,9.027039527893066,0.6708835959434509,-3.849172592163086
1403715276687143000,-0.011863559484481812,0.0645480751991272,0.07705754786729813,9.14136791229248,0.1723322868347168,-3.73421049118042
1403715276692143000,-0.012533843517303467,0.01007239893078804,0.07568005472421646,8.58724594116211,0.049552902579307556,-3.326007604598999
1403715276697143000,-0.006956085562705994,0.019220512360334396,0.06657708436250687,9.557849884033203,0.0745503380894661,-4.0769877433776855
1403715276702143000,-0.011875227093696594,0.02265913039445877,0.06796606630086899,8.741781234741211,0.20504193007946014,-3.677171468734741
1403715276707143000,-0.009749829769134521,0.0401461161673069,0.06937862187623978,9.459677696228027,0.13984395563602448,-3.9627249240875244
1403715276712143000,-0.004862979054450989,0.0463770255446434,0.07149917632341385,8.78303050994873,-0.08937295526266098,-3.235978364944458
1403715276717143000,0.007001027464866638,-0.0031005386263132095,0.0798330083489418,9.43614387512207,0.0825045183300972,-3.922112226486206
1403715276722143000,-1.8298625946044922e-05,0.03592534363269806,0.08615734428167343,8.815067291259766,0.44187766313552856,-3.661130905151367
1403715276727143000,-0.004177391529083252,0.04152877256274223,0.09102534502744675,9.166245460510254,0.24574168026447296,-3.6935877799987793
1403715276732143000,-0.0076625049114227295,0.044286251068115234,0.08684542030096054,8.831982612609863,-0.0077092889696359634,-3.334057092666626
1403715276737143000,-0.005562424659729004,0.014291075989603996,0.08125660568475723,8.807682991027832,0.057747162878513336,-3.432206869125366
1403715276742143000,0.004891246557235718,0.031767938286066055,0.0924023911356926,9.264449119567871,0.1314123272895813,-3.7668588161468506
1403715276747143000,0.01257556676864624,0.037346966564655304,0.09312895685434341,9.174680709838867,0.23752793669700623,-3.644590139389038
1403715276752143000,0.009062692523002625,0.051273852586746216,0.07705079764127731,8.8890962600708,-0.023822611197829247,-3.5543737411499023
1403715276757143000,0.002833053469657898,0.02405622787773609,0.06386222690343857,8.627713203430176,0.3354808986186981,-3.2692313194274902
1403715276762143000,0.0035198330879211426,0.016429634764790535,0.07987458258867264,9.31320858001709,0.3275739550590515,-3.799865484237671
1403715276767143000,-0.009102106094360352,0.025474857538938522,0.08610933274030685,9.051788330078125,0.29509708285331726,-3.905694007873535
1403715276772143000,-0.018819719552993774,0.03592412918806076,0.08335582166910172,8.888940811157227,0.11489318311214447,-3.4241244792938232
1403715276777143000,-0.021583139896392822,-0.0010788217186927795,0.06523754447698593,8.685369491577148,-0.2527637481689453,-2.9174273014068604
1403715276782143000,0.0028532296419143677,-0.016348250210285187,0.08612503856420517,9.665326118469238,-0.08961296081542969,-3.6937484741210938
1403715276787143000,0.0027883201837539673,0.019906550645828247,0.08819761127233505,9.386693000793457,0.16433049738407135,-3.987171173095703
1403715276792143000,-0.011143222451210022,0.019863469526171684,0.07637017220258713,8.7586030960083,0.049563635140657425,-3.3913495540618896
1403715276797143000,-0.0034624189138412476,0.0003573596477508545,0.06868288666009903,8.995837211608887,-0.2119055539369583,-3.3667800426483154
1403715276802143000,0.011926829814910889,-0.010065846145153046,0.07358592003583908,9.420389175415039,0.016750164330005646,-3.5631508827209473
1403715276807143000,0.015360787510871887,0.0317462682723999,0.08618835359811783,9.606136322021484,0.6630085706710815,-4.126152038574219
1403715276812143000,-0.003501579165458679,0.04005330055952072,0.0882374718785286,8.472406387329102,0.3354838788509369,-3.4976227283477783
1403715276817143000,-0.013972774147987366,-0.008040152490139008,0.07002729922533035,8.717790603637695,0.041718464344739914,-3.750514268875122
1403715276822143000,-0.004799604415893555,0.009455041959881783,0.08057313412427902,9.697086334228516,0.16391949355602264,-3.8080220222473145
1403715276827143000,-0.008353859186172485,0.03246269375085831,0.07568434625864029,9.467561721801758,0.3850115239620209,-4.003737926483154
1403715276832143000,-0.016771942377090454,0.05256080999970436,0.07282165437936783,8.326053619384766,-0.3426108658313751,-3.415195941925049
1403715276837143000,0.006268814206123352,-0.010822221636772156,0.08050666004419327,8.857280731201172,-0.26894116401672363,-3.6033942699432373
1403715276842143000,0.021041929721832275,0.031066756695508957,0.07989799231290817,10.023516654968262,0.12293797731399536,-3.897477388381958
1403715276847143000,-0.0014146417379379272,0.04842368885874748,0.07146886736154556,8.43138313293457,0.3028980791568756,-3.5547096729278564
1403715276852143000,-0.019521549344062805,0.00660836324095726,0.06867121905088425,8.750462532043457,-0.0075339050963521,-3.489323854446411
1403715276857143000,0.0034967362880706787,0.003844667226076126,0.10286887735128403,9.069397926330566,-0.15485650300979614,-3.4483604431152344
1403715276862143000,0.0035378336906433105,0.03177151829004288,0.08055364340543747,9.70492172241211,0.08239053934812546,-3.954540729522705
1403715276867143000,-0.014652609825134277,0.035892926156520844,0.06658453494310379,8.627477645874023,0.18036971986293793,-3.5220324993133545
1403715276872143000,-0.015328243374824524,0.007320858538150787,0.06448880583047867,8.848498344421387,-0.04838370159268379,-3.4730026721954346
1403715276877143000,0.009073808789253235,0.029004372656345367,0.10563362389802933,9.89351749420166,-0.4002162218093872,-3.889052629470825
1403715276882143000,-0.002880275249481201,0.08683204650878906,0.05745815485715866,8.68376636505127,0.24623987078666687,-3.9297900199890137
1403715276887143000,-0.011851191520690918,0.03377063572406769,0.06728676706552505,8.456278800964355,0.1067359447479248,-3.3912699222564697
1403715276892143000,0.01323699951171875,0.002469252794981003,0.1028386726975441,9.273701667785645,-0.4000377953052521,-3.595201253890991
1403715276897143000,0.01881679892539978,0.07571786642074585,0.08331429213285446,9.582097053527832,-0.03160644695162773,-4.108990669250488
1403715276902143000,-0.003483310341835022,0.04069498926401138,0.06867719441652298,8.113080978393555,0.29450660943984985,-3.3913662433624268
1403715276907143000,-0.0020446330308914185,-0.003138680011034012,0.08758736401796341,8.816084861755371,0.19644244015216827,-3.2528467178344727
1403715276912143000,0.01258610188961029,0.02549338899552822,0.12380332499742508,9.501811981201172,0.008314150385558605,-3.5872275829315186
1403715276917143000,-0.004896104335784912,0.046420931816101074,0.0756317749619484,9.247843742370605,-0.007265280466526747,-3.864577531814575
1403715276922143000,-0.02299550175666809,0.0002859346568584442,0.056868381798267365,8.325339317321777,0.4661276340484619,-3.2692711353302
1403715276927143000,-0.011789277195930481,-0.012864828109741211,0.09033656865358353,9.46090316772461,0.1555957794189453,-3.620473623275757
1403715276932143000,0.010457605123519897,0.05618862807750702,0.09377069026231766,9.615159034729004,-0.09720856696367264,-4.0275559425354
1403715276937143000,-0.009077727794647217,0.04844430088996887,0.03584330528974533,8.537382125854492,0.1478852480649948,-3.5627291202545166
1403715276942143000,9.28044319152832e-05,0.011576015502214432,0.07855915278196335,9.443860054016113,0.6214945912361145,-3.6128084659576416
1403715276947143000,0.008400335907936096,0.06804604083299637,0.09380320459604263,9.737439155578613,-0.015779713168740273,-3.913374900817871
1403715276952143000,-0.0042410194873809814,0.06518647074699402,0.06094115227460861,8.586560249328613,0.04184047505259514,-3.7583441734313965
1403715276957143000,-0.00419965386390686,0.007357664406299591,0.06236382573843002,9.141963005065918,0.06641587615013123,-3.9301178455352783
1403715276962143000,-0.0006359666585922241,0.05829703435301781,0.08197776228189468,9.574345588684082,0.1311304122209549,-3.6526668071746826
1403715276967143000,-0.0035355091094970703,0.0421239510178566,0.0797819271683693,8.416022300720215,-0.32617685198783875,-3.602980613708496
1403715276972143000,-0.011150464415550232,-0.0052452702075243,0.045624248683452606,8.68496322631836,0.07435289770364761,-3.5955090522766113
1403715276977143000,-0.0013016313314437866,0.008059149608016014,0.08551452308893204,9.647635459899902,0.5889739990234375,-3.8492414951324463
1403715276982143000,-0.009079113602638245,0.05123570188879967,0.09034823626279831,8.602888107299805,0.35179850459098816,-3.4732604026794434
1403715276987143000,-0.020924970507621765,0.00035972893238067627,0.07010870426893234,8.87225341796875,0.44188445806503296,-3.653214931488037
1403715276992143000,0.004285335540771484,0.0157194584608078,0.09803520888090134,9.794912338256836,0.3599981665611267,-3.832562208175659
1403715276997143000,0.006958067417144775,0.06523103266954422,0.08963010460138321,8.961984634399414,0.2785148620605469,-3.6771411895751953
1403715277002143000,0.006314530968666077,0.01845090463757515,0.07433121651411057,8.497196197509766,0.3436114192008972,-3.252819538116455
1403715277007143000,0.020995482802391052,0.010846134275197983,0.10923361033201218,9.509415626525879,0.6216184496879578,-3.751338481903076
1403715277012143000,0.008377879858016968,0.05548183619976044,0.09452853351831436,9.174309730529785,0.31114462018013,-3.685420036315918
1403715277017143000,-0.008347347378730774,0.006511928513646126,0.07217533141374588,8.146275520324707,0.10667409747838974,-3.3013546466827393
1403715277022143000,-0.002702191472053528,-0.035877421498298645,0.07570766657590866,9.338630676269531,0.2782839834690094,-3.5717504024505615
1403715277027143000,-0.002749130129814148,0.026183322072029114,0.09171219915151596,9.631448745727539,0.17231053113937378,-3.9464707374572754
1403715277032143000,-0.025070741772651672,0.01841994747519493,0.04077855497598648,8.415512084960938,0.008791381493210793,-3.1707606315612793
1403715277037143000,-0.013931602239608765,-0.05965755134820938,0.0442025288939476,8.775497436523438,-0.18712052702903748,-3.6527130603790283
1403715277042143000,0.017490342259407043,0.015043973922729492,0.08263649791479111,9.754730224609375,-0.1139630377292633,-3.8321738243103027
1403715277047143000,0.009751886129379272,0.031663767993450165,0.06377213448286057,8.284523010253906,0.2947632372379303,-3.5709307193756104
1403715277052143000,-0.009039878845214844,-0.03383376821875572,0.08476743847131729,8.832178115844727,0.36003461480140686,-3.563324213027954
1403715277057143000,0.0035723596811294556,0.051214590668678284,0.11892982572317123,10.210254669189453,0.19666995108127594,-4.215219974517822
1403715277062143000,-0.00703825056552887,0.07986696064472198,0.10560276359319687,8.945927619934082,-0.10540289431810379,-3.7907145023345947
1403715277067143000,-0.011866673827171326,0.013508124276995659,0.08614901453256607,8.227492332458496,0.39260295033454895,-3.4405245780944824
1403715277072143000,0.002825498580932617,0.03245094418525696,0.11471574753522873,9.794917106628418,0.04948156699538231,-3.9707274436950684
1403715277077143000,0.0020281225442886353,0.07002674043178558,0.09304306656122208,8.432262420654297,-0.3834158480167389,-3.6109375953674316
1403715277082143000,0.009791165590286255,-0.017143942415714264,0.049818433821201324,8.423983573913574,0.08241215348243713,-3.5055363178253174
1403715277087143000,0.027961567044258118,-0.0003205668181180954,0.09872540086507797,9.517762184143066,0.392897367477417,-3.8570809364318848
1403715277092143000,0.001356080174446106,0.054741133004426956,0.06377322226762772,8.659835815429688,0.23781101405620575,-3.7341623306274414
1403715277097143000,-0.024357616901397705,-0.008726019412279129,0.03733061999082565,8.635723114013672,0.343713641166687,-3.2693753242492676
1403715277102143000,-0.003375902771949768,0.002492740750312805,0.08896403759717941,9.730363845825195,0.1635819524526596,-3.5470354557037354
1403715277107143000,-0.014653310179710388,0.06875793635845184,0.05749087780714035,9.508463859558105,-0.1296001523733139,-4.043924808502197
1403715277112143000,-0.013230592012405396,0.026156257838010788,0.0351693257689476,8.791017532348633,-0.08090459555387497,-3.4483935832977295
1403715277117143000,0.0021877437829971313,0.019951410591602325,0.08274092525243759,9.378904342651367,0.5151200890541077,-3.441288709640503
1403715277122143000,-0.0028441697359085083,0.08058242499828339,0.09096614271402359,9.092475891113281,0.05000603571534157,-3.9051353931427
1403715277127143000,-0.017453685402870178,0.01771933026611805,0.05815959721803665,8.456661224365234,-0.18716469407081604,-3.513453483581543
1403715277132143000,-0.0020185261964797974,-0.00448780320584774,0.08197241276502609,9.460784912109375,0.1965394765138626,-3.6367785930633545
1403715277137143000,0.012523993849754333,0.059672627598047256,0.10143487900495529,9.289015769958496,-0.1217995211482048,-3.8561272621154785
1403715277142143000,0.0020672082901000977,0.01907959207892418,0.06093289703130722,8.24454116821289,-0.2036198079586029,-3.586808443069458
1403715277147143000,0.006395399570465088,-0.024005252867937088,0.07154572755098343,9.509896278381348,0.38448193669319153,-3.6045122146606445
1403715277152143000,0.011123880743980408,0.015011320821940899,0.09097083657979965,9.036027908325195,0.13176806271076202,-3.9544219970703125
1403715277157143000,-0.005677729845046997,-0.01358632743358612,0.05880031734704971,8.815751075744629,-0.047584619373083115,-4.231820583343506
1403715277162143000,-0.008997306227684021,0.00804564543068409,0.08134744316339493,9.663385391235352,0.7608489990234375,-4.004342079162598
1403715277167143000,-0.017492428421974182,0.04845578223466873,0.09654102474451065,8.766387939453125,0.041663262993097305,-3.766582489013672
1403715277172143000,-0.016160890460014343,0.013615641742944717,0.05527486652135849,8.750865936279297,-0.4480765461921692,-4.23173713684082
1403715277177143000,0.01115494966506958,-0.00032502226531505585,0.08264031261205673,9.27245044708252,0.3605863153934479,-4.011962890625
1403715277182143000,0.015993043780326843,0.057501453906297684,0.10981904715299606,8.578877449035645,0.05795605853199959,-3.7255988121032715
1403715277187143000,-0.0007939338684082031,-0.00950217992067337,0.06998523324728012,8.153663635253906,0.2869991362094879,-3.995378255844116
1403715277192143000,0.010421082377433777,-0.015018083155155182,0.11060113459825516,9.460115432739258,0.7614507675170898,-4.289700508117676
1403715277197143000,-0.0132981538772583,0.06380631774663925,0.11121109873056412,8.83188533782959,-0.1710132658481598,-3.570396900177002
1403715277202143000,-0.011994466185569763,-0.02200743556022644,0.08320716768503189,8.456645011901855,-0.039429713040590286,-4.305298805236816
1403715277207143000,0.023739948868751526,0.021288389340043068,0.09240259975194931,9.704984664916992,0.16441352665424347,-4.150290489196777
1403715277212143000,0.004876986145973206,0.04909591004252434,0.08403801172971725,8.399541854858398,-0.19563035666942596,-3.3173234462738037
1403715277217143000,0.004216000437736511,-0.02962859719991684,0.05613657087087631,8.897224426269531,0.31943467259407043,-3.693882465362549
1403715277222143000,0.018298014998435974,0.02408873289823532,0.09461957961320877,9.974169731140137,0.6868932843208313,-3.8328287601470947
1403715277227143000,-0.02857084572315216,0.05041547492146492,0.050528742372989655,7.941601276397705,0.1882450431585312,-3.146345376968384
1403715277232143000,-0.032085537910461426,-0.04991750419139862,0.04560307413339615,8.546181678771973,0.09881199151277542,-3.669081926345825
1403715277237143000,-0.012325391173362732,0.0017108824104070663,0.0904143825173378,10.390562057495117,0.44161051511764526,-3.9713237285614014
1403715277242143000,-0.04115183651447296,0.04836524277925491,0.0449177548289299,8.252069473266602,-0.11377640813589096,-3.2848973274230957
1403715277247143000,-0.025099292397499084,-0.04079467058181763,0.05397815257310867,9.085735321044922,-0.3506791889667511,-3.6201796531677246
1403715277252143000,0.01481311023235321,0.04359261319041252,0.1154853031039238,10.620170593261719,0.04021448642015457,-3.693286180496216
1403715277257143000,-0.004170939326286316,0.09147296845912933,0.07770603150129318,7.435830593109131,-0.15568171441555023,-3.154492139816284
1403715277262143000,0.01120014488697052,-0.014264050871133804,0.07706571370363235,9.338175773620605,0.262227326631546,-3.848876714706421
1403715277267143000,0.031343311071395874,0.08890534192323685,0.11193021386861801,9.720053672790527,0.34467005729675293,-4.369792938232422
1403715277272143000,-0.002778291702270508,0.022372134029865265,0.05876138061285019,7.165831089019775,-0.00868339091539383,-3.3920376300811768
1403715277277143000,0.0020713508129119873,-0.05265437811613083,0.08123583346605301,9.101426124572754,0.4259949326515198,-4.093860626220703
1403715277282143000,-0.004138484597206116,0.05687689036130905,0.10848519951105118,9.598577499389648,0.31091681122779846,-3.775161027908325
1403715277287143000,-0.029281243681907654,-0.02215670794248581,0.0693407729268074,7.860555171966553,-0.040526408702135086,-3.3666510581970215
1403715277292143000,-0.011033892631530762,-0.05753759294748306,0.08196867257356644,9.9669771194458,0.21283607184886932,-3.9962477684020996
1403715277297143000,-0.009022876620292664,0.07430437952280045,0.10568530112504959,9.720544815063477,0.2619931399822235,-3.88916015625
1403715277302143000,-0.020229250192642212,0.007182266563177109,0.07213329523801804,8.097450256347656,-0.12209917604923248,-3.3910114765167236
1403715277307143000,-0.0027385950088500977,-0.024731628596782684,0.08122148364782333,9.983193397521973,-0.18747757375240326,-4.191671371459961
1403715277312143000,0.01250825822353363,0.09589238464832306,0.09866363555192947,8.758227348327637,-0.04017447307705879,-3.6356968879699707
1403715277317143000,0.0160302072763443,-0.0018626730889081955,0.07142157107591629,8.17953109741211,-0.24461781978607178,-3.5377957820892334
1403715277322143000,0.030928760766983032,0.018478604033589363,0.07298540323972702,10.448166847229004,0.3433578312397003,-3.8976433277130127
1403715277327143000,0.012532353401184082,0.0847727507352829,0.06939012557268143,8.986133575439453,0.25412511825561523,-3.750478744506836
1403715277332143000,-0.008335292339324951,-0.03674951195716858,0.04001442342996597,8.040060043334961,0.09856431931257248,-3.4401495456695557
1403715277337143000,-0.008865565061569214,0.00029136426746845245,0.057677946984767914,10.266554832458496,0.810270369052887,-4.313926696777344
1403715277342143000,-0.03561048209667206,0.07144436240196228,0.05889039486646652,8.528853416442871,0.2865842580795288,-3.587451696395874
1403715277347143000,-0.04599842429161072,-0.056260958313941956,0.046337373554706573,8.252609252929688,-0.04025983065366745,-3.3096461296081543
1403715277352143000,-0.015128135681152344,0.016342326998710632,0.07088137418031693,10.56179141998291,0.15556468069553375,-4.117929458618164
1403715277357143000,-0.009102463722229004,0.06022641435265541,0.08680371195077896,8.301579475402832,-0.44899195432662964,-3.2925353050231934
1403715277362143000,0.007689356803894043,-0.047765105962753296,0.09376693516969681,9.15129280090332,-0.0647793784737587,-3.767087936401367
1403715277367143000,0.03074057400226593,0.09173569083213806,0.11266116052865982,9.93303394317627,0.13928961753845215,-3.9539878368377686
1403715277372143000,0.027171596884727478,0.046232737600803375,0.09795773774385452,8.016204833984375,-0.3348630368709564,-3.4477689266204834
1403715277377143000,0.0461001843214035,-0.018465470522642136,0.12106593698263168,9.330695152282715,0.43362462520599365,-3.710282802581787
1403715277382143000,0.029261857271194458,0.11687009036540985,0.12178165465593338,9.255144119262695,0.6053090691566467,-3.848707437515259
1403715277387143000,-0.00765584409236908,0.01616670936346054,0.07840358465909958,7.41876745223999,0.4004063606262207,-3.326265811920166
1403715277392143000,-0.011646047234535217,-0.03866186738014221,0.08559288829565048,9.942184448242188,0.8504145741462708,-3.751967191696167
1403715277397143000,-0.03560854494571686,0.08964958786964417,0.07842659205198288,9.124555587768555,0.10710722953081131,-3.8319339752197266
1403715277402143000,-0.048081859946250916,-0.0264165997505188,0.020423956215381622,7.493109226226807,-0.17944227159023285,-3.179048776626587
1403715277407143000,-0.019983887672424316,-0.030311159789562225,0.04856734722852707,10.170656204223633,0.3680967688560486,-3.7760422229766846
1403715277412143000,-0.021663635969161987,0.09661731123924255,0.054682888090610504,8.921278953552246,-0.35044100880622864,-3.586566925048828
1403715277417143000,-0.003429695963859558,-0.026854097843170166,0.04846353083848953,8.807920455932617,0.057822734117507935,-3.3670902252197266
1403715277422143000,0.023257598280906677,0.038662247359752655,0.0980924740433693,10.783013343811035,0.23670467734336853,-3.921747922897339
1403715277427143000,0.00901918113231659,0.10403496026992798,0.08669453114271164,7.484344482421875,-0.0902724415063858,-3.66084361076355
1403715277432143000,0.02303740382194519,-0.04568830877542496,0.10849457234144211,9.06105899810791,0.5156134963035583,-3.857285261154175
1403715277437143000,0.010588198900222778,0.11960859596729279,0.11131081730127335,10.29967975616455,0.23702602088451385,-3.953810453414917
1403715277442143000,-0.002761244773864746,0.05033600702881813,0.0847632959485054,7.117506504058838,-0.24570415914058685,-2.7217350006103516
1403715277447143000,0.003681853413581848,-0.07352204620838165,0.10087711364030838,9.845996856689453,0.5149509906768799,-3.400953769683838
1403715277452143000,-0.02015584707260132,0.08132705092430115,0.08548901230096817,9.533233642578125,0.2208043485879898,-3.4568827152252197
1403715277457143000,-0.027877599000930786,-0.019306562840938568,0.053319595754146576,8.236565589904785,-0.38342365622520447,-3.1867847442626953
1403715277462143000,0.0009788423776626587,-0.04077642410993576,0.07367677241563797,10.424898147583008,0.3840758204460144,-3.621023178100586
1403715277467143000,-0.006295189261436462,0.08132313191890717,0.07982981950044632,9.419320106506348,-0.6207531690597534,-3.1454315185546875
1403715277472143000,0.011228859424591064,-0.044306568801403046,0.06453663855791092,8.72674560546875,0.0658431425690651,-3.2608556747436523
1403715277477143000,0.02331438660621643,0.02622116357088089,0.07859253138303757,10.432567596435547,0.5472983717918396,-3.4736762046813965
1403715277482143000,-0.010446056723594666,0.0602864995598793,0.05753953009843826,8.46409797668457,0.25377100706100464,-3.2853150367736816
1403715277487143000,-0.007555514574050903,-0.04843880981206894,0.06526105850934982,9.623744010925293,0.5072723627090454,-3.857675313949585
1403715277492143000,-0.022231310606002808,0.05271674320101738,0.07779557257890701,9.704855918884277,0.12287598848342896,-3.61195707321167
1403715277497143000,-0.016757696866989136,0.016206303611397743,0.08257190138101578,7.885196208953857,-0.13861708343029022,-3.448122024536133
1403715277502143000,-0.004101991653442383,-0.0163876973092556,0.08544553071260452,9.868310928344727,0.27039361000061035,-4.118146896362305
1403715277507143000,-0.0069495439529418945,0.04013441875576973,0.1021452471613884,9.974334716796875,-0.2037377953529358,-4.133820056915283
1403715277512143000,0.004851788282394409,-0.002610541880130768,0.10420923680067062,7.8769049644470215,0.008515163324773312,-3.644092559814453
1403715277517143000,0.006987914443016052,0.023356450721621513,0.07991937547922134,8.61938190460205,0.5234120488166809,-3.4246087074279785
1403715277522143000,0.003478631377220154,0.0324518159031868,0.06446998566389084,9.003754615783691,-0.285247266292572,-3.5542943477630615
1403715277527143000,0.025217711925506592,-0.04565691202878952,0.08058851212263107,9.648743629455566,0.4010776877403259,-3.898240327835083
1403715277532143000,0.00571267306804657,0.007269967347383499,0.078508161008358,10.308392524719238,0.2214716374874115,-4.362534046173096
1403715277537143000,-0.0013959407806396484,0.05394874885678291,0.06240212172269821,8.055618286132812,0.47426605224609375,-3.375300645828247
1403715277542143000,-0.012541145086288452,0.04155169427394867,0.05275880545377731,8.749391555786133,0.8256473541259766,-3.3272860050201416
1403715277547143000,-0.04311920702457428,0.07922327518463135,0.04014167934656143,10.332417488098145,-0.399781197309494,-4.101166725158691
1403715277552143000,-0.010505780577659607,0.031683627516031265,0.0720999613404274,8.521966934204102,-0.19525425136089325,-3.660295009613037
1403715277557143000,-0.0021018236875534058,0.048406392335891724,0.07565221935510635,8.366378784179688,0.17211660742759705,-3.4647321701049805
1403715277562143000,0.0013812333345413208,0.09724310040473938,0.05821246653795242,8.472670555114746,-0.3099363446235657,-3.251791477203369
1403715277567143000,0.03554779291152954,0.02753126621246338,0.1231066957116127,8.75057601928711,0.1968715488910675,-3.7502658367156982
