#timestamp [ns],w_RS_S_x [rad s^-1],w_RS_S_y [rad s^-1],w_RS_S_z [rad s^-1],a_RS_S_x [m s^-2],a_RS_S_y [m s^-2],a_RS_S_z [m s^-2]
1403715273262143000,-0.0020943951023931952,0.017453292519943295,0.07749261878854824,9.087495666666666,0.13075533333333333,-3.693838166666666
1403715273267143000,-0.0013962634015954637,0.019547687622336492,0.07819075048934597,9.079323458333333,0.122583125,-3.693838166666666
1403715273272143000,-0.0020943951023931952,0.016755160819145562,0.0747000919853573,9.038462416666666,0.14709974999999997,-3.6693215416666662
1403715273277143000,-0.0027925268031909274,0.020943951023931952,0.07819075048934597,9.07115125,0.122583125,-3.67749375
1403715273282143000,-0.0020943951023931952,0.020943951023931952,0.07888888219014369,9.079323458333333,0.13075533333333333,-3.702010375
1403715273287143000,0.0,0.021642082724729686,0.07958701389094143,9.054806833333332,0.07354987499999999,-3.693838166666666
1403715273292143000,-0.0013962634015954637,0.023038346126325153,0.07400196028455958,9.095667875,0.13892754166666665,-3.6611493333333334
1403715273297143000,-0.003490658503988659,0.02234021442552742,0.08028514559173915,9.062979041666667,0.07354987499999999,-3.6693215416666662
1403715273302143000,-0.0041887902047863905,0.017453292519943295,0.07609635538695278,9.136528916666666,0.14709974999999997,-3.702010375
1403715273307143000,-0.0013962634015954637,0.01815142422074103,0.07958701389094143,9.054806833333332,0.06537766666666667,-3.6366327083333334
1403715273312143000,-0.0020943951023931952,0.02024581932313422,0.07400196028455958,9.087495666666666,0.13892754166666665,-3.6693215416666662
1403715273317143000,-0.003490658503988659,0.021642082724729686,0.08028514559173915,9.046634625,0.11441091666666667,-3.67749375
1403715273322143000,-0.0027925268031909274,0.020943951023931952,0.07888888219014369,9.079323458333333,0.17161637500000002,-3.751043625
1403715273327143000,-0.0020943951023931952,0.023038346126325153,0.07958701389094143,9.054806833333332,0.11441091666666667,-3.702010375
1403715273332143000,-0.0041887902047863905,0.01884955592153876,0.07609635538695278,9.079323458333333,0.07354987499999999,-3.702010375
1403715273337143000,-0.003490658503988659,0.021642082724729686,0.07958701389094143,9.054806833333332,0.13075533333333333,-3.6693215416666662
1403715273342143000,-0.005585053606381855,0.02234021442552742,0.07819075048934597,9.087495666666666,0.10623870833333333,-3.718354791666666
1403715273347143000,-0.0027925268031909274,0.021642082724729686,0.0767944870877505,9.062979041666667,0.13892754166666665,-3.67749375
1403715273352143000,-0.0020943951023931952,0.016057029118347832,0.0767944870877505,9.038462416666666,0.0980665,-3.7346992083333332
1403715273357143000,-0.003490658503988659,0.01884955592153876,0.0747000919853573,9.062979041666667,0.122583125,-3.742871416666666
1403715273362143000,-0.0027925268031909274,0.019547687622336492,0.08028514559173915,9.038462416666666,0.0980665,-3.7346992083333332
1403715273367143000,-0.0013962634015954637,0.01815142422074103,0.0767944870877505,9.087495666666666,0.13075533333333333,-3.67749375
1403715273372143000,-0.0027925268031909274,0.019547687622336492,0.07819075048934597,9.030290208333332,0.11441091666666667,-3.67749375
1403715273377143000,-0.004886921905584123,0.016755160819145562,0.07120943348136866,9.079323458333333,0.17978858333333333,-3.67749375
1403715273382143000,0.0006981317007977319,0.02024581932313422,0.07749261878854824,9.038462416666666,0.0980665,-3.693838166666666
1403715273387143000,0.0006981317007977319,0.019547687622336492,0.07609635538695278,9.095667875,0.15527195833333335,-3.702010375
1403715273392143000,-0.0013962634015954637,0.023038346126325153,0.08098327729253688,9.07115125,0.11441091666666667,-3.693838166666666
1403715273397143000,-0.003490658503988659,0.02024581932313422,0.08028514559173915,9.095667875,0.11441091666666667,-3.7346992083333332
1403715273402143000,-0.0027925268031909274,0.02234021442552742,0.07958701389094143,9.030290208333332,0.11441091666666667,-3.6856659583333333
1403715273407143000,-0.008130204863846302,0.02263866364955902,0.07524854689836502,9.06744384765625,0.1043168231844902,-3.6617484092712402
1403715273412143000,-0.004599881358444691,0.023276016116142273,0.07737178355455399,9.05892276763916,0.0964060127735138,-3.685565233230591
1403715273417143000,-0.006612074561417103,0.021877720952033997,0.07471143454313278,9.059104919433594,0.055442456156015396,-3.734017848968506
1403715273422143000,-0.006710750050842762,0.021954640746116638,0.07656359672546387,9.018389701843262,0.09629327803850174,-3.6855900287628174
1403715273427143000,-0.004594367928802967,0.02335229516029358,0.07654110342264175,9.075275421142578,0.12827765941619873,-3.7103559970855713
1403715273432143000,-0.0025331201031804085,0.020527184009552002,0.07867162674665451,9.034549713134766,0.1039692685008049,-3.660935163497925
1403715273437143000,-0.00659711379557848,0.021202310919761658,0.07600169628858566,9.042704582214355,0.09641798585653305,-3.645156145095825
1403715273442143000,-0.006854546256363392,0.019864946603775024,0.07796277850866318,9.075249671936035,0.17697268724441528,-3.6857192516326904
1403715273447143000,-0.007295084185898304,0.023293480277061462,0.08017608523368835,9.018414497375488,0.12037794291973114,-3.7018136978149414
1403715273452143000,-0.0031982483342289925,0.020549848675727844,0.07870522886514664,9.075124740600586,0.16125504672527313,-3.6855924129486084
1403715273457143000,-0.0031957151368260384,0.02118295431137085,0.08075286448001862,8.985713005065918,0.06421339511871338,-3.685079336166382
1403715273462143000,-0.006775093264877796,0.020496845245361328,0.07388952374458313,9.059093475341797,0.12865442037582397,-3.718222141265869
1403715273467143000,-0.004535180516541004,0.02265046536922455,0.07661115378141403,9.018125534057617,0.12857438623905182,-3.6697399616241455
1403715273472143000,-0.008118969388306141,0.018492937088012695,0.0786772221326828,9.083756446838379,0.12840206921100616,-3.637097120285034
1403715273477143000,-0.003934246487915516,0.023943379521369934,0.08297482877969742,8.977269172668457,0.13713328540325165,-3.6853528022766113
1403715273482143000,-0.006612998433411121,0.019127994775772095,0.07943262159824371,9.02638053894043,0.15250864624977112,-3.7018680572509766
1403715273487143000,-0.006823522038757801,0.023323893547058105,0.08136402070522308,9.009881973266602,0.11261053383350372,-3.701554536819458
1403715273492143000,-0.0032585086300969124,0.02263091504573822,0.0759626254439354,9.050843238830566,0.14502161741256714,-3.669548749923706
1403715273497143000,-0.005107504315674305,0.022596001625061035,0.0808408185839653,9.075129508972168,0.14439892768859863,-3.6860275268554688
1403715273502143000,-0.00553326029330492,0.020502284169197083,0.07809945940971375,9.059167861938477,0.15304632484912872,-3.6777474880218506
1403715273507143000,-0.00578801054507494,0.01987093687057495,0.07873077690601349,9.05069351196289,0.16142414510250092,-3.685940742492676
1403715273512143000,-0.005550039000809193,0.02328522503376007,0.08072422444820404,9.034550666809082,0.07271388173103333,-3.6612660884857178
1403715273517143000,-0.007931751199066639,0.022608846426010132,0.08136259764432907,9.075399398803711,0.09633270651102066,-3.6531107425689697
1403715273522143000,-0.0066135348752141,0.021218061447143555,0.07608551532030106,9.0426664352417,0.12036275118589401,-3.6776957511901855
1403715273527143000,-0.00548903364688158,0.020523816347122192,0.07730956375598907,9.075357437133789,0.16160932183265686,-3.7102231979370117
1403715273532143000,-0.004312437959015369,0.022595718502998352,0.08010327070951462,9.018372535705566,0.08802469074726105,-3.7178056240081787
1403715273537143000,-0.00693435687571764,0.02334001660346985,0.07669547945261002,9.058868408203125,0.1284099519252777,-3.7671170234680176
1403715273542143000,-0.006488067097961903,0.02533571422100067,0.07592678815126419,9.026422500610352,-3.282055331510492e-05,-3.7179014682769775
1403715273547143000,-0.013643485493957996,0.019818782806396484,0.07648790627717972,8.896326065063477,0.5403332114219666,-3.6698529720306396
1403715273552143000,-0.019201230257749557,0.014159917831420898,0.09314121305942535,9.302423477172852,0.26636815071105957,-3.750615358352661
1403715273557143000,-0.03082669898867607,0.03155507147312164,0.07949000597000122,8.872913360595703,-0.12064685672521591,-3.6037487983703613
1403715273562143000,-0.005061310715973377,0.010731279850006104,0.0926908552646637,9.116386413574219,-0.3496004045009613,-3.507281541824341
1403715273567143000,0.025403905659914017,0.03811642527580261,0.06598713994026184,9.206501007080078,-0.8775537014007568,-3.6534838676452637
1403715273572143000,0.053920645266771317,0.013772755861282349,0.06158918887376785,8.83332633972168,-0.19000943005084991,-3.499161720275879
1403715273577143000,0.05739401653409004,0.020744577050209045,0.05097972974181175,9.270626068115234,0.49006688594818115,-3.7454562187194824
1403715273582143000,0.02141590788960457,0.023393720388412476,0.06930962949991226,8.816339492797852,1.4848917722702026,-3.654557466506958
1403715273587143000,-0.05176736041903496,0.012520626187324524,0.08359161764383316,9.054162979125977,1.7122763395309448,-3.9596991539001465
1403715273592143000,-0.10866071283817291,0.020067989826202393,0.09704294800758362,9.132462501525879,0.766157865524292,-3.67797589302063
1403715273597143000,-0.10716325044631958,0.02493956685066223,0.106756791472435,8.921613693237305,-0.5449885129928589,-3.6453685760498047
1403715273602143000,-0.06113765761256218,0.02154967188835144,0.10025136917829514,8.87265682220459,-1.118378758430481,-3.3210108280181885
1403715273607143000,0.01144717913120985,0.00592021644115448,0.10271520912647247,9.673168182373047,-1.2396867275238037,-3.6659767627716064
1403715273612143000,0.07638321816921234,0.049229711294174194,0.05185949429869652,9.113058090209961,-1.2481354475021362,-3.635849952697754
1403715273617143000,0.11968149244785309,0.01573692262172699,0.05159188434481621,8.692991256713867,0.08851389586925507,-3.486081838607788
1403715273622143000,0.10248856246471405,0.036356717348098755,0.05264629051089287,9.115639686584473,1.3676974773406982,-3.730339288711548
1403715273627143000,0.02608247473835945,-0.0068992674350738525,0.07731003314256668,8.709872245788574,1.9761983156204224,-3.73689603805542
1403715273632143000,-0.06044865772128105,0.016481265425682068,0.07181371748447418,9.85003662109375,1.2599509954452515,-4.112342834472656
1403715273637143000,-0.08922721445560455,0.056628867983818054,0.07264463603496552,8.613044738769531,-0.17725738883018494,-3.529797077178955
1403715273642143000,-0.05926712974905968,-0.006321907043457031,0.09940125048160553,8.36208438873291,-0.26586878299713135,-3.4158356189727783
1403715273647143000,-0.0394868366420269,0.011415272951126099,0.08189009875059128,9.723244667053223,-0.23487815260887146,-3.7277767658233643
1403715273652143000,-0.03839455172419548,0.02737690508365631,0.06600521504878998,8.820201873779297,-0.01754782535135746,-3.5485806465148926
1403715273657143000,-0.025327932089567184,-0.010143741965293884,0.06144952401518822,9.133354187011719,0.13479562103748322,-3.6966705322265625
1403715273662143000,-0.01553009171038866,0.032216355204582214,0.09146057069301605,8.984286308288574,-0.051309987902641296,-3.613868474960327
1403715273667143000,-0.004804951138794422,0.009053632616996765,0.09804850071668625,8.964396476745605,-0.21678078174591064,-3.732661247253418
1403715273672143000,0.02863665297627449,0.030144110321998596,0.09319654852151871,9.545042037963867,-0.9121993184089661,-3.563581943511963
1403715273677143000,0.08268238604068756,0.04609338939189911,0.07901632785797119,8.777552604675293,-1.0713378190994263,-3.404844284057617
1403715273682143000,0.11333560943603516,0.005353659391403198,0.07128597795963287,8.553380012512207,0.33716386556625366,-3.5903379917144775
1403715273687143000,0.07425345480442047,0.013210922479629517,0.060782212764024734,9.636316299438477,1.46308171749115,-3.8931448459625244
1403715273692143000,-0.008701366372406483,0.04328495264053345,0.04159259423613548,8.877700805664062,1.4460583925247192,-3.967858076095581
1403715273697143000,-0.06807388365268707,-0.005080431699752808,0.06732718646526337,8.484582901000977,1.454473853111267,-3.64894962310791
1403715273702143000,-0.11083047091960907,0.0067375898361206055,0.10916914790868759,9.41193962097168,1.153382420539856,-3.859342098236084
1403715273707143000,-0.154769167304039,0.02333351969718933,0.1082640141248703,8.882000923156738,0.25835686922073364,-3.7424399852752686
1403715273712143000,-0.14220809936523438,0.00764717161655426,0.11327499896287918,9.392291069030762,-0.9914251565933228,-3.528944969177246
1403715273717143000,-0.07196572422981262,0.040007978677749634,0.11002311110496521,9.122573852539062,-2.0288045406341553,-3.362440347671509
1403715273722143000,0.06397457420825958,0.016754448413848877,0.09363840520381927,9.057242393493652,-2.0554211139678955,-3.540034770965576
1403715273727143000,0.1444443017244339,0.03441861271858215,0.05025670304894447,9.484149932861328,-1.4225906133651733,-3.562800645828247
1403715273732143000,0.1863073855638504,0.05144025385379791,0.0262839887291193,8.848814010620117,-0.18877604603767395,-3.6182641983032227
1403715273737143000,0.1742975115776062,0.008115172386169434,0.046531807631254196,8.690780639648438,1.4979956150054932,-3.763599395751953
1403715273742143000,0.07702462375164032,0.033531203866004944,0.043848466128110886,9.625997543334961,2.8275203704833984,-4.093048095703125
1403715273747143000,-0.0633106380701065,0.03057911992073059,0.07233000546693802,8.322364807128906,2.896517276763916,-3.8032710552215576
1403715273752143000,-0.16931627690792084,-0.01159553974866867,0.07907359302043915,8.6942720413208,1.6349225044250488,-3.7874019145965576
1403715273757143000,-0.19311900436878204,0.0038486719131469727,0.11966212838888168,9.185126304626465,0.17617011070251465,-3.6318116188049316
1403715273762143000,-0.1640084683895111,0.005512595176696777,0.10940349847078323,9.199357986450195,-1.480039358139038,-3.648298740386963
1403715273767143000,-0.08119390904903412,0.0168028324842453,0.11424912512302399,9.255440711975098,-1.6464009284973145,-3.3545212745666504
1403715273772143000,0.010640132240951061,0.04321703314781189,0.08635473251342773,9.366327285766602,-1.9016035795211792,-3.558783531188965
1403715273777143000,0.11317670345306396,0.034570470452308655,0.07205870002508163,8.68913745880127,-1.1885511875152588,-3.32509708404541
1403715273782143000,0.1411174088716507,0.023620739579200745,0.042102355509996414,9.231929779052734,0.003803716041147709,-3.697711706161499
1403715273787143000,0.1254490613937378,0.055158331990242004,0.03476076200604439,9.205182075500488,0.9400789141654968,-3.826059103012085
1403715273792143000,0.0646524578332901,0.006023332476615906,0.05299529433250427,8.067397117614746,1.6520686149597168,-3.5731940269470215
1403715273797143000,-0.015678953379392624,0.008089408278465271,0.06580254435539246,9.413623809814453,1.9292799234390259,-4.172336101531982
1403715273802143000,-0.08326169848442078,0.022078782320022583,0.10658588260412216,8.558159828186035,1.2632924318313599,-3.636026382446289
1403715273807143000,-0.1257924884557724,-0.015188738703727722,0.1261354237794876,9.10664176940918,0.5728827714920044,-3.9553139209747314
1403715273812143000,-0.12558622658252716,0.04383966326713562,0.09985562413930893,9.316754341125488,-0.46780726313591003,-3.3096423149108887
1403715273817143000,-0.07806384563446045,-0.0052347332239151,0.11276981979608536,8.586897850036621,-0.8906391263008118,-3.451201915740967
1403715273822143000,-0.02577487751841545,0.0011775046586990356,0.06631655246019363,10.214983940124512,-1.6065618991851807,-3.8684680461883545
1403715273827143000,0.07335780560970306,0.07024864852428436,0.03181013837456703,8.980915069580078,-1.6810969114303589,-3.5554122924804688
1403715273832143000,0.13984782993793488,0.009088084101676941,0.047324687242507935,8.236040115356445,-0.3745644688606262,-3.288541793823242
1403715273837143000,0.13314080238342285,0.028546854853630066,0.05815872922539711,9.450033187866211,1.3070721626281738,-3.8284366130828857
1403715273842143000,0.049511928111314774,0.01680898666381836,0.07804778963327408,8.644240379333496,2.0975780487060547,-3.872983694076538
1403715273847143000,-0.04287458583712578,0.01286923885345459,0.0662478357553482,9.487264633178711,1.6035056114196777,-4.123215675354004
1403715273852143000,-0.08691099286079407,0.047636568546295166,0.08195742219686508,8.56071949005127,0.20545028150081635,-3.376237154006958
1403715273857143000,-0.07101099193096161,-0.0001700073480606079,0.09942635893821716,8.591584205627441,-0.3634789288043976,-3.675868272781372
1403715273862143000,-0.04817184433341026,0.015889093279838562,0.08935999870300293,9.520204544067383,-0.256107896566391,-3.578916311264038
1403715273867143000,-0.02824486419558525,0.022545158863067627,0.07656093686819077,8.848578453063965,-0.11697504669427872,-3.589244842529297
1403715273872143000,-0.012730193324387074,0.004856809973716736,0.06443854421377182,9.055333137512207,-0.27004513144493103,-3.6539101600646973
1403715273877143000,0.0026230094954371452,0.020468801259994507,0.07704829424619675,9.187500953674316,-0.09246572107076645,-3.6776843070983887
1403715273882143000,0.013631719164550304,0.021272823214530945,0.07244985550642014,8.593859672546387,0.20089088380336761,-3.539975166320801
1403715273887143000,0.014059382490813732,0.002170771360397339,0.09020550549030304,9.287352561950684,0.33027350902557373,-3.734135866165161
1403715273892143000,-0.000769508071243763,0.034820690751075745,0.09343472123146057,9.299104690551758,0.2930930554866791,-3.7666244506835938
1403715273897143000,-0.012200159020721912,0.021428227424621582,0.11235508322715759,8.672540664672852,0.5049983263015747,-3.685065984725952
1403715273902143000,-0.02298332378268242,0.02033412456512451,0.1090831309556961,9.213440895080566,0.18415802717208862,-3.6832573413848877
1403715273907143000,-0.016496282070875168,0.035315945744514465,0.098179392516613,9.108628273010254,-0.5630714297294617,-3.5898523330688477
1403715273912143000,0.028222132474184036,0.018926575779914856,0.06763157248497009,9.009208679199219,-1.1939277648925781,-3.618844985961914
1403715273917143000,0.08234353363513947,0.02125599980354309,0.05406610295176506,9.333370208740234,-0.23800234496593475,-3.686737537384033
1403715273922143000,0.07577867805957794,0.028438836336135864,0.04350298270583153,8.714923858642578,1.0966724157333374,-3.7959506511688232
1403715273927143000,0.016636956483125687,0.01960146427154541,0.03482640162110329,9.027421951293945,1.572239875793457,-3.8264873027801514
1403715273932143000,-0.052493613213300705,0.010992437601089478,0.07151717692613602,8.912965774536133,1.687928557395935,-3.7552907466888428
1403715273937143000,-0.12484186887741089,0.006179824471473694,0.08417049795389175,9.053290367126465,1.135858178138733,-3.7664217948913574
1403715273942143000,-0.1411474645137787,0.014865696430206299,0.10793609917163849,9.10812759399414,-0.13207702338695526,-3.5499300956726074
1403715273947143000,-0.10431002080440521,0.024314239621162415,0.08655239641666412,8.99099349975586,-1.5804436206817627,-3.493694305419922
1403715273952143000,-0.005085569806396961,0.03428567945957184,0.09634881466627121,9.27942180633545,-1.8250948190689087,-3.340378761291504
1403715273957143000,0.07150615751743317,0.028752252459526062,0.10339740663766861,9.05235767364502,-0.7292867302894592,-3.627380132675171
1403715273962143000,0.08622120320796967,0.03901602327823639,0.07181640714406967,9.182168006896973,0.2876644730567932,-3.647683620452881
1403715273967143000,0.07182438671588898,0.03689591586589813,0.08107123523950577,8.588735580444336,0.2401847094297409,-3.6301512718200684
1403715273972143000,0.08055438101291656,-0.0002599954605102539,0.07555793970823288,9.039224624633789,-0.28578615188598633,-3.709587574005127
1403715273977143000,0.10105837881565094,0.0323658287525177,0.0768548771739006,9.262372016906738,-0.3557603061199188,-3.7619357109069824
1403715273982143000,0.11561267077922821,0.010699823498725891,0.06887473165988922,8.967414855957031,1.0793861150741577,-3.7955052852630615
1403715273987143000,0.018518466502428055,0.032562851905822754,0.061961133033037186,9.102192878723145,2.4496192932128906,-3.913454532623291
1403715273992143000,-0.12370656430721283,0.00915384292602539,0.081039659678936,8.736579895019531,3.335151433944702,-3.8979623317718506
1403715273997143000,-0.25399309396743774,0.018859416246414185,0.08614224195480347,9.469345092773438,2.203645944595337,-4.02900505065918
1403715274002143000,-0.29192712903022766,0.022878065705299377,0.10014672577381134,8.698019981384277,-0.5842576622962952,-3.26955246925354
1403715274007143000,-0.18709929581379212,-0.0020943951023931952,0.10890854532444616,9.250939833333334,-3.317916583333333,-3.505877375
1403715274012143000,0.014660765716752367,0.041189770347066175,0.09145525280450287,8.932223708333334,-4.339442625,-2.982856041666666
1403715274017143000,0.19908380508422852,0.016231030225753784,0.07515833526849747,9.340699195861816,-2.921066999435425,-3.6821208000183105
1403715274022143000,0.28732913732528687,0.03271147608757019,0.06777776032686234,9.534998893737793,-0.08106476068496704,-3.8462257385253906
1403715274027143000,0.2242019921541214,0.06803140044212341,0.02632569707930088,8.899763107299805,2.1266279220581055,-4.00075101852417
1403715274032143000,0.10683886706829071,0.03567656874656677,0.04158691689372063,8.138260841369629,2.8787426948547363,-3.6229496002197266
1403715274037143000,-0.015584570355713367,0.001555316150188446,0.07312832027673721,9.106979370117188,2.1055190563201904,-4.041257381439209
1403715274042143000,-0.10885386168956757,0.0004529803991317749,0.12363097816705704,9.006747245788574,1.1563529968261719,-3.9211344718933105
1403715274047143000,-0.1440359205007553,0.010631471872329712,0.1229785904288292,9.040972709655762,0.5137829780578613,-3.858245849609375
1403715274052143000,-0.14131362736225128,0.023769482970237732,0.14747735857963562,9.034852027893066,-0.13247233629226685,-3.4672114849090576
1403715274057143000,-0.12157128751277924,0.016666382551193237,0.10838562995195389,9.420883178710938,-0.8813226222991943,-3.7740678787231445
1403715274062143000,-0.05884271487593651,0.04231362044811249,0.08047652244567871,9.372777938842773,-1.4171735048294067,-3.521946668624878
1403715274067143000,0.020729530602693558,0.033697307109832764,0.0624556839466095,9.008391380310059,-1.5146783590316772,-3.446316957473755
1403715274072143000,0.09808674454689026,0.04200376570224762,0.04756024107336998,9.22521686553955,-1.3863458633422852,-3.5977141857147217
1403715274077143000,0.15061631798744202,0.04051445424556732,0.06148936226963997,8.732067108154297,-0.3645741641521454,-3.6609609127044678
1403715274082143000,0.1366526335477829,0.04493696987628937,0.06314059346914291,9.333049774169922,1.3078620433807373,-3.9746339321136475
1403715274087143000,0.0613756962120533,0.04331552982330322,0.08593600243330002,8.696956634521484,1.9948583841323853,-3.7225992679595947
1403715274092143000,-0.032831232994794846,0.01987859606742859,0.09095446020364761,8.577960968017578,1.8107304573059082,-3.8003907203674316
1403715274097143000,-0.11619040369987488,0.007705792784690857,0.0935588851571083,8.984845161437988,0.8675875067710876,-3.6356759071350098
1403715274102143000,-0.1332961618900299,0.009599357843399048,0.10595126450061798,8.987712860107422,0.10723277926445007,-3.6960196495056152
1403715274107143000,-0.10939209163188934,0.005110979080200195,0.10941330343484879,9.253466606140137,-0.522918164730072,-3.6241674423217773
1403715274112143000,-0.07256965339183807,0.02456715703010559,0.1062038317322731,8.962508201599121,-0.9382160305976868,-3.3779444694519043
1403715274117143000,0.0003622947260737419,0.004014819860458374,0.10061796009540558,8.995735168457031,-1.2838668823242188,-3.3941333293914795
1403715274122143000,0.06416298449039459,0.010654032230377197,0.07811955362558365,9.6051607131958,-1.1323692798614502,-3.695979118347168
1403715274127143000,0.1005486398935318,0.043822139501571655,0.05241314321756363,9.209701538085938,-0.3183768391609192,-3.604504346847534
1403715274132143000,0.10824429988861084,0.022701770067214966,0.05161522328853607,8.714920997619629,0.3343086540699005,-3.667285203933716
1403715274137143000,0.07868210971355438,0.03621235489845276,0.06462125480175018,9.16181468963623,1.105735421180725,-3.703765869140625
1403715274142143000,0.03151305392384529,0.027427449822425842,0.09196314215660095,8.56957721710205,1.5367459058761597,-3.6055665016174316
1403715274147143000,-0.035495977848768234,0.0031269043684005737,0.10131559520959854,9.120671272277832,1.266206979751587,-3.7668628692626953
1403715274152143000,-0.09438209235668182,0.006329730153083801,0.09437132626771927,8.903857231140137,0.5173946022987366,-3.6279263496398926
1403715274157143000,-0.09118320047855377,-0.007544532418251038,0.08445531874895096,9.04478931427002,-0.4559706747531891,-3.6443982124328613
1403715274162143000,-0.04852544888854027,0.017258569598197937,0.07919783890247345,9.426859855651855,-0.8643543720245361,-3.697967529296875
1403715274167143000,0.0031296489760279655,0.020548254251480103,0.07968004047870636,8.941486358642578,-0.6369174718856812,-3.5569376945495605
1403715274172143000,0.03055178001523018,0.015975579619407654,0.07974027097225189,8.986153602600098,-0.17503975331783295,-3.556718111038208
1403715274177143000,0.02691333368420601,0.018732517957687378,0.08776124566793442,8.851202011108398,0.3356024920940399,-3.6614603996276855
1403715274182143000,0.007908421568572521,0.008520007133483887,0.08796358853578568,8.984152793884277,0.42500582337379456,-3.672391653060913
1403715274187143000,-0.0032912613824009895,0.02123875916004181,0.08976644277572632,9.351588249206543,0.14201687276363373,-3.905258893966675
1403715274192143000,0.00398783665150404,0.03208567202091217,0.0737839788198471,9.002424240112305,-0.5019605159759521,-3.5707507133483887
1403715274197143000,0.03964250162243843,0.027341142296791077,0.07950499653816223,9.149497985839844,-0.496669203042984,-3.6360418796539307
1403715274202143000,0.06581230461597443,0.03507097065448761,0.06724870204925537,8.929451942443848,0.06887179613113403,-3.6051642894744873
1403715274207143000,0.04281308129429817,0.014400586485862732,0.06522102653980255,8.895654678344727,1.1486338376998901,-3.7788591384887695
1403715274212143000,-0.015739064663648605,0.021586701273918152,0.07451365143060684,8.947378158569336,1.4637863636016846,-3.834404945373535
1403715274217143000,-0.076848104596138,0.004502087831497192,0.07305113971233368,8.994457244873047,1.0005360841751099,-3.778712511062622
1403715274222143000,-0.09481745958328247,0.005160018801689148,0.0839550718665123,9.171799659729004,0.1228867620229721,-3.685791254043579
1403715274227143000,-0.07668603956699371,0.012539923191070557,0.07660823315382004,9.036954879760742,-0.7015700936317444,-3.5331568717956543
1403715274232143000,-0.02779976651072502,0.012499138712882996,0.07056865841150284,9.164422988891602,-0.9909266233444214,-3.599137544631958
1403715274237143000,0.017291832715272903,0.028220459818840027,0.06707591563463211,9.158308029174805,-0.573860228061676,-3.4584991931915283
1403715274242143000,0.038015712052583694,0.01721423864364624,0.0629606693983078,8.825927734375,-0.24106696248054504,-3.597682476043701
1403715274247143000,0.04476963356137276,0.014514610171318054,0.06565473973751068,8.846004486083984,0.282283216714859,-3.4689457416534424
1403715274252143000,0.03397144749760628,0.0025290697813034058,0.0689597800374031,9.051369667053223,0.42984646558761597,-3.735106945037842
1403715274257143000,0.009471285156905651,0.004301577806472778,0.07847383618354797,8.844228744506836,0.4295447766780853,-3.668950319290161
1403715274262143000,-0.007128131575882435,-0.0005388706922531128,0.08625242114067078,9.219165802001953,0.5850696563720703,-3.847970485687256
1403715274267143000,-0.02305493876338005,0.011278346180915833,0.09382452815771103,9.06845760345459,0.45612773299217224,-3.7411816120147705
1403715274272143000,-0.04602948948740959,0.008795827627182007,0.0848584994673729,8.977797508239746,0.38712966442108154,-3.6701061725616455
1403715274277143000,-0.04805720970034599,0.0017346739768981934,0.09803139418363571,9.042947769165039,0.04368138313293457,-3.667454719543457
1403715274282143000,-0.03933347389101982,0.0007878541946411133,0.08710205554962158,8.873523712158203,-0.2741570770740509,-3.5320701599121094
1403715274287143000,-0.015740256756544113,-0.004804834723472595,0.08873019367456436,9.237889289855957,-0.39075586199760437,-3.7200307846069336
1403715274292143000,0.008668857626616955,0.006369665265083313,0.07362968474626541,9.263795852661133,-0.3240119218826294,-3.7518703937530518
1403715274297143000,0.028704363852739334,0.01774492859840393,0.06574541330337524,9.254817962646484,-0.15008415281772614,-3.7357819080352783
1403715274302143000,0.03833024576306343,0.030381202697753906,0.05745423212647438,9.051139831542969,0.1853911131620407,-3.742490768432617
1403715274307143000,0.030136961489915848,0.0379919558763504,0.05581178143620491,9.092487335205078,0.5984598398208618,-3.816190719604492
1403715274312143000,-0.0002810480073094368,0.03865814208984375,0.0737871453166008,8.814059257507324,0.6820870041847229,-3.652801275253296
1403715274317143000,-0.027155917137861252,0.019779160618782043,0.07024773210287094,8.805910110473633,0.5145286321640015,-3.7098019123077393
1403715274322143000,-0.04423333331942558,0.008511826395988464,0.07891693711280823,8.944500923156738,0.3589917719364166,-3.7347450256347656
1403715274327143000,-0.048321764916181564,0.015528783202171326,0.07986282557249069,9.132857322692871,0.17389990389347076,-3.784407615661621
1403715274332143000,-0.038874994963407516,0.029511988162994385,0.07477368414402008,9.213255882263184,-0.1680644154548645,-3.77581787109375
1403715274337143000,-0.02399919554591179,0.03807516396045685,0.06845848262310028,9.182360649108887,-0.2949487566947937,-3.685537338256836
1403715274342143000,0.0006609736010432243,0.04136151075363159,0.07267358154058456,9.084866523742676,-0.3646518588066101,-3.5547842979431152
1403715274347143000,0.022572893649339676,0.03861381113529205,0.08093604445457458,8.773148536682129,-0.19535914063453674,-3.570143938064575
1403715274352143000,0.02997620776295662,0.020786821842193604,0.07583677768707275,8.985771179199219,0.24891884624958038,-3.6133692264556885
1403715274357143000,0.020117420703172684,0.01696772873401642,0.085377536714077,8.984094619750977,0.46369099617004395,-3.7200241088867188
1403715274362143000,-0.002896261401474476,0.011218145489692688,0.07322841882705688,9.057503700256348,0.6913883686065674,-3.793238401412964
1403715274367143000,-0.03728429600596428,0.021762922406196594,0.07720322906970978,9.41840648651123,0.6273141503334045,-3.856903553009033
1403715274372143000,-0.05022863671183586,0.03595763444900513,0.07999662309885025,8.970820426940918,0.22606143355369568,-3.7091734409332275
1403715274377143000,-0.04353218898177147,0.026883810758590698,0.07490946352481842,8.963155746459961,-0.4347495436668396,-3.4499666690826416
1403715274382143000,0.004065352492034435,0.018888384103775024,0.08356726914644241,8.85944938659668,-0.9297061562538147,-3.326322317123413
1403715274387143000,0.04951776936650276,0.00229799747467041,0.06227082386612892,8.810400009155273,-0.786188006401062,-3.392954111099243
1403715274392143000,0.08068500459194183,-0.007107138633728027,0.06517703831195831,9.27053165435791,0.09858451038599014,-3.687699556350708
1403715274397143000,0.06137632206082344,0.006416112184524536,0.05650503560900688,9.149311065673828,0.9692746996879578,-3.861004590988159
1403715274402143000,0.0038702664896845818,0.015301942825317383,0.06868889927864075,9.12553596496582,1.6130973100662231,-3.926771402359009
1403715274407143000,-0.0676562637090683,0.023832038044929504,0.09168155491352081,9.264400482177734,1.3986992835998535,-3.8826117515563965
1403715274412143000,-0.12326644361019135,0.030853286385536194,0.09636499732732773,8.857941627502441,0.13962458074092865,-3.5799508094787598
1403715274417143000,-0.10288022458553314,0.023600414395332336,0.10935261100530624,8.830911636352539,-0.8763214945793152,-3.426945686340332
1403715274422143000,-0.029518555849790573,0.009566143155097961,0.09732474386692047,8.914706230163574,-1.5035988092422485,-3.4523208141326904
1403715274427143000,0.04720716550946236,0.004648655652999878,0.0841040089726448,8.992056846618652,-1.2600516080856323,-3.4827258586883545
1403715274432143000,0.08992549777030945,0.012100279331207275,0.06186358258128166,9.435564041137695,-0.34312450885772705,-3.8603954315185547
1403715274437143000,0.08772324025630951,0.03270873427391052,0.05135428532958031,9.24798583984375,0.6926226019859314,-3.966468572616577
1403715274442143000,0.04996975138783455,0.045741498470306396,0.06116849556565285,8.945911407470703,1.1598435640335083,-3.769716262817383
1403715274447143000,0.000371771864593029,0.033425018191337585,0.07379822432994843,8.903675079345703,1.2414231300354004,-3.686258316040039
1403715274452143000,-0.050047021359205246,0.030532345175743103,0.08881200104951859,8.872366905212402,0.9575530290603638,-3.668916702270508
1403715274457143000,-0.08234541118144989,0.025141924619674683,0.09441985934972763,9.124439239501953,0.5184720754623413,-3.5961804389953613
1403715274462143000,-0.0782492607831955,0.018698498606681824,0.10013023763895035,8.951885223388672,-0.23021551966667175,-3.5640387535095215
1403715274467143000,-0.06883792579174042,0.015314921736717224,0.06723812967538834,8.995685577392578,-0.4979777932167053,-3.631270408630371
1403715274472143000,-0.02405593916773796,0.023785099387168884,0.06255198270082474,9.45191478729248,-0.5452500581741333,-3.786980390548706
1403715274477143000,0.014099943451583385,0.04216116666793823,0.06165362522006035,9.094517707824707,-0.7626234889030457,-3.58186411857605
1403715274482143000,0.04549195244908333,0.047627538442611694,0.05813019722700119,8.995950698852539,-0.28879469633102417,-3.4993534088134766
1403715274487143000,0.06615974009037018,0.031914517283439636,0.07514050602912903,8.796774864196777,0.0024427033495157957,-3.570826292037964
1403715274492143000,0.0597466416656971,0.026578038930892944,0.0598822720348835,8.926020622253418,0.4844096302986145,-3.6942145824432373
1403715274497143000,0.033811140805482864,0.013424381613731384,0.060579124838113785,8.968008995056152,0.6734136343002319,-3.5963995456695557
1403715274502143000,-0.007409852929413319,0.002165883779525757,0.045316729694604874,9.058417320251465,0.8883802890777588,-3.892496347427368
1403715274507143000,-0.04502220079302788,0.013275682926177979,0.053109437227249146,8.987717628479004,0.7288448214530945,-3.7204089164733887
1403715274512143000,-0.06320632994174957,0.01643429696559906,0.07237429171800613,9.337737083435059,0.12494755536317825,-3.8506922721862793
1403715274517143000,-0.060667525976896286,0.0263119637966156,0.09200843423604965,8.775333404541016,-0.0396137498319149,-3.693937063217163
1403715274522143000,-0.04890931770205498,0.028934255242347717,0.1060161218047142,8.962390899658203,-0.25643792748451233,-3.5059690475463867
1403715274527143000,-0.012186271138489246,0.021330952644348145,0.1081383153796196,9.171510696411133,-0.45039185881614685,-3.6672375202178955
1403715274532143000,0.012408453039824963,0.013545244932174683,0.08688455820083618,8.831082344055176,-0.5110671520233154,-3.447627544403076
1403715274537143000,0.03405432775616646,0.006431877613067627,0.0760483369231224,9.165153503417969,-0.22294096648693085,-3.6940340995788574
1403715274542143000,0.043954599648714066,0.013697132468223572,0.06776639074087143,8.897425651550293,-0.14633990824222565,-3.637923240661621
1403715274547143000,0.04563568904995918,0.013755232095718384,0.06958997994661331,9.353031158447266,0.3138306736946106,-3.8109989166259766
1403715274552143000,0.030562419444322586,0.027718722820281982,0.07903610169887543,9.082056999206543,0.6230117678642273,-3.710996150970459
1403715274557143000,-0.0015523554757237434,0.026099249720573425,0.08028824627399445,8.896095275878906,0.879801869392395,-3.7845382690429688
1403715274562143000,-0.028977137058973312,0.017028138041496277,0.07581030577421188,9.001725196838379,0.3796408772468567,-3.5542330741882324
1403715274567143000,-0.03942741081118584,0.02292819321155548,0.0657411441206932,9.082366943359375,0.2151765525341034,-3.7337090969085693
1403715274572143000,-0.04086063429713249,0.016002506017684937,0.052672822028398514,8.994409561157227,0.19431567192077637,-3.685443639755249
1403715274577143000,-0.04493645951151848,0.02044682204723358,0.06140939146280289,9.224157333374023,0.3657229244709015,-3.769981861114502
1403715274582143000,-0.04280565306544304,0.0385986864566803,0.08108153194189072,8.978562355041504,0.27830737829208374,-3.7679219245910645
1403715274587143000,-0.04168475791811943,0.020038142800331116,0.08113346248865128,8.856792449951172,-0.2637079656124115,-3.458019733428955
1403715274592143000,-0.014986825175583363,0.0378914475440979,0.09158787876367569,9.2616605758667,-0.3199574947357178,-3.766176462173462
1403715274597143000,0.018016833811998367,0.03012564778327942,0.08428025990724564,8.5662202835083,-0.9865399599075317,-3.276475429534912
1403715274602143000,0.0647292286157608,0.011954724788665771,0.07063814997673035,9.434845924377441,-0.8044208884239197,-3.6948225498199463
1403715274607143000,0.09864091873168945,0.032314687967300415,0.07536377012729645,8.739582061767578,-0.007274808827787638,-3.54630970954895
1403715274612143000,0.07382170855998993,0.008686408400535583,0.04968428611755371,9.069042205810547,0.9482893943786621,-3.724292278289795
1403715274617143000,0.025922495871782303,0.02606920897960663,0.06601927429437637,9.264387130737305,1.4690773487091064,-3.851081132888794
1403715274622143000,-0.0429583303630352,0.022328734397888184,0.06179174408316612,8.760970115661621,1.1643702983856201,-3.7124452590942383
1403715274627143000,-0.0820891410112381,0.012869462370872498,0.07475442439317703,9.302873611450195,0.5546720623970032,-3.8491456508636475
1403715274632143000,-0.08692494034767151,0.026489853858947754,0.10164923220872879,8.693885803222656,-0.1247868463397026,-3.504819869995117
1403715274637143000,-0.07154031097888947,0.01684229075908661,0.0802946388721466,9.190351486206055,-0.6429445147514343,-3.477571487426758
1403715274642143000,-0.023178379982709885,0.024112403392791748,0.08166981488466263,9.401368141174316,-0.8377320766448975,-3.720221519470215
1403715274647143000,0.018976766616106033,0.021684899926185608,0.06045680120587349,8.745344161987305,-0.5621172785758972,-3.5475215911865234
1403715274652143000,0.04576810076832771,0.02623307704925537,0.05407476797699928,9.597272872924805,-0.20331960916519165,-3.8444440364837646
1403715274657143000,0.05566634610295296,0.03533986210823059,0.049998801201581955,8.808253288269043,-0.08952756971120834,-3.620455026626587
1403715274662143000,0.05467652156949043,0.032749637961387634,0.05225659906864166,9.188349723815918,0.37270352244377136,-3.785534143447876
1403715274667143000,0.03816302493214607,0.04564663767814636,0.0753895565867424,9.064851760864258,0.6300209760665894,-3.7981433868408203
1403715274672143000,-0.0015119733288884163,0.03314821422100067,0.08230261504650116,8.577383041381836,1.0834513902664185,-3.8479819297790527
1403715274677143000,-0.04282800480723381,0.025891512632369995,0.09150388091802597,9.2272367477417,0.870281457901001,-3.8651533126831055
1403715274682143000,-0.0747801661491394,0.02300935983657837,0.09757222980260849,8.82503604888916,0.32897472381591797,-3.5789201259613037
1403715274687143000,-0.07454761862754822,0.012620478868484497,0.09892285615205765,8.847947120666504,-0.2435072958469391,-3.604809522628784
1403715274692143000,-0.04270915314555168,0.01770615577697754,0.0939442589879036,9.11777400970459,-0.7094798684120178,-3.4762825965881348
1403715274697143000,0.0032668588683009148,0.021507471799850464,0.0835537239909172,9.266241073608398,-0.9124715328216553,-3.6064884662628174
1403715274702143000,0.045792508870363235,0.03304170072078705,0.08186972886323929,9.018010139465332,-0.47461026906967163,-3.55692195892334
1403715274707143000,0.0624004490673542,0.03862769901752472,0.07001589238643646,9.524169921875,0.09222279489040375,-3.7673375606536865
1403715274712143000,0.04777805879712105,0.051708921790122986,0.06779631227254868,8.763718605041504,0.5610495209693909,-3.621007204055786
1403715274717143000,0.015137660317122936,0.03227268159389496,0.05863078311085701,9.018514633178711,0.8478919267654419,-3.6789588928222656
1403715274722143000,-0.015174460597336292,0.03347510099411011,0.07439499348402023,9.042670249938965,0.6333277225494385,-3.6283652782440186
1403715274727143000,-0.04181171581149101,0.022532284259796143,0.07100515067577362,8.49081802368164,0.45193782448768616,-3.5576748847961426
1403715274732143000,-0.04759029671549797,0.004734471440315247,0.07923327386379242,9.058886528015137,0.21805863082408905,-3.5383236408233643
1403715274737143000,-0.04856462404131889,-0.0010082870721817017,0.08287034183740616,8.92041015625,-0.10738486796617508,-3.678588628768921
1403715274742143000,-0.027743499726057053,0.005309164524078369,0.07116811722517014,9.256673812866211,-0.19864162802696228,-3.6602978706359863
1403715274747143000,-0.0028460444882512093,0.01980718970298767,0.08302737772464752,9.220590591430664,-0.20383450388908386,-3.685912609100342
1403715274752143000,0.0033587394282221794,0.030989646911621094,0.061727769672870636,8.99454116821289,-0.12446528673171997,-3.5404067039489746
1403715274757143000,0.023807335644960403,0.017435848712921143,0.0891372486948967,8.961511611938477,0.061334822326898575,-3.555009365081787
1403715274762143000,0.021769452840089798,0.022820845246315002,0.06771672517061234,9.187176704406738,-0.13433992862701416,-3.597977876663208
1403715274767143000,0.029401380568742752,0.014948472380638123,0.09228859841823578,8.84765625,0.3397693634033203,-3.531961441040039
1403715274772143000,0.00921164732426405,0.008179187774658203,0.06771552562713623,9.091117858886719,0.29907655715942383,-3.7279164791107178
1403715274777143000,-0.0021102549508213997,0.012084633111953735,0.08399137109518051,9.292439460754395,0.5791784524917603,-3.905545473098755
1403715274782143000,-0.019822996109724045,0.02687850594520569,0.07804324477910995,9.274558067321777,0.3551207482814789,-3.864187717437744
1403715274787143000,-0.02967168018221855,0.03870001435279846,0.08080001920461655,9.098673820495605,0.5216794610023499,-3.8004798889160156
1403715274792143000,-0.045054178684949875,0.03586575388908386,0.08559902012348175,8.627904891967773,-0.015356185846030712,-3.594594717025757
1403715274797143000,-0.03227464482188225,0.022172406315803528,0.07859791070222855,9.077300071716309,-0.25685063004493713,-3.596930742263794
1403715274802143000,-0.006042313762009144,0.026036888360977173,0.0913567915558815,9.105823516845703,-0.5093517303466797,-3.6364171504974365
1403715274807143000,0.010024654679000378,0.01660361886024475,0.06927469372749329,8.727516174316406,-0.12161825597286224,-3.539294481277466
1403715274812143000,0.017949659377336502,0.009027913212776184,0.07000523805618286,9.15723991394043,0.0015831626951694489,-3.7362091541290283
1403715274817143000,0.025962520390748978,0.021850615739822388,0.07029840350151062,9.317955017089844,0.28039854764938354,-3.8014895915985107
1403715274822143000,0.02099822834134102,0.04094478487968445,0.07173832505941391,9.402908325195312,0.5620244741439819,-3.914868116378784
1403715274827143000,-0.007581454701721668,0.04383504390716553,0.0688234195113182,8.7007417678833,0.6681950688362122,-3.6036698818206787
1403715274832143000,-0.031435947865247726,0.032345473766326904,0.06544612348079681,8.862960815429688,0.2600724399089813,-3.588364601135254
1403715274837143000,-0.02443767711520195,0.02614806592464447,0.09161132574081421,8.977700233459473,-0.1467972844839096,-3.6420364379882812
1403715274842143000,-0.015168351121246815,0.015249356627464294,0.0893499031662941,8.895411491394043,-0.11272377520799637,-3.587223768234253
1403715274847143000,-0.019204508513212204,0.0005430281162261963,0.09544666856527328,8.961373329162598,0.26072022318840027,-3.7020797729492188
1403715274852143000,-0.01868407055735588,0.014298200607299805,0.08369679003953934,9.118325233459473,-0.07030633091926575,-3.718369960784912
1403715274857143000,-0.004327607341110706,0.026684582233428955,0.07810955494642258,9.473328590393066,-0.19249488413333893,-3.719299793243408
1403715274862143000,0.009098934940993786,0.030718684196472168,0.06629496812820435,8.996062278747559,-0.24540817737579346,-3.5228946208953857
1403715274867143000,0.011419343762099743,0.034022971987724304,0.05684266611933708,9.043622016906738,0.14186441898345947,-3.612565517425537
1403715274872143000,0.01563708856701851,0.019600331783294678,0.08022230863571167,8.779292106628418,0.04476376622915268,-3.554739475250244
1403715274877143000,0.015914518386125565,0.02698369324207306,0.08685721457004547,9.017037391662598,0.042573586106300354,-3.5953338146209717
1403715274882143000,0.011119353584945202,0.014789029955863953,0.10547774285078049,8.950662612915039,0.3429417312145233,-3.6290197372436523
1403715274887143000,-0.018220555037260056,0.012171328067779541,0.08360400795936584,9.10173225402832,0.6244171857833862,-3.6631016731262207
1403715274892143000,-0.03547145053744316,0.016936853528022766,0.08074623346328735,9.173421859741211,0.34975382685661316,-3.726186513900757
1403715274897143000,-0.04349477216601372,0.018608972430229187,0.0691017284989357,9.075348854064941,-0.15980692207813263,-3.621325731277466
1403715274902143000,-0.01698673889040947,0.017410919070243835,0.06799136847257614,9.191183090209961,-0.15464471280574799,-3.6126677989959717
1403715274907143000,-0.0009223045781254768,0.01908770203590393,0.07267152518033981,8.864526748657227,-0.17720364034175873,-3.5786826610565186
1403715274912143000,0.012631225399672985,0.017374172806739807,0.07849063724279404,9.008142471313477,-0.05838608369231224,-3.6278042793273926
1403715274917143000,0.022897202521562576,0.018058136105537415,0.09919819980859756,9.163837432861328,-0.02792481519281864,-3.7344729900360107
1403715274922143000,0.01836578920483589,0.019080087542533875,0.08084845542907715,9.08461856842041,0.3379676342010498,-3.6636579036712646
1403715274927143000,0.004569011740386486,0.02106975018978119,0.0823196992278099,9.197698593139648,0.6613438725471497,-3.7527668476104736
1403715274932143000,-0.02263973280787468,0.024064823985099792,0.06644338369369507,8.839630126953125,0.45236802101135254,-3.6620469093322754
1403715274937143000,-0.022234927862882614,0.018821746110916138,0.07046689838171005,9.04275131225586,0.005338797811418772,-3.717552661895752
1403715274942143000,-0.015790920704603195,0.01086542010307312,0.07027547061443329,9.068018913269043,-0.07470538467168808,-3.669149160385132
1403715274947143000,-0.006390941329300404,0.02177242934703827,0.08063451200723648,8.985565185546875,0.17142409086227417,-3.6776037216186523
1403715274952143000,-0.008343410678207874,0.01621183753013611,0.09161797910928726,8.975686073303223,0.14631281793117523,-3.6764581203460693
1403715274957143000,-0.004014116711914539,0.024438604712486267,0.08767258375883102,9.230329513549805,-0.08745859563350677,-3.7758169174194336
1403715274962143000,-0.0001240195706486702,0.028059720993041992,0.08727456629276276,9.174348831176758,0.010584245435893536,-3.7033629417419434
1403715274967143000,-0.006145578809082508,0.022727563977241516,0.06941843777894974,8.93770980834961,0.13058115541934967,-3.548736333847046
1403715274972143000,-0.00769237894564867,0.012288287281990051,0.07114657014608383,8.904711723327637,0.15897724032402039,-3.5878512859344482
1403715274977143000,-0.0019100131466984749,0.008195623755455017,0.06616765260696411,9.075767517089844,-0.13421142101287842,-3.750570774078369
1403715274982143000,0.010698783211410046,0.02046014368534088,0.07867888361215591,9.245630264282227,0.019773123785853386,-3.7421786785125732
1403715274987143000,0.008989798836410046,0.024729371070861816,0.08195213228464127,9.107135772705078,0.185463547706604,-3.7100374698638916
1403715274992143000,-5.183834582567215e-05,0.02332378923892975,0.09097561985254288,8.943699836730957,0.4445459842681885,-3.832266330718994
1403715274997143000,-0.017987947911024094,0.02857808768749237,0.08706048130989075,9.286307334899902,0.2744804918766022,-3.824040651321411
1403715275002143000,-0.02169163152575493,0.0420001745223999,0.08165556192398071,8.93040657043457,0.06064964458346367,-3.5311551094055176
1403715275007143000,-0.019903462380170822,0.021402508020401,0.07546654343605042,8.8323335647583,-0.11254649609327316,-3.570693254470825
1403715275012143000,-0.011290383525192738,0.007940918207168579,0.07947169989347458,8.781641960144043,-0.07441098242998123,-3.6031908988952637
1403715275017143000,0.002301502041518688,0.010608568787574768,0.08088448643684387,9.132405281066895,-0.16441479325294495,-3.6771411895751953
1403715275022143000,0.015392857603728771,0.024099960923194885,0.08077282458543777,9.172151565551758,-0.051555320620536804,-3.7179219722747803
1403715275027143000,0.01642783358693123,0.02440635859966278,0.06907355785369873,9.197568893432617,0.1758386194705963,-3.7352592945098877
1403715275032143000,0.009879696182906628,0.03931896388530731,0.0730075016617775,9.157533645629883,0.4918917119503021,-3.743054151535034
1403715275037143000,-0.01082379836589098,0.03488917648792267,0.07190834730863571,8.919986724853516,0.41098886728286743,-3.6777760982513428
1403715275042143000,-0.022239308804273605,0.033809199929237366,0.06704054027795792,8.978469848632812,0.23392318189144135,-3.6289350986480713
1403715275047143000,-0.024554472416639328,0.022651374340057373,0.08270099014043808,8.807480812072754,0.12187797576189041,-3.5302984714508057
1403715275052143000,-0.014479679055511951,0.011157199740409851,0.08545392751693726,8.952000617980957,-0.00928653683513403,-3.5388331413269043
1403715275057143000,-0.009207737632095814,0.009905382990837097,0.08491390198469162,9.131803512573242,-0.06616254895925522,-3.6451480388641357
1403715275062143000,5.8132223784923553e-05,0.018838539719581604,0.07190840691328049,9.15867805480957,-0.02345975860953331,-3.638139009475708
1403715275067143000,0.005937415175139904,0.02090330421924591,0.06854131817817688,9.33655834197998,0.07388622313737869,-3.7762491703033447
1403715275072143000,0.005910414271056652,0.03236553072929382,0.07949182391166687,9.010430335998535,0.33928394317626953,-3.637418031692505
1403715275077143000,-0.003973645158112049,0.030051186680793762,0.07589205354452133,9.050074577331543,0.3623630404472351,-3.686246633529663
1403715275082143000,-0.01378245372325182,0.024650439620018005,0.08063700050115585,8.879470825195312,0.21840734779834747,-3.5310757160186768
1403715275087143000,-0.010215473361313343,0.02374941110610962,0.08133331686258316,9.010709762573242,-0.026110520586371422,-3.5800578594207764
1403715275092143000,7.717590779066086e-05,0.015324845910072327,0.10060376673936844,8.93488597869873,0.06225774064660072,-3.603691816329956
1403715275097143000,-0.007239800877869129,0.013553932309150696,0.08398085832595825,8.904132843017578,0.20958179235458374,-3.6294047832489014
1403715275102143000,-0.005563301034271717,0.009777292609214783,0.08530399203300476,9.24759292602539,0.16268205642700195,-3.728245973587036
1403715275107143000,-0.009881270118057728,0.013846084475517273,0.06631403416395187,9.109236717224121,-0.01476212963461876,-3.7349112033843994
1403715275112143000,-0.0033689262345433235,0.023406729102134705,0.07226955890655518,9.148370742797852,0.30088645219802856,-3.79872465133667
1403715275117143000,-0.008439105935394764,0.02327786386013031,0.07106553763151169,8.871639251708984,0.13011151552200317,-3.5559394359588623
1403715275122143000,-0.013677936978638172,0.020892098546028137,0.06627235561609268,9.189216613769531,0.13613823056221008,-3.8087048530578613
1403715275127143000,-0.008841616101562977,0.024287283420562744,0.07933976501226425,9.001545906066895,-0.14810514450073242,-3.5788187980651855
1403715275132143000,0.0003612516447901726,0.021145164966583252,0.08465632796287537,9.042953491210938,0.08719523251056671,-3.6948373317718506
1403715275137143000,0.0034156618639826775,0.014284670352935791,0.08721467107534409,8.961435317993164,0.11903737485408783,-3.6050472259521484
1403715275142143000,-0.002352786250412464,0.011705398559570312,0.08097997307777405,9.116966247558594,0.33870741724967957,-3.7440428733825684
1403715275147143000,-0.0062334658578038216,0.0207529217004776,0.0703737661242485,9.230400085449219,0.18687011301517487,-3.790827512741089
1403715275152143000,-0.008205962367355824,0.018611714243888855,0.0695090964436531,8.977269172668457,0.18662536144256592,-3.7342724800109863
1403715275157143000,-0.009017151780426502,0.026804178953170776,0.07109832018613815,8.968725204467773,0.1444915235042572,-3.611853837966919
1403715275162143000,-0.01665116474032402,0.01672545075416565,0.07863086462020874,9.041741371154785,0.2023593783378601,-3.7182958126068115
1403715275167143000,-0.009045911021530628,0.02711421251296997,0.08431874215602875,9.156593322753906,-0.05018321052193642,-3.741755485534668
1403715275172143000,-5.502719432115555e-05,0.02951158583164215,0.0930275022983551,9.002401351928711,-0.07426057010889053,-3.652907371520996
1403715275177143000,0.00592802744358778,0.026161745190620422,0.0871061384677887,8.9700345993042,-0.01697567291557789,-3.5723750591278076
1403715275182143000,0.004400032572448254,0.02194206416606903,0.0783122107386589,9.132325172424316,0.21727852523326874,-3.653597354888916
1403715275187143000,0.0042438386008143425,0.01861715316772461,0.07599819451570511,9.05064868927002,0.23380839824676514,-3.7261595726013184
1403715275192143000,-0.0066658081486821175,0.022861599922180176,0.06360045820474625,9.034843444824219,0.16814188659191132,-3.5961813926696777
1403715275197143000,-0.006671410985291004,0.01791916787624359,0.06958692520856857,9.082679748535156,0.19377915561199188,-3.7828609943389893
1403715275202143000,-0.012687248177826405,0.0252254456281662,0.06808464974164963,9.03451919555664,0.20869217813014984,-3.5799782276153564
1403715275207143000,-0.014295649714767933,0.02724526822566986,0.08479192852973938,9.181224822998047,0.11853210628032684,-3.775176763534546
1403715275212143000,-0.013694626279175282,0.031700968742370605,0.08285076171159744,8.791784286499023,0.03381900489330292,-3.4491801261901855
1403715275217143000,-0.008249384351074696,0.019099891185760498,0.08359705656766891,9.091568946838379,-0.056683652102947235,-3.613837957382202
1403715275222143000,0.003066140227019787,0.023137062788009644,0.08859247714281082,8.985159873962402,0.04716948792338371,-3.571288824081421
1403715275227143000,0.00222207885235548,0.010972529649734497,0.07407093793153763,8.953922271728516,0.16208742558956146,-3.628776788711548
1403715275232143000,-0.002061915583908558,0.017273396253585815,0.0710660070180893,9.017909049987793,0.14616678655147552,-3.6861379146575928
1403715275237143000,-0.005177569575607777,0.015095531940460205,0.06425023823976517,9.018570899963379,0.06230856105685234,-3.6610188484191895
1403715275242143000,0.0004645762965083122,0.02112804353237152,0.07859053462743759,9.26938247680664,0.15941505134105682,-3.807098388671875
1403715275247143000,-0.004798692651093006,0.02456657588481903,0.08414551615715027,8.831069946289062,0.28193363547325134,-3.5400893688201904
1403715275252143000,-0.009875220246613026,0.019129186868667603,0.08838989585638046,9.149048805236816,0.1768374741077423,-3.758992910385132
1403715275257143000,-0.013376486487686634,0.02523857355117798,0.0870375707745552,8.887701988220215,0.01580778695642948,-3.6121697425842285
1403715275262143000,-0.005030912347137928,0.025876924395561218,0.0877215713262558,9.197210311889648,0.07315022498369217,-3.6697747707366943
1403715275267143000,-0.0019943537190556526,0.023353129625320435,0.08023359626531601,8.888208389282227,0.14559318125247955,-3.61283016204834
1403715275272143000,-0.00877354759722948,0.010941892862319946,0.0720812976360321,8.929648399353027,0.19454289972782135,-3.6537399291992188
1403715275277143000,-0.0032445313408970833,0.012874037027359009,0.06566893309354782,9.139592170715332,-0.08104226738214493,-3.7425732612609863
1403715275282143000,0.0030569015070796013,0.017865046858787537,0.07568398118019104,9.165183067321777,0.07119807600975037,-3.7263495922088623
1403715275287143000,-0.0022592665627598763,0.031059861183166504,0.07175537943840027,9.181891441345215,0.21606938540935516,-3.7190043926239014
1403715275292143000,-0.009576988406479359,0.025410205125808716,0.08822248876094818,8.944725036621094,0.33831021189689636,-3.646192789077759
1403715275297143000,-0.009428721852600574,0.03271929919719696,0.0774296298623085,9.034582138061523,0.07202286273241043,-3.660399913787842
1403715275302143000,-0.009045553393661976,0.018952086567878723,0.09038197249174118,9.041618347167969,-0.008248838596045971,-3.6849913597106934
1403715275307143000,-0.006532472558319569,0.027508333325386047,0.07877439260482788,8.994632720947266,0.13587479293346405,-3.629714012145996
1403715275312143000,-0.005554866977035999,0.011557042598724365,0.07818085700273514,8.839495658874512,0.2109074741601944,-3.59655499458313
1403715275317143000,-0.009973389096558094,0.00878588855266571,0.0740155428647995,9.058730125427246,-0.056573543697595596,-3.7261481285095215
1403715275322143000,-0.0012437822297215462,0.017139047384262085,0.07173076272010803,9.043563842773438,-0.05809636041522026,-3.701113700866699
1403715275327143000,0.003906357102096081,0.023524552583694458,0.07516627758741379,9.287240982055664,0.1928384155035019,-3.7838754653930664
1403715275332143000,-0.0022391201928257942,0.03027784824371338,0.07862073928117752,8.985457420349121,0.4200212061405182,-3.588616371154785
1403715275337143000,-0.013085943646728992,0.02650541067123413,0.081458680331707,9.14024543762207,0.10409281402826309,-3.677609443664551
1403715275342143000,-0.010336262173950672,0.03143562376499176,0.07591020315885544,8.920716285705566,-0.017615875229239464,-3.6038851737976074
1403715275347143000,-0.0017736079171299934,0.026122763752937317,0.08146017044782639,9.100311279296875,0.12873969972133636,-3.6292378902435303
1403715275352143000,-0.0018324078992009163,0.02262948453426361,0.08148597925901413,8.854930877685547,0.23368515074253082,-3.588649272918701
1403715275357143000,-0.007741463370621204,0.012238383293151855,0.06859432905912399,8.904729843139648,0.14528825879096985,-3.6039018630981445
1403715275362143000,-0.009391230531036854,0.005334153771400452,0.06886943429708481,9.0673828125,-0.04856810346245766,-3.7020952701568604
1403715275367143000,-0.0017292024567723274,0.016669631004333496,0.07525356113910675,9.133193969726562,0.05589982867240906,-3.7098565101623535
1403715275372143000,0.002473163418471813,0.022732391953468323,0.08212289214134216,9.221070289611816,0.33903950452804565,-3.7830090522766113
1403715275377143000,-0.009202164597809315,0.030822843313217163,0.08274497836828232,8.98507022857666,0.2984158992767334,-3.661872148513794
1403715275382143000,-0.01738567277789116,0.027813538908958435,0.08142661303281784,9.091753005981445,0.07984576374292374,-3.70178484916687
1403715275387143000,-0.009432685561478138,0.02586120367050171,0.08558657020330429,9.017827987670898,0.03159348666667938,-3.636627435684204
1403715275392143000,-0.0018163146451115608,0.029533952474594116,0.08357453346252441,8.945295333862305,0.09654007107019424,-3.6199731826782227
1403715275397143000,-0.005956781096756458,0.022654220461845398,0.07480230182409286,9.050621032714844,0.16890913248062134,-3.6298274993896484
1403715275402143000,-0.008405697531998158,0.01438787579536438,0.06924629211425781,8.95435905456543,-0.00873804371803999,-3.588660717010498
1403715275407143000,-0.0019089104607701302,0.016592293977737427,0.06814717501401901,9.10866641998291,-0.016505161300301552,-3.750684976577759
1403715275412143000,0.005430745892226696,0.01937687397003174,0.0805886760354042,9.155891418457031,0.25841090083122253,-3.8075077533721924
1403715275417143000,-0.005106729455292225,0.0316830575466156,0.07331301271915436,9.140726089477539,0.3626168370246887,-3.6941869258880615
1403715275422143000,-0.019144516438245773,0.02800057828426361,0.07989358901977539,9.107539176940918,0.22568292915821075,-3.7028326988220215
1403715275427143000,-0.020679455250501633,0.03203316032886505,0.07443010061979294,8.969966888427734,-0.01665498875081539,-3.612246036529541
1403715275432143000,-0.010226977057754993,0.028732508420944214,0.07661326974630356,9.002312660217285,0.03214168921113014,-3.660991668701172
1403715275437143000,-0.005265784449875355,0.022022143006324768,0.07954631000757217,8.896169662475586,0.08679802715778351,-3.4745571613311768
1403715275442143000,-0.006853592582046986,0.016368314623832703,0.06994811445474625,8.986380577087402,0.03162327781319618,-3.653970718383789
1403715275447143000,-0.0015212418511509895,0.013005033135414124,0.07240063697099686,8.9700345993042,-0.015148237347602844,-3.645040273666382
1403715275452143000,0.007939535193145275,0.013197466731071472,0.07918094843626022,9.108012199401855,0.11997372657060623,-3.742499589920044
1403715275457143000,-0.0007001878693699837,0.02134440839290619,0.07942409813404083,9.335183143615723,0.24060849845409393,-3.774853229522705
1403715275462143000,-0.008106363005936146,0.03225679695606232,0.07809696346521378,8.977598190307617,0.34726953506469727,-3.6293277740478516
1403715275467143000,-0.01703135296702385,0.025132104754447937,0.07857098430395126,9.05030632019043,0.15212224423885345,-3.694011688232422
1403715275472143000,-0.015245956368744373,0.027179479598999023,0.08760426193475723,8.920439720153809,0.0721907988190651,-3.6280083656311035
1403715275477143000,-0.0113418223336339,0.028088048100471497,0.08307162672281265,9.002401351928711,0.014895383268594742,-3.62038516998291
1403715275482143000,-0.00610701460391283,0.01493823528289795,0.08428080379962921,9.075113296508789,-0.025585975497961044,-3.572495937347412
1403715275487143000,-0.002747458405792713,0.013642743229866028,0.07756979763507843,8.889811515808105,-0.04798193275928497,-3.612107753753662
1403715275492143000,0.005688744597136974,0.005427703261375427,0.07527746260166168,9.12415885925293,0.015473667532205582,-3.686103105545044
1403715275497143000,0.009356665425002575,0.020031899213790894,0.08065176010131836,9.196535110473633,0.28186264634132385,-3.74259877204895
1403715275502143000,-0.0028298916295170784,0.02207237482070923,0.06996805220842361,9.165498733520508,0.2900243401527405,-3.685739040374756
1403715275507143000,-0.01223174948245287,0.03010210394859314,0.07644335180521011,9.090545654296875,0.3785693049430847,-3.792269468307495
1403715275512143000,-0.01655740663409233,0.03200492262840271,0.07288867235183716,8.880446434020996,0.17767277359962463,-3.6117141246795654
1403715275517143000,-0.01198358554393053,0.030784666538238525,0.07870295643806458,8.977298736572266,0.0885048359632492,-3.710381507873535
1403715275522143000,-0.00975180882960558,0.02257436513900757,0.08161460608243942,8.814706802368164,0.03109143301844597,-3.5468082427978516
1403715275527143000,-0.005313110537827015,0.020520523190498352,0.07605770975351334,9.035194396972656,-0.040409330278635025,-3.661902904510498
1403715275532143000,-0.0007736207917332649,0.01233583688735962,0.07947592437267303,8.856008529663086,-0.039706625044345856,-3.5958545207977295
1403715275537143000,0.008043277077376842,0.008305802941322327,0.07324819266796112,9.091848373413086,0.0731227695941925,-3.751156806945801
1403715275542143000,0.009359496645629406,0.022147327661514282,0.08482705056667328,9.196866035461426,0.31405526399612427,-3.734126091003418
1403715275547143000,-0.002251190133392811,0.024741753935813904,0.07608547061681747,9.050908088684082,0.3468223810195923,-3.7019245624542236
1403715275552143000,-0.016376715153455734,0.029954954981803894,0.07711080461740494,9.106541633605957,0.35539501905441284,-3.7192418575286865
1403715275557143000,-0.0192628912627697,0.029359355568885803,0.08468909561634064,8.937106132507324,0.16827915608882904,-3.6206462383270264
1403715275562143000,-0.016849469393491745,0.025864139199256897,0.07821692526340485,8.986446380615234,-0.0008091233903542161,-3.701369047164917
1403715275567143000,-0.007756304927170277,0.01974119246006012,0.08224251121282578,8.871768951416016,-0.016557732596993446,-3.5802764892578125
1403715275572143000,-0.0019315900281071663,0.014394327998161316,0.07955212891101837,9.019671440124512,-0.032120879739522934,-3.653134822845459
1403715275577143000,0.006184983067214489,0.011690959334373474,0.07954899966716766,8.993637084960938,0.008858738467097282,-3.661252975463867
1403715275582143000,0.006711113266646862,0.011056631803512573,0.07593204081058502,9.018423080444336,0.1058235764503479,-3.750075340270996
1403715275587143000,0.005981731228530407,0.01929895579814911,0.07935859262943268,9.270393371582031,0.28193363547325134,-3.7750163078308105
1403715275592143000,-0.005767536349594593,0.024601906538009644,0.07392514497041702,9.099105834960938,0.31412097811698914,-3.6946496963500977
1403715275597143000,-0.01909957453608513,0.028627410531044006,0.07578816264867783,9.08345890045166,0.2901248335838318,-3.7182860374450684
1403715275602143000,-0.01650826260447502,0.03066350519657135,0.07778988778591156,9.083621978759766,0.09416355192661285,-3.6696600914001465
1403715275607143000,-0.014202308841049671,0.013446643948554993,0.07613534480333328,8.880670547485352,0.014985338784754276,-3.6117758750915527
1403715275612143000,-0.007668984122574329,0.01631966233253479,0.08078742772340775,9.01031494140625,-0.024417724460363388,-3.588620662689209
1403715275617143000,-0.0034359516575932503,0.01294940710067749,0.07936234027147293,8.962279319763184,-0.08926033228635788,-3.612565279006958
1403715275622143000,0.0036204634234309196,0.0110921710729599,0.07554997503757477,9.019170761108398,-0.07289517670869827,-3.652925968170166
1403715275627143000,0.012091862969100475,0.011716321110725403,0.0758766233921051,9.205041885375977,0.08855828642845154,-3.742417097091675
1403715275632143000,0.002100515179336071,0.025331318378448486,0.08069068938493729,9.09985637664795,0.3779521882534027,-3.7021102905273438
1403715275637143000,-0.008302313275635242,0.02736397087574005,0.07882605493068695,9.033712387084961,0.3138902485370636,-3.6696293354034424
1403715275642143000,-0.014625770039856434,0.028714746236801147,0.07576484233140945,9.042600631713867,0.26576942205429077,-3.693864107131958
1403715275647143000,-0.015919338911771774,0.03476034104824066,0.07923480123281479,8.994401931762695,0.07838544994592667,-3.701519012451172
1403715275652143000,-0.013005268760025501,0.024608030915260315,0.08023771643638611,8.839247703552246,0.015280906111001968,-3.490856170654297
1403715275657143000,-0.005387050099670887,0.023440420627593994,0.08359944075345993,8.929211616516113,0.008189038373529911,-3.5557050704956055
1403715275662143000,0.001803952269256115,0.014457076787948608,0.07822515070438385,8.994872093200684,-0.1457969695329666,-3.6045782566070557
1403715275667143000,0.010223167948424816,0.006138622760772705,0.07198024541139603,9.140393257141113,-0.0004852257843594998,-3.661529064178467
1403715275672143000,0.007852989248931408,0.018641501665115356,0.0729733482003212,9.132061958312988,0.2508391737937927,-3.7594714164733887
1403715275677143000,0.0019365129992365837,0.024807974696159363,0.07795557379722595,9.091776847839355,0.3708159327507019,-3.669666051864624
1403715275682143000,-0.008489144034683704,0.025992631912231445,0.07678384333848953,9.139542579650879,0.3136075437068939,-3.727084159851074
1403715275687143000,-0.018624912947416306,0.02710576355457306,0.07436099648475647,9.16501235961914,0.2168532758951187,-3.6859612464904785
1403715275692143000,-0.01620699092745781,0.03343464434146881,0.07984615117311478,8.896985054016113,0.038405850529670715,-3.62817645072937
1403715275697143000,-0.013891768641769886,0.02409188449382782,0.07742946594953537,8.87161636352539,0.015476296655833721,-3.548142671585083
1403715275702143000,-0.0048698605969548225,0.017167776823043823,0.07749596983194351,9.04371452331543,-0.09735777229070663,-3.604505777359009
1403715275707143000,0.007044988684356213,0.014970704913139343,0.07751394063234329,8.994866371154785,-0.06448698043823242,-3.6534438133239746
1403715275712143000,0.010724830441176891,0.011762291193008423,0.0739765465259552,9.123613357543945,0.07301966845989227,-3.7591772079467773
1403715275717143000,0.01004039030522108,0.02152062952518463,0.08333542943000793,8.97755241394043,0.3080974817276001,-3.7177376747131348
1403715275722143000,-0.0028749825432896614,0.024642258882522583,0.07731626182794571,9.082406997680664,0.3303564786911011,-3.7190346717834473
1403715275727143000,-0.014262688346207142,0.023056402802467346,0.08011358976364136,9.253296852111816,0.33752572536468506,-3.7838077545166016
1403715275732143000,-0.020289968699216843,0.03140643239021301,0.07992512732744217,9.10929012298584,0.2739594280719757,-3.637045383453369
1403715275737143000,-0.02074451372027397,0.028033927083015442,0.07795530557632446,8.863565444946289,0.038619641214609146,-3.620535373687744
1403715275742143000,-0.014595520682632923,0.016354620456695557,0.08027300983667374,8.872211456298828,-0.04076652228832245,-3.5801475048065186
1403715275747143000,-0.003927868790924549,0.01345011591911316,0.07884659618139267,9.109282493591309,-0.18559402227401733,-3.661393165588379
1403715275752143000,0.004047173075377941,0.013709858059883118,0.07944705337285995,9.00224494934082,0.031985145062208176,-3.7101550102233887
1403715275757143000,0.008109289221465588,0.021660342812538147,0.06978268921375275,9.058967590332031,0.1625281423330307,-3.750856637954712
1403715275762143000,0.00788088422268629,0.02210281789302826,0.07508901506662369,9.026216506958008,0.32349562644958496,-3.669037103652954
1403715275767143000,-0.0058387042954564095,0.020966097712516785,0.07803492993116379,9.123418807983398,0.3293178975582123,-3.7107837200164795
1403715275772143000,-0.014068287797272205,0.02861364185810089,0.0807824656367302,9.246097564697266,0.32282736897468567,-3.7102625370025635
1403715275777143000,-0.020710688084363937,0.02810986340045929,0.0805855244398117,8.872352600097656,0.17604656517505646,-3.57940673828125
1403715275782143000,-0.01841599866747856,0.02172805368900299,0.08559662103652954,8.96850299835205,0.030185161158442497,-3.7182962894439697
1403715275787143000,-0.018060605973005295,0.014149576425552368,0.07671266049146652,8.954419136047363,-0.048035088926553726,-3.515242338180542
1403715275792143000,-0.005505901761353016,0.015713706612586975,0.07875683903694153,9.166226387023926,-0.08098677545785904,-3.6783721446990967
1403715275797143000,0.00366170983761549,0.013870254158973694,0.07487807422876358,9.025999069213867,-0.08050663024187088,-3.717231512069702
1403715275802143000,0.008645671419799328,0.018765851855278015,0.07255115360021591,9.042865753173828,0.17040537297725677,-3.725879669189453
1403715275807143000,0.011349695734679699,0.02738967537879944,0.07781454175710678,9.074563026428223,0.29016920924186707,-3.6779069900512695
1403715275812143000,-0.00702137965708971,0.02375778555870056,0.08611460775136948,9.164273262023926,0.4909284710884094,-3.710420608520508
1403715275817143000,-0.01768461987376213,0.03711935877799988,0.08360537886619568,9.189597129821777,0.29813843965530396,-3.717879056930542
1403715275822143000,-0.023336660116910934,0.03007689118385315,0.07513362169265747,8.953184127807617,0.06247532740235329,-3.580263614654541
1403715275827143000,-0.01570902392268181,0.02933327853679657,0.07798490673303604,8.912339210510254,-0.009591742418706417,-3.6853535175323486
1403715275832143000,-0.008426499553024769,0.020631596446037292,0.07275914400815964,8.930258750915527,-0.03970750421285629,-3.531654119491577
1403715275837143000,0.002338993363082409,0.021444886922836304,0.07468710839748383,9.189740180969238,-0.11400038748979568,-3.8000032901763916
1403715275842143000,0.011111336760222912,0.02422928810119629,0.07392442971467972,9.148283958435059,-0.06461607664823532,-3.73317289352417
1403715275847143000,0.013344007544219494,0.03523871302604675,0.07458771765232086,9.165117263793945,0.08872388303279877,-3.7995948791503906
1403715275852143000,0.009156632237136364,0.035103484988212585,0.0852912962436676,8.95234203338623,0.4760218858718872,-3.6613619327545166
1403715275857143000,-0.010983598418533802,0.030844151973724365,0.0759284570813179,9.270272254943848,0.3864380717277527,-3.799698829650879
1403715275862143000,-0.01982123777270317,0.03773772716522217,0.08231458812952042,8.94478988647461,0.297108918428421,-3.5795841217041016
1403715275867143000,-0.024210046976804733,0.027309998869895935,0.07871166616678238,8.887907981872559,-0.12354528903961182,-3.5966885089874268
1403715275872143000,-0.017604928463697433,0.019115164875984192,0.07725578546524048,8.970392227172852,-0.09819920361042023,-3.58770489692688
1403715275877143000,0.0017926571890711784,0.0184929221868515,0.0802869126200676,9.044588088989258,-0.13823136687278748,-3.6133248805999756
1403715275882143000,0.009530472569167614,0.020639345049858093,0.0753820613026619,9.35982608795166,-0.09020807594060898,-3.7835476398468018
1403715275887143000,0.015835661441087723,0.03473478555679321,0.08144360780715942,9.042556762695312,0.21881389617919922,-3.6929285526275635
1403715275892143000,0.004900860600173473,0.030344411730766296,0.07664380222558975,9.001755714416504,0.39719358086586,-3.694997787475586
1403715275897143000,-0.011370164342224598,0.034182146191596985,0.07718467712402344,9.196574211120605,0.40308651328086853,-3.75874400138855
1403715275902143000,-0.02109421417117119,0.028007537126541138,0.0739162415266037,8.872416496276855,0.28240033984184265,-3.6200602054595947
1403715275907143000,-0.019662361592054367,0.02316349744796753,0.07663676142692566,9.098897933959961,-0.1404712051153183,-3.694241523742676
1403715275912143000,-0.011982959695160389,0.020322546362876892,0.07385251671075821,9.018950462341309,-0.2625733017921448,-3.6361398696899414
1403715275917143000,0.006296592764556408,0.026771381497383118,0.06990073621273041,9.401872634887695,-0.06703172624111176,-3.8652091026306152
1403715275922143000,0.014681833796203136,0.05258983373641968,0.07714235037565231,9.621490478515625,0.27271729707717896,-3.89811372756958
1403715275927143000,-0.0006215991452336311,0.08686734735965729,0.0704793632030487,9.19868278503418,0.422681599855423,-3.9858853816986084
1403715275932143000,-0.02114863321185112,0.0729692131280899,0.06352555751800537,8.586922645568848,0.24613986909389496,-3.545135021209717
1403715275937143000,-0.023518692702054977,0.051539137959480286,0.07435292750597,8.699618339538574,0.22687628865242004,-3.5227932929992676
1403715275942143000,-0.0180043987929821,0.03688356280326843,0.07679719477891922,8.708532333374023,-0.12239573150873184,-3.5779168605804443
1403715275947143000,-0.004298162646591663,0.024942547082901,0.09313124418258667,9.057645797729492,0.166517436504364,-3.7180399894714355
1403715275952143000,0.0009913919493556023,0.04295465350151062,0.08909209817647934,9.074541091918945,0.10247770696878433,-3.645768880844116
1403715275957143000,-0.0028452398255467415,0.03678677976131439,0.07676525413990021,8.930142402648926,0.015353046357631683,-3.51537823677063
1403715275962143000,-0.0006937803700566292,0.023601144552230835,0.0669839009642601,8.84848403930664,0.10673393309116364,-3.336958646774292
1403715275967143000,0.0028994856402277946,0.008148536086082458,0.07331649959087372,9.091302871704102,-0.11126521974802017,-3.5074667930603027
1403715275972143000,0.009916293434798717,0.014331236481666565,0.0832393541932106,9.196974754333496,0.20216047763824463,-3.620697498321533
1403715275977143000,0.0012437580153346062,0.03194846212863922,0.08556558191776276,9.449043273925781,0.41044503450393677,-3.7036030292510986
1403715275982143000,-0.016997408121824265,0.04927225410938263,0.0761268213391304,9.353068351745605,0.14223270118236542,-3.792860269546509
1403715275987143000,-0.019597511738538742,0.030141502618789673,0.07169084250926971,8.548578262329102,0.07186894118785858,-3.3667564392089844
1403715275992143000,-0.007113230414688587,0.018850177526474,0.07753988355398178,9.228142738342285,-0.16983723640441895,-3.54099440574646
1403715275997143000,0.006164836697280407,0.03312215209007263,0.09360292553901672,8.912436485290527,0.12739737331867218,-3.6519811153411865
1403715276002143000,0.003276991657912731,0.022222355008125305,0.1059725359082222,9.254398345947266,0.5893337726593018,-3.801342725753784
1403715276007143000,-0.027753781527280807,0.03880403935909271,0.08871158957481384,9.091428756713867,0.5428799986839294,-3.6626954078674316
1403715276012143000,-0.04351533576846123,-0.00458034873008728,0.07493620365858078,8.411176681518555,-0.15073662996292114,-3.529047727584839
1403715276017143000,-0.030675482004880905,-0.002379506826400757,0.0636759027838707,9.364070892333984,-0.3081844449043274,-3.685622215270996
1403715276022143000,0.0034456728026270866,0.014531999826431274,0.07314028590917587,9.318840026855469,-0.5035399794578552,-3.6460230350494385
1403715276027143000,0.030117172747850418,0.04431673884391785,0.056479811668395996,9.094194412231445,-0.16695691645145416,-3.6870338916778564
1403715276032143000,0.028851378709077835,0.022869199514389038,0.04729603976011276,8.636021614074707,0.18138167262077332,-3.4517829418182373
1403715276037143000,0.02023579552769661,0.011500954627990723,0.0634201169013977,8.735419273376465,0.6573735475540161,-3.6065242290496826
1403715276042143000,0.002673315815627575,0.0027990341186523438,0.07987874001264572,8.764551162719727,0.9134451150894165,-3.5724077224731445
1403715276047143000,-0.02997444197535515,0.025152355432510376,0.08573470264673233,9.373273849487305,0.5045555233955383,-3.849198818206787
1403715276052143000,-0.04632080718874931,0.017760053277015686,0.08179084211587906,8.417719841003418,0.012089244090020657,-3.246833324432373
1403715276057143000,-0.024271678179502487,-0.030562028288841248,0.09394557774066925,8.726109504699707,-0.2061748057603836,-3.278690814971924
1403715276062143000,-0.0034113945439457893,-0.013210564851760864,0.097488634288311,8.799432754516602,-0.14479051530361176,-3.449519157409668
1403715276067143000,0.008090692572295666,-0.03465893864631653,0.10681841522455215,9.330024719238281,0.13000637292861938,-3.761319398880005
1403715276072143000,0.0062303123995661736,0.007259681820869446,0.07508374750614166,9.32654094696045,0.01571900025010109,-3.753153085708618
1403715276077143000,0.0020073233172297478,-0.0012289732694625854,0.061946507543325424,8.8143310546875,0.19201305508613586,-3.5983529090881348
1403715276082143000,-0.004414630122482777,0.0034604519605636597,0.07530153542757034,9.385705947875977,0.29703035950660706,-3.7907564640045166
1403715276087143000,-0.004549277015030384,0.014092996716499329,0.08805518597364426,9.147260665893555,0.3204444348812103,-3.789646863937378
1403715276092143000,-0.009936315007507801,0.05527639389038086,0.06693746894598007,8.96119499206543,-0.12316969782114029,-3.7264533042907715
1403715276097143000,0.0020100055262446404,0.011386826634407043,0.07549670338630676,8.635801315307617,-0.0074316468089818954,-3.4981067180633545
1403715276102143000,-0.007870775647461414,0.0014834851026535034,0.05824682116508484,9.18826675415039,0.1520962417125702,-3.9710352420806885
1403715276107143000,-0.01553927082568407,0.0118044912815094,0.08001533150672913,8.726256370544434,0.6269969940185547,-3.732944965362549
1403715276112143000,-0.028188567608594894,0.024536654353141785,0.078392893075943,9.336599349975586,0.1863844096660614,-3.9621660709381104
1403715276117143000,-0.022606324404478073,0.0330476313829422,0.08124903589487076,8.497154235839844,-0.39776214957237244,-3.237337589263916
1403715276122143000,0.005237269215285778,-0.011734575033187866,0.08203007280826569,9.142487525939941,-0.29901745915412903,-3.97160005569458
1403715276127143000,0.016293246299028397,0.024246498942375183,0.07859059423208237,9.024763107299805,0.35067176818847656,-3.6277284622192383
1403715276132143000,0.009347992949187756,0.021861746907234192,0.09081929177045822,9.303857803344727,0.4982618987560272,-4.003438472747803
1403715276137143000,-0.008531701751053333,0.061643436551094055,0.0833805724978447,8.880430221557617,0.037402909249067307,-3.5202229022979736
1403715276142143000,-0.0034827711060643196,0.013036251068115234,0.08070005476474762,8.76528263092041,-0.07287707179784775,-3.4426987171173096
1403715276147143000,-0.0001646103337407112,0.020821034908294678,0.08544626832008362,9.498907089233398,0.1027732715010643,-3.807230234146118
1403715276152143000,-0.0017789723351597786,0.0258931964635849,0.09400766342878342,8.676630973815918,0.4516991972923279,-3.611560344696045
1403715276157143000,-0.0160188190639019,0.04754921793937683,0.07667780667543411,9.677183151245117,0.22483623027801514,-4.028722286224365
1403715276162143000,-0.020173024386167526,0.03800387680530548,0.07420962303876877,8.557251930236816,0.18484875559806824,-3.2537524700164795
1403715276167143000,-0.019894074648618698,-0.0030543506145477295,0.056447628885507584,9.2230806350708,0.032240115106105804,-3.7193048000335693
1403715276172143000,-0.011140567250549793,0.015934526920318604,0.06754633039236069,8.82233715057373,0.07479248940944672,-3.5134434700012207
1403715276177143000,-0.0009202184155583382,-0.0011220276355743408,0.0747898519039154,9.491881370544434,-0.026387980207800865,-3.977825164794922
1403715276182143000,3.855209797620773e-05,0.04437239468097687,0.06146129220724106,9.194393157958984,-0.009976389817893505,-3.7593014240264893
1403715276187143000,0.0013970909640192986,0.010736659169197083,0.054200559854507446,8.770090103149414,0.241295725107193,-3.444340944290161
1403715276192143000,-0.006115180440247059,0.008147478103637695,0.05937861651182175,8.986939430236816,0.2235628366470337,-3.6123876571655273
1403715276197143000,-0.0031651081517338753,-0.0034648627042770386,0.08097077906131744,8.967022895812988,0.2362958937883377,-3.6506776809692383
1403715276202143000,-0.0025059403851628304,0.025910645723342896,0.09082607179880142,9.60344409942627,0.21612633764743805,-3.9028618335723877
1403715276207143000,-0.002523106522858143,0.0361405611038208,0.09316576272249222,8.805949211120605,0.007786283735185862,-3.491190195083618
1403715276212143000,-0.010121745057404041,0.017509594559669495,0.09012281149625778,9.00311279296875,0.09638206660747528,-3.710106372833252
1403715276217143000,-0.016887467354536057,0.019976511597633362,0.07175194472074509,8.702041625976562,0.12047169357538223,-3.4326534271240234
1403715276222143000,-0.003498000092804432,-0.0003889352083206177,0.09684876352548599,9.066329002380371,0.09703540802001953,-3.628222942352295
1403715276227143000,0.0035183606669306755,0.033291444182395935,0.10657332837581635,9.6112060546875,0.034009724855422974,-3.7682924270629883
1403715276232143000,-0.000674826093018055,0.030280068516731262,0.09208489209413528,8.727234840393066,0.1452520489692688,-3.5492303371429443
1403715276237143000,0.0036244867369532585,0.01585201919078827,0.08155977725982666,9.02626895904541,0.15087921917438507,-3.6038763523101807
1403715276242143000,-0.00028653163462877274,0.02341163158416748,0.0669754147529602,8.74896240234375,0.04929336905479431,-3.6026575565338135
1403715276247143000,0.0004824278876185417,-0.0017936229705810547,0.06943756341934204,9.0437593460083,0.2504326105117798,-3.62286639213562
1403715276252143000,-0.0012080194428563118,0.03349773585796356,0.0803314596414566,9.610706329345703,0.4097452461719513,-3.899094581604004
1403715276257143000,-0.019580703228712082,0.03789742290973663,0.07472306489944458,8.677617073059082,0.3870718479156494,-3.6050174236297607
1403715276262143000,-0.026822548359632492,0.0055435895919799805,0.06109984964132309,8.59676742553711,0.19724594056606293,-3.5217270851135254
1403715276267143000,-0.020474206656217575,0.016829118132591248,0.06134524941444397,9.245583534240723,-0.17707689106464386,-3.646304130554199
1403715276272143000,-0.004160893149673939,0.0017037391662597656,0.06102411448955536,8.954941749572754,-0.09726927429437637,-3.6206421852111816
1403715276277143000,0.0009005842730402946,0.016879349946975708,0.06624209135770798,9.69189739227295,0.07001609355211258,-3.892594337463379
1403715276282143000,-0.0030958475545048714,0.057541608810424805,0.07555722445249557,8.922065734863281,0.27257126569747925,-3.530522346496582
1403715276287143000,-0.010887694545090199,0.011873215436935425,0.07434333860874176,8.557265281677246,0.11493389308452606,-3.4403767585754395
1403715276292143000,-0.011198771186172962,0.006965652108192444,0.08263877034187317,9.097358703613281,-0.017269780859351158,-3.6534969806671143
1403715276297143000,0.0025281785055994987,-0.006821766495704651,0.09178478270769119,9.02660083770752,-0.018108000978827477,-3.668704032897949
1403715276302143000,0.011274057440459728,0.019114285707473755,0.09516041725873947,9.66055679321289,0.15268474817276,-3.997385025024414
1403715276307143000,-7.12694600224495e-05,0.04980580508708954,0.08722339570522308,8.765329360961914,0.32084164023399353,-3.6184959411621094
1403715276312143000,-0.015127521939575672,0.01112876832485199,0.0921408012509346,8.971244812011719,0.35425829887390137,-3.6283023357391357
1403715276317143000,-0.02020595595240593,0.0214003324508667,0.08656052500009537,9.050477981567383,-0.04660310596227646,-3.594374179840088
1403715276322143000,-0.013776016421616077,-0.003343060612678528,0.09221629798412323,8.61872673034668,-0.005305137485265732,-3.581017017364502
1403715276327143000,-0.00016100425273180008,-0.007009074091911316,0.0974215641617775,9.635485649108887,-0.058532409369945526,-3.841243267059326
1403715276332143000,0.01147549133747816,0.05334720015525818,0.08732070028781891,9.63037395477295,0.021826617419719696,-3.960615873336792
1403715276337143000,0.005159991793334484,0.032721638679504395,0.06702499836683273,8.694217681884766,0.14460746943950653,-3.4587042331695557
1403715276342143000,-0.005981576628983021,0.016465529799461365,0.05010972544550896,9.150290489196777,0.23883071541786194,-3.603930711746216
1403715276347143000,-0.008707714267075062,0.01586475968360901,0.0693596675992012,8.675467491149902,0.17021289467811584,-3.7015140056610107
1403715276352143000,-0.0071739377453923225,-0.004184246063232422,0.06919357180595398,9.40682315826416,0.1133003830909729,-3.833552122116089
1403715276357143000,-0.0038750292733311653,0.033584073185920715,0.0739995464682579,9.410890579223633,0.30259355902671814,-3.8556878566741943
1403715276362143000,-0.012963545508682728,0.042405933141708374,0.07422418892383575,8.685980796813965,0.2505625784397125,-3.6849191188812256
1403715276367143000,-0.02132786437869072,0.02910253405570984,0.05637473613023758,9.100736618041992,-0.03293631970882416,-3.4412500858306885
1403715276372143000,-0.014309090562164783,0.014989152550697327,0.06556881964206696,8.709308624267578,-0.024190500378608704,-3.52211856842041
1403715276377143000,-0.008138221688568592,-0.0008414685726165771,0.06752625107765198,8.836915016174316,0.017434576526284218,-3.710646629333496
1403715276382143000,-0.0037245573475956917,0.014352723956108093,0.0919368639588356,9.50667953491211,0.006124446634203196,-3.831655740737915
1403715276387143000,0.0017608283087611198,0.03593531250953674,0.08930634707212448,9.183239936828613,0.1521569937467575,-3.7271761894226074
1403715276392143000,1.8018297851085663e-05,0.03263536095619202,0.08724987506866455,8.953859329223633,0.13630586862564087,-3.5218260288238525
1403715276397143000,0.0002904711291193962,0.029767930507659912,0.08925937861204147,8.911473274230957,0.1126733273267746,-3.450068712234497
1403715276402143000,-0.002703470177948475,0.0031172335147857666,0.07449900358915329,8.682952880859375,-0.032933689653873444,-3.55540132522583
1403715276407143000,0.002076941542327404,-0.0031312406063079834,0.07757904380559921,9.040844917297363,0.14287903904914856,-3.692939519882202
1403715276412143000,0.004867958836257458,0.022534549236297607,0.08922871202230453,9.440996170043945,0.23387937247753143,-3.87483286857605
1403715276417143000,-0.002550673671066761,0.031578049063682556,0.0888884887099266,9.080351829528809,0.18526114523410797,-3.8232221603393555
1403715276422143000,-0.01756034418940544,0.03479619324207306,0.07831547409296036,9.018877029418945,0.2831249535083771,-3.5634613037109375
1403715276427143000,-0.017745625227689743,0.030670270323753357,0.07318759709596634,8.989789009094238,0.16486874222755432,-3.564779281616211
1403715276432143000,-0.0104931415989995,0.010895028710365295,0.07559264451265335,8.637871742248535,-0.27556103467941284,-3.3653934001922607
1403715276437143000,-0.002934885211288929,0.0008533895015716553,0.05643611028790474,9.317971229553223,-0.23026970028877258,-3.809983491897583
1403715276442143000,0.016143400222063065,0.020947083830833435,0.0717032253742218,9.18358325958252,0.16061046719551086,-3.8173913955688477
1403715276447143000,0.01575462892651558,0.027675136923789978,0.0847785696387291,9.216609001159668,0.49915793538093567,-3.922145366668701
1403715276452143000,-0.007958662696182728,0.04247274994850159,0.07219576835632324,9.112380027770996,0.49111804366111755,-3.670168876647949
1403715276457143000,-0.02908901497721672,0.026832520961761475,0.07407649606466293,8.669929504394531,0.3262743055820465,-3.547376871109009
1403715276462143000,-0.023939769715070724,0.016778230667114258,0.07621335238218307,8.853845596313477,-0.2818722128868103,-3.4880428314208984
1403715276467143000,-0.005227190442383289,0.007215723395347595,0.07645266503095627,9.318281173706055,-0.3205518424510956,-3.7765772342681885
1403715276472143000,0.013494777493178844,0.0166766494512558,0.08079301565885544,9.211817741394043,0.07024887204170227,-3.8333425521850586
1403715276477143000,0.011790978722274303,0.049413129687309265,0.08562882244586945,9.881507873535156,0.4035000801086426,-4.1349029541015625
1403715276482143000,-0.006316554732620716,0.06363753974437714,0.07038842886686325,8.887358665466309,0.3149808347225189,-3.7160229682922363
1403715276487143000,-0.016338389366865158,0.04339972138404846,0.06705541908740997,9.059767723083496,0.17196206748485565,-3.644928455352783
1403715276492143000,-0.00514222402125597,0.04879780113697052,0.06905318051576614,9.137076377868652,-0.23359191417694092,-3.635816812515259
1403715276497143000,0.01710708811879158,0.029858112335205078,0.08915529400110245,8.95655345916748,-0.050458624958992004,-3.6781134605407715
1403715276502143000,0.022939492017030716,0.04846706986427307,0.10126416385173798,9.197123527526855,0.6002712249755859,-3.8005802631378174
1403715276507143000,-0.0045227231457829475,0.05041572451591492,0.08470895141363144,8.927355766296387,0.7582841515541077,-3.718238115310669
1403715276512143000,-0.026635300368070602,0.03235822916030884,0.08140439540147781,9.058855056762695,0.21369579434394836,-3.749160051345825
1403715276517143000,-0.029218625277280807,0.03338859975337982,0.06742891669273376,8.967367172241211,-0.20140396058559418,-3.5295681953430176
1403715276522143000,-0.0008234502747654915,0.02704930305480957,0.07989151030778885,8.839696884155273,-0.3383297026157379,-3.3532803058624268
1403715276527143000,0.027144718915224075,0.011819779872894287,0.0905492827296257,9.19184684753418,-0.1773715764284134,-3.557234525680542
1403715276532143000,0.021518010646104813,0.03787592053413391,0.07917644083499908,9.133490562438965,0.40686726570129395,-3.5487253665924072
1403715276537143000,-0.010319274850189686,0.0057941824197769165,0.06791901588439941,8.741890907287598,0.8708688020706177,-3.4429306983947754
1403715276542143000,-0.04447362944483757,0.0007150471210479736,0.055646710097789764,8.929320335388184,0.4902438819408417,-3.506471872329712
1403715276547143000,-0.045681413263082504,-0.0015095025300979614,0.07691031694412231,8.650301933288574,0.01936803199350834,-3.278496026992798
1403715276552143000,-0.020407211035490036,-0.005485564470291138,0.08711136132478714,9.459076881408691,-0.7236441969871521,-3.6968863010406494
1403715276557143000,0.008044826798141003,0.03424917161464691,0.09199749678373337,8.924338340759277,-0.4320593774318695,-3.5304765701293945
1403715276562143000,0.02860834077000618,0.007157668471336365,0.07161182910203934,8.678327560424805,-0.06027982011437416,-3.485337495803833
1403715276567143000,0.03584115579724312,0.01683218777179718,0.07077320665121078,9.02552604675293,0.3535594046115875,-3.6452224254608154
1403715276572143000,0.018759507685899734,0.010974138975143433,0.07545706629753113,8.820170402526855,0.6032376885414124,-3.5886034965515137
1403715276577143000,-0.013760042376816273,0.026047050952911377,0.07032475620508194,9.04011344909668,0.612155556678772,-3.8494815826416016
1403715276582143000,-0.024271082133054733,0.017599627375602722,0.08771467953920364,8.636968612670898,0.3643505275249481,-3.5393784046173096
1403715276587143000,-0.02948005124926567,-0.007993564009666443,0.08246282488107681,8.790813446044922,-0.09566322714090347,-3.5981345176696777
1403715276592143000,-0.016490470618009567,0.0023459941148757935,0.09910852462053299,9.001604080200195,0.11781509220600128,-3.596449613571167
1403715276597143000,-0.01854534074664116,0.016264379024505615,0.08164554834365845,9.247147560119629,-0.006321515887975693,-3.702399969100952
1403715276602143000,-0.016624730080366135,0.020238682627677917,0.06261596828699112,9.074234962463379,-0.1034972220659256,-3.5487334728240967
1403715276607143000,-0.010457736440002918,0.010434553027153015,0.06918704509735107,8.79955005645752,-0.13410831987857819,-3.50640606880188
1403715276612143000,0.005817133001983166,0.010298192501068115,0.07940059155225754,9.124117851257324,-0.0011236750287935138,-3.695415735244751
1403715276617143000,0.01616232469677925,0.025611981749534607,0.08160512149333954,9.313396453857422,0.0877998024225235,-3.7200632095336914
1403715276622143000,0.010864871554076672,0.04620683193206787,0.06345868855714798,9.181859016418457,0.11227378249168396,-3.7695236206054688
1403715276627143000,-0.0007808925583958626,0.03587484359741211,0.05529849976301193,9.042040824890137,0.25830310583114624,-3.5892364978790283
1403715276632143000,-0.007066083140671253,0.016856282949447632,0.07978793233633041,8.92931079864502,0.35049301385879517,-3.7816407680511475
1403715276637143000,-0.016468506306409836,0.021296203136444092,0.09015698730945587,9.009480476379395,0.4461272358894348,-3.6858279705047607
1403715276642143000,-0.02003757283091545,0.04530699551105499,0.08662254363298416,9.04339599609375,-0.0645156055688858,-3.7979540824890137
1403715276647143000,-0.010002446360886097,0.0025594234466552734,0.07867538183927536,8.767525672912598,-0.2481611669063568,-3.5149190425872803
1403715276652143000,-0.0063467444851994514,-0.002842426300048828,0.06965285539627075,9.407683372497559,0.08057358115911484,-3.8919057846069336
1403715276657143000,-0.008550149388611317,0.008655726909637451,0.09528596699237823,8.718526840209961,0.4210568368434906,-3.6104161739349365
1403715276662143000,-0.01337654609233141,0.007644474506378174,0.09692741185426712,9.554193496704102,-0.03298100456595421,-3.816455364227295
1403715276667143000,-0.005314570851624012,0.02606254816055298,0.08608084917068481,8.72563362121582,-0.3179682493209839,-3.3247733116149902
1403715276672143000,0.01664428785443306,-0.004332378506660461,0.06541617959737778,9.630757331848145,-0.27328819036483765,-4.003383159637451
1403715276677143000,0.01702224090695381,0.036982715129852295,0.06836298853158951,9.221224784851074,0.38470086455345154,-3.815699338912964
1403715276682143000,0.0022717593237757683,0.025193333625793457,0.08038227260112762,9.0123872756958,0.6681138873100281,-3.8325092792510986
1403715276687143000,-0.014952165074646473,0.0650404840707779,0.07715179026126862,9.122706413269043,0.17415691912174225,-3.7165374755859375
1403715276692143000,-0.01611567661166191,0.010359019041061401,0.07512809336185455,8.571487426757812,0.05913938954472542,-3.30995774269104
1403715276697143000,-0.009486657567322254,0.019496873021125793,0.06576210260391235,9.538888931274414,0.08292585611343384,-4.059507369995117
1403715276702143000,-0.014818173833191395,0.02383524179458618,0.06734529882669449,8.726335525512695,0.20995096862316132,-3.6597201824188232
1403715276707143000,-0.012798559851944447,0.041240572929382324,0.06935209035873413,9.443012237548828,0.1436702311038971,-3.946857452392578
1403715276712143000,-0.007952463813126087,0.046796202659606934,0.07168082147836685,8.765548706054688,-0.07916489243507385,-3.2213737964630127
1403715276717143000,0.003859090618789196,-0.0027395039796829224,0.07903795689344406,9.417950630187988,0.08702145516872406,-3.9055662155151367
1403715276722143000,-0.003084850497543812,0.03661312162876129,0.08507152646780014,8.795873641967773,0.4450278878211975,-3.643760919570923
1403715276727143000,-0.007557314820587635,0.042490243911743164,0.09039247781038284,9.148198127746582,0.25143498182296753,-3.6785871982574463
1403715276732143000,-0.011386496014893055,0.04468312859535217,0.08669193089008331,8.81413745880127,-0.0029849910642951727,-3.3192667961120605
1403715276737143000,-0.00878636259585619,0.014695271849632263,0.08106114715337753,8.791481971740723,0.06347476691007614,-3.418416976928711
1403715276742143000,0.0015937862917780876,0.03207641839981079,0.0917903333902359,9.245549201965332,0.13628076016902924,-3.748696804046631
1403715276747143000,0.009402739815413952,0.038435861468315125,0.09271352738142014,9.155848503112793,0.24105067551136017,-3.629289150238037
1403715276752143000,0.005554872564971447,0.05219826102256775,0.07680076360702515,8.87134075164795,-0.014521177858114243,-3.5389015674591064
1403715276757143000,-0.000591588206589222,0.02452772855758667,0.06356583535671234,8.611844062805176,0.3434286117553711,-3.2570443153381348
1403715276762143000,0.0007862327620387077,0.01658378541469574,0.07912387698888779,9.295756340026855,0.32983630895614624,-3.783310890197754
1403715276767143000,-0.011993658728897572,0.026559680700302124,0.08579139411449432,9.033761978149414,0.3023996353149414,-3.8884739875793457
1403715276772143000,-0.021986138075590134,0.03691338002681732,0.08316679298877716,8.87108325958252,0.12217880040407181,-3.4105935096740723
1403715276777143000,-0.025398235768079758,-0.0008398890495300293,0.0651397556066513,8.671546936035156,-0.2431652843952179,-2.906935930252075
1403715276782143000,-0.0001761140301823616,-0.01610705256462097,0.0853884369134903,9.645031929016113,-0.08233815431594849,-3.680091381072998
1403715276787143000,-0.00014839787036180496,0.02075834572315216,0.0877012237906456,9.368030548095703,0.1658267080783844,-3.9681224822998047
1403715276792143000,-0.014726233668625355,0.021288543939590454,0.07640818506479263,8.743992805480957,0.056828003376722336,-3.378455400466919
1403715276797143000,-0.007123452611267567,0.0007194578647613525,0.06863290816545486,8.97766399383545,-0.20092089474201202,-3.3568027019500732
1403715276802143000,0.008548843674361706,-0.010420486330986023,0.07283888012170792,9.40188980102539,0.021258847787976265,-3.5474255084991455
1403715276807143000,0.012497472576797009,0.03205136954784393,0.08519741147756577,9.587459564208984,0.6608830094337463,-4.109079360961914
1403715276812143000,-0.006621909327805042,0.04150080680847168,0.08807972818613052,8.45634651184082,0.3410409986972809,-3.4801998138427734
1403715276817143000,-0.017288219183683395,-0.007540106773376465,0.07005905359983444,8.7023286819458,0.047501564025878906,-3.737525701522827
1403715276822143000,-0.007812959142029285,0.00899745523929596,0.0795801654458046,9.676753044128418,0.17004087567329407,-3.7926888465881348
1403715276827143000,-0.01073495764285326,0.032994210720062256,0.07483924180269241,9.451271057128906,0.38708409667015076,-3.986748695373535
1403715276832143000,-0.02037159726023674,0.05436675250530243,0.07292746752500534,8.312580108642578,-0.33115166425704956,-3.39766788482666
1403715276837143000,0.003086077980697155,-0.009927600622177124,0.08066809177398682,8.839253425598145,-0.25821688771247864,-3.587613105773926
1403715276842143000,0.017543364316225052,0.030102357268333435,0.07914800196886063,10.002900123596191,0.1260635256767273,-3.8836734294891357
1403715276847143000,-0.004361939616501331,0.04906143248081207,0.07089488953351974,8.417076110839844,0.3077338635921478,-3.539034128189087
1403715276852143000,-0.022547613829374313,0.008805498480796814,0.0682864561676979,8.734527587890625,-0.003003682941198349,-3.475282669067383
1403715276857143000,-0.00024582166224718094,0.004094943404197693,0.10252280533313751,9.050324440002441,-0.14632122218608856,-3.4312007427215576
1403715276862143000,0.0010377941653132439,0.030848994851112366,0.08061345666646957,9.685771942138672,0.08463851362466812,-3.939692497253418
1403715276867143000,-0.01815701648592949,0.03719566762447357,0.06587526202201843,8.61201286315918,0.18169067800045013,-3.507237434387207
1403715276872143000,-0.018613409250974655,0.009335935115814209,0.06386414170265198,8.835426330566406,-0.039707209914922714,-3.4588935375213623
1403715276877143000,0.006315278820693493,0.028405115008354187,0.10546564310789108,9.8698148727417,-0.3913241922855377,-3.8712315559387207
1403715276882143000,-0.005881977267563343,0.08625596761703491,0.05783630162477493,8.666557312011719,0.25072553753852844,-3.909371852874756
1403715276887143000,-0.015216034837067127,0.03549186885356903,0.06681729853153229,8.443979263305664,0.1162215918302536,-3.3765709400177
1403715276892143000,0.010152238421142101,0.0036171823740005493,0.10231976956129074,9.254921913146973,-0.3875706195831299,-3.5825326442718506
1403715276897143000,0.01606147363781929,0.07464668154716492,0.08315081149339676,9.560887336730957,-0.03078761324286461,-4.088171005249023
1403715276902143000,-0.007026952691376209,0.04167482256889343,0.06856749951839447,8.096657752990723,0.29779642820358276,-3.3728132247924805
1403715276907143000,-0.00539438147097826,-0.0012496411800384521,0.08736155927181244,8.800860404968262,0.20321278274059296,-3.242882013320923
1403715276912143000,0.009652125649154186,0.02577228844165802,0.12330161780118942,9.482940673828125,0.01341812964528799,-3.5733797550201416
1403715276917143000,-0.008167278952896595,0.04622115194797516,0.07511210441589355,9.225741386413574,-0.005988856311887503,-3.8447813987731934
1403715276922143000,-0.02638445422053337,0.0015425533056259155,0.0566529855132103,8.310091018676758,0.4702437222003937,-3.253141164779663
1403715276927143000,-0.01502151507884264,-0.011754706501960754,0.09013789147138596,9.446976661682129,0.16693302989006042,-3.6083381175994873
1403715276932143000,0.007970261387526989,0.05533689260482788,0.09342636168003082,9.595044136047363,-0.0945250540971756,-4.011417388916016
1403715276937143000,-0.012787532992661,0.048863500356674194,0.03578842058777809,8.518741607666016,0.15150919556617737,-3.5441839694976807
1403715276942143000,-0.003166121430695057,0.013156771659851074,0.07808251678943634,9.428634643554688,0.6260162591934204,-3.5959911346435547
1403715276947143000,0.006080198101699352,0.06758750975131989,0.09311481565237045,9.722570419311523,-0.008285637944936752,-3.8986024856567383
1403715276952143000,-0.007659626193344593,0.0650223046541214,0.06033378466963768,8.568436622619629,0.04561629891395569,-3.741556167602539
1403715276957143000,-0.007374626584351063,0.008959859609603882,0.06235497444868088,9.121526718139648,0.0726645216345787,-3.9109718799591064
1403715276962143000,-0.0032626213505864143,0.058898329734802246,0.0818401649594307,9.560237884521484,0.13694548606872559,-3.6395387649536133
1403715276967143000,-0.007043999619781971,0.042384907603263855,0.07934924960136414,8.402237892150879,-0.315409779548645,-3.5873022079467773
1403715276972143000,-0.014492285437881947,-0.004622071981430054,0.04482663795351982,8.664824485778809,0.08122400939464569,-3.5800983905792236
1403715276977143000,-0.0043062688782811165,0.009044349193572998,0.0850629061460495,9.630670547485352,0.5842758417129517,-3.8327291011810303
1403715276982143000,-0.011876923032104969,0.05215573310852051,0.09024672955274582,8.591511726379395,0.36189720034599304,-3.458784818649292
1403715276987143000,-0.024224352091550827,0.0005218535661697388,0.06868238747119904,8.85128116607666,0.45028793811798096,-3.639716625213623
1403715276992143000,0.0002961931750178337,0.016103506088256836,0.0971534252166748,9.773736953735352,0.35715410113334656,-3.814296245574951
1403715276997143000,0.004989313893020153,0.0657481700181961,0.09018107503652573,8.947452545166016,0.28661978244781494,-3.65905499458313
1403715277002143000,0.0019316254183650017,0.018972858786582947,0.07342122495174408,8.479948043823242,0.35462599992752075,-3.239276647567749
1403715277007143000,0.01764695718884468,0.0111398845911026,0.10788226127624512,9.488266944885254,0.6198624968528748,-3.7365283966064453
1403715277012143000,0.005621719174087048,0.055875614285469055,0.09505356103181839,9.156448364257812,0.31712019443511963,-3.6667397022247314
1403715277017143000,-0.012018603272736073,0.007658287882804871,0.07201062887907028,8.132780075073242,0.12005813419818878,-3.2868664264678955
1403715277022143000,-0.0058952393010258675,-0.034994736313819885,0.07439225912094116,9.319916725158691,0.2853277027606964,-3.5583927631378174
1403715277027143000,-0.005808603949844837,0.026330724358558655,0.09166721254587173,9.610321998596191,0.17773935198783875,-3.9297802448272705
1403715277032143000,-0.027741115540266037,0.019544273614883423,0.04167456924915314,8.403331756591797,0.012399123050272465,-3.1550657749176025
1403715277037143000,-0.01788867637515068,-0.05873557925224304,0.043150484561920166,8.760416030883789,-0.1786455512046814,-3.6402852535247803
1403715277042143000,0.014500218443572521,0.014925628900527954,0.08229551464319229,9.732426643371582,-0.10321801155805588,-3.8190696239471436
1403715277047143000,0.007131475023925304,0.032504692673683167,0.06419222801923752,8.269577980041504,0.29711535573005676,-3.551772117614746
1403715277052143000,-0.01353002805262804,-0.03301689028739929,0.08323246985673904,8.8132963180542,0.3644302487373352,-3.5474629402160645
1403715277057143000,0.0014043627306818962,0.05076991021633148,0.11852845549583435,10.189532279968262,0.20496661961078644,-4.199613571166992
1403715277062143000,-0.009608102031052113,0.08005282282829285,0.10576371103525162,8.930540084838867,-0.0943022146821022,-3.7707552909851074
1403715277067143000,-0.015728812664747238,0.014417141675949097,0.08488530665636063,8.21066665649414,0.39304861426353455,-3.4235191345214844
1403715277072143000,0.00020616035908460617,0.03246942162513733,0.11438655108213425,9.773204803466797,0.05576489493250847,-3.9541311264038086
1403715277077143000,-0.0012185396626591682,0.070399209856987,0.09404445439577103,8.418822288513184,-0.36653363704681396,-3.5925655364990234
1403715277082143000,0.00596992950886488,-0.01583428680896759,0.0491953082382679,8.407310485839844,0.0841691642999649,-3.490906000137329
1403715277087143000,0.02462877705693245,0.0002108365297317505,0.09711345285177231,9.495646476745605,0.392267644405365,-3.839808464050293
1403715277092143000,-0.0013293148949742317,0.05556207895278931,0.06497678905725479,8.647377967834473,0.2490902990102768,-3.719163656234741
1403715277097143000,-0.02782152220606804,-0.00760236382484436,0.03685706853866577,8.619839668273926,0.3461240530014038,-3.256221294403076
1403715277102143000,-0.007163447327911854,0.0025834739208221436,0.0873260572552681,9.709033966064453,0.1623891294002533,-3.5323727130889893
1403715277107143000,-0.016710590571165085,0.06879141926765442,0.058796294033527374,9.490944862365723,-0.12195850908756256,-4.0266642570495605
1403715277112143000,-0.01627654954791069,0.0273875892162323,0.03476693108677864,8.77506160736084,-0.07680852711200714,-3.4330530166625977
1403715277117143000,-0.002027762122452259,0.020017504692077637,0.08058080822229385,9.362186431884766,0.5105910301208496,-3.4270026683807373
1403715277122143000,-0.005539578385651112,0.08027538657188416,0.09168674796819687,9.072772026062012,0.05901788920164108,-3.8881335258483887
1403715277127143000,-0.020537476986646652,0.01932932436466217,0.058310315012931824,8.440961837768555,-0.1759001612663269,-3.4935479164123535
1403715277132143000,-0.005803060717880726,-0.0039581358432769775,0.0797005444765091,9.4428129196167,0.19901233911514282,-3.6228079795837402
1403715277137143000,0.009781884960830212,0.059595465660095215,0.1018911674618721,9.269171714782715,-0.11466862261295319,-3.8408379554748535
1403715277142143000,-0.0008427323773503304,0.021054968237876892,0.06170719116926193,8.231444358825684,-0.19496281445026398,-3.567230701446533
1403715277147143000,0.002126711420714855,-0.0234491229057312,0.06941915303468704,9.492899894714355,0.3827507793903351,-3.587083101272583
1403715277152143000,0.00877352338284254,0.014683380722999573,0.09163513034582138,9.014775276184082,0.1369323432445526,-3.938380718231201
1403715277157143000,-0.008028698153793812,-0.012147903442382812,0.05949104204773903,8.797025680541992,-0.036965034902095795,-4.212551116943359
1403715277162143000,-0.012954783625900745,0.008399337530136108,0.07858143001794815,9.648284912109375,0.7554213404655457,-3.9863650798797607
1403715277167143000,-0.01971597597002983,0.04819518327713013,0.09710735827684402,8.7498197555542,0.054031793028116226,-3.7509703636169434
1403715277172143000,-0.019252847880125046,0.014681562781333923,0.05650116875767708,8.732487678527832,-0.43394288420677185,-4.211738586425781
1403715277177143000,0.00787882786244154,0.00023601949214935303,0.08029378950595856,9.257043838500977,0.3548023998737335,-3.989333391189575
1403715277182143000,0.012843835167586803,0.057185858488082886,0.10974424332380295,8.559592247009277,0.0689489021897316,-3.710170269012451
1403715277187143000,-0.003922087140381336,-0.007839962840080261,0.07149536162614822,8.136384963989258,0.2993405759334564,-3.978672504425049
1403715277192143000,0.0073441145941615105,-0.014452621340751648,0.10802341997623444,9.441239356994629,0.7536698579788208,-4.268062591552734
1403715277197143000,-0.016420405358076096,0.0628727376461029,0.11057442426681519,8.813584327697754,-0.15936648845672607,-3.5541231632232666
1403715277202143000,-0.014711123891174793,-0.02002623677253723,0.08454730361700058,8.438998222351074,-0.02442093752324581,-4.288615703582764
1403715277207143000,0.020517457276582718,0.022230610251426697,0.09099175035953522,9.686871528625488,0.16591665148735046,-4.129029273986816
1403715277212143000,0.001320558600127697,0.04848924279212952,0.08397867530584335,8.385300636291504,-0.19028747081756592,-3.302088499069214
1403715277217143000,0.0008805571123957634,-0.028283551335334778,0.05736468359827995,8.87662124633789,0.32706373929977417,-3.6807641983032227
1403715277222143000,0.015300917439162731,0.024917930364608765,0.09227322787046432,9.959026336669922,0.687765896320343,-3.8115274906158447
1403715277227143000,-0.031273167580366135,0.05054600536823273,0.050710003823041916,7.9326090812683105,0.1928609162569046,-3.133118152618408
1403715277232143000,-0.0351591520011425,-0.04889760911464691,0.046590253710746765,8.52336311340332,0.11444030702114105,-3.658191204071045
1403715277237143000,-0.01543776411563158,0.0020340532064437866,0.08809005469083786,10.373841285705566,0.44561174511909485,-3.94803524017334
1403715277242143000,-0.04411947354674339,0.04882614314556122,0.04527631774544716,8.241933822631836,-0.11514877527952194,-3.2694714069366455
1403715277247143000,-0.027809571474790573,-0.03921407461166382,0.05484938994050026,9.062201499938965,-0.33620086312294006,-3.606464385986328
1403715277252143000,0.01075794082134962,0.043546080589294434,0.11307381838560104,10.607226371765137,0.04756931960582733,-3.673642158508301
1403715277257143000,-0.006759238429367542,0.09124544262886047,0.07823312282562256,7.426388740539551,-0.15438449382781982,-3.1388590335845947
1403715277262143000,0.007816332392394543,-0.013023048639297485,0.07706814259290695,9.310659408569336,0.274304062128067,-3.832602024078369
1403715277267143000,0.027387846261262894,0.08949129283428192,0.11004496365785599,9.70827579498291,0.3525920808315277,-4.3510518074035645
1403715277272143000,-0.004855108447372913,0.022695958614349365,0.06055665761232376,7.15781307220459,-0.007321830838918686,-3.3783934116363525
1403715277277143000,-0.0013218345120549202,-0.05123491585254669,0.08092142641544342,9.073062896728516,0.4358638525009155,-4.075891971588135
1403715277282143000,-0.007785511203110218,0.05784390866756439,0.10642915964126587,9.59139347076416,0.31619930267333984,-3.7569706439971924
1403715277287143000,-0.031096618622541428,-0.021097257733345032,0.07103044539690018,7.846647262573242,-0.042228005826473236,-3.3542020320892334
1403715277292143000,-0.014267933554947376,-0.05658663809299469,0.0808163434267044,9.936126708984375,0.22771596908569336,-3.9747467041015625
1403715277297143000,-0.012598765082657337,0.0741204023361206,0.10344765335321426,9.715662002563477,0.2669624984264374,-3.8756072521209717
1403715277302143000,-0.02252243086695671,0.0075699687004089355,0.07434043288230896,8.080657005310059,-0.11811438202857971,-3.381788730621338
1403715277307143000,-0.005862158723175526,-0.02346530556678772,0.08080316334962845,9.957547187805176,-0.1689213216304779,-4.170314311981201
1403715277312143000,0.008023994974792004,0.09526470303535461,0.09693526476621628,8.753629684448242,-0.03598165884613991,-3.6186394691467285
1403715277317143000,0.014042663387954235,-0.0017670542001724243,0.07323052734136581,8.156998634338379,-0.24334067106246948,-3.529118299484253
1403715277322143000,0.0272894985973835,0.01984173059463501,0.07171834260225296,10.427176475524902,0.35146793723106384,-3.874802827835083
1403715277327143000,0.008862334303557873,0.08554653823375702,0.06808024644851685,8.983606338500977,0.2536996304988861,-3.7349743843078613
1403715277332143000,-0.010327589698135853,-0.03648845851421356,0.042012620717287064,8.015067100524902,0.09896185249090195,-3.4314701557159424
1403715277337143000,-0.012497526593506336,0.0014742463827133179,0.05589502677321434,10.252493858337402,0.81650310754776,-4.2941718101501465
1403715277342143000,-0.03816176578402519,0.0722208172082901,0.057915814220905304,8.526326179504395,0.2932046353816986,-3.571180820465088
1403715277347143000,-0.048547547310590744,-0.05612713098526001,0.04774884507060051,8.222959518432617,-0.035889364778995514,-3.304001808166504
1403715277352143000,-0.018760215491056442,0.01691792905330658,0.06915734708309174,10.546858787536621,0.16818305850028992,-4.094302177429199
1403715277357143000,-0.01192696113139391,0.059953272342681885,0.08562832325696945,8.299606323242188,-0.43646571040153503,-3.2755305767059326
1403715277362143000,0.004614758305251598,-0.047010257840156555,0.09480646252632141,9.114599227905273,-0.06339291483163834,-3.7567977905273438
1403715277367143000,0.027272958308458328,0.09279461205005646,0.11146149784326553,9.924544334411621,0.14910289645195007,-3.929990530014038
1403715277372143000,0.023769903928041458,0.04610052704811096,0.09746634215116501,8.009784698486328,-0.3265113830566406,-3.4314064979553223
1403715277377143000,0.042991090565919876,-0.018121719360351562,0.12109222263097763,9.28954029083252,0.4299822747707367,-3.697922706604004
1403715277382143000,0.025881696492433548,0.11814400553703308,0.12046828120946884,9.250600814819336,0.6116935014724731,-3.8231565952301025
1403715277387143000,-0.010793996043503284,0.016326904296875,0.07898160815238953,7.408963680267334,0.40419694781303406,-3.3156402111053467
1403715277392143000,-0.014312458224594593,-0.03879733383655548,0.08549927920103073,9.90568733215332,0.8463010787963867,-3.7376880645751953
1403715277397143000,-0.038782160729169846,0.09053976833820343,0.07742168009281158,9.123807907104492,0.12426529824733734,-3.8062639236450195
1403715277402143000,-0.05062393471598625,-0.02550828456878662,0.021413233131170273,7.483479976654053,-0.1687241792678833,-3.171522617340088
1403715277407143000,-0.022683631628751755,-0.02929788827896118,0.04834725335240364,10.14082145690918,0.3704826831817627,-3.7607228755950928
1403715277412143000,-0.025665532797574997,0.097163125872612,0.054099198430776596,8.921476364135742,-0.327877938747406,-3.5678186416625977
1403715277417143000,-0.0064605893567204475,-0.02716018259525299,0.048500388860702515,8.780915260314941,0.05804269388318062,-3.3596110343933105
1403715277422143000,0.02020515874028206,0.03920109570026398,0.09704858809709549,10.75601577758789,0.23877258598804474,-3.9047679901123047
1403715277427143000,0.004931974224746227,0.10501408576965332,0.0865374505519867,7.489758014678955,-0.06748471409082413,-3.634230852127075
1403715277432143000,0.020268220454454422,-0.046475693583488464,0.10832379013299942,9.023470878601074,0.5036519169807434,-3.845611095428467
1403715277437143000,0.0070938048884272575,0.11973747611045837,0.11016558855772018,10.282522201538086,0.2430165559053421,-3.9370663166046143
1403715277442143000,-0.00622443575412035,0.05252912640571594,0.08512308448553085,7.1288652420043945,-0.23027758300304413,-2.7048161029815674
1403715277447143000,0.0011910675093531609,-0.07397907972335815,0.10114336758852005,9.802680969238281,0.5061049461364746,-3.390601634979248
1403715277452143000,-0.024113398045301437,0.08204792439937592,0.08409254997968674,9.524155616760254,0.23728570342063904,-3.4414079189300537
1403715277457143000,-0.030637096613645554,-0.01779024302959442,0.05351880565285683,8.234331130981445,-0.3689962923526764,-3.1722443103790283
1403715277462143000,-0.0013432921841740608,-0.040989696979522705,0.07369055598974228,10.382353782653809,0.38007810711860657,-3.610004186630249
1403715277467143000,-0.010598418302834034,0.08215340971946716,0.07884173095226288,9.418628692626953,-0.5936070084571838,-3.1302642822265625
1403715277472143000,0.008503901772201061,-0.04446950554847717,0.0650031790137291,8.711309432983398,0.06359626352787018,-3.247558116912842
1403715277477143000,0.01984100416302681,0.02538275718688965,0.07821697741746902,10.400067329406738,0.5411603450775146,-3.460500478744507
1403715277482143000,-0.014574569649994373,0.06272813677787781,0.056691642850637436,8.470075607299805,0.26872625946998596,-3.2695276737213135
1403715277487143000,-0.009694677777588367,-0.0492890328168869,0.06509692966938019,9.595163345336914,0.49300533533096313,-3.8426496982574463
1403715277492143000,-0.02613035961985588,0.052167996764183044,0.0768546536564827,9.676780700683594,0.13116994500160217,-3.5978872776031494
1403715277497143000,-0.020083259791135788,0.01922091841697693,0.08228759467601776,7.892464637756348,-0.12122894078493118,-3.4279894828796387
1403715277502143000,-0.006102216430008411,-0.01731187105178833,0.08513864129781723,9.834784507751465,0.2572251260280609,-4.1002583503723145
1403715277507143000,-0.010850739665329456,0.040558382868766785,0.10072650760412216,9.95380973815918,-0.18468540906906128,-4.118084907531738
1403715277512143000,0.002215939573943615,-0.0008428394794464111,0.10409370064735413,7.875761985778809,0.017789142206311226,-3.6243300437927246
1403715277517143000,0.004344570450484753,0.022210553288459778,0.08037710189819336,8.584015846252441,0.517390251159668,-3.4129488468170166
1403715277522143000,-0.0013172449544072151,0.03468403220176697,0.06407119333744049,8.993443489074707,-0.2592063844203949,-3.5393431186676025
1403715277527143000,0.023479241877794266,-0.045272573828697205,0.08014272153377533,9.633877754211426,0.3951535224914551,-3.8779778480529785
1403715277532143000,0.0028442619368433952,0.0056644827127456665,0.07846035808324814,10.271537780761719,0.21885624527931213,-4.348942756652832
1403715277537143000,-0.0056250812485814095,0.05725836753845215,0.06195348501205444,8.059061050415039,0.4903738498687744,-3.359255075454712
1403715277542143000,-0.014240426011383533,0.04157893359661102,0.05250249430537224,8.734904289245605,0.8094778060913086,-3.3130524158477783
1403715277547143000,-0.047059159725904465,0.07816863059997559,0.04003516957163811,10.295332908630371,-0.38131579756736755,-4.086446285247803
1403715277552143000,-0.013289493508636951,0.03363117575645447,0.07142236083745956,8.523066520690918,-0.17608971893787384,-3.6383609771728516
1403715277557143000,-0.005206686444580555,0.04741351306438446,0.07580549269914627,8.342846870422363,0.16367624700069427,-3.4533820152282715
1403715277562143000,-0.0031191231682896614,0.09873814880847931,0.05836203694343567,8.452550888061523,-0.2852002680301666,-3.2367422580718994
