#timestamp [ns],w_RS_S_x [rad s^-1],w_RS_S_y [rad s^-1],w_RS_S_z [rad s^-1],a_RS_S_x [m s^-2],a_RS_S_y [m s^-2],a_RS_S_z [m s^-2]
1403715273262143000,-0.0020943951023931952,0.017453292519943295,0.07749261878854824,9.087495666666666,0.13075533333333333,-3.693838166666666
1403715273267143000,-0.0013962634015954637,0.019547687622336492,0.07819075048934597,9.079323458333333,0.122583125,-3.693838166666666
1403715273272143000,-0.0020943951023931952,0.016755160819145562,0.0747000919853573,9.038462416666666,0.14709974999999997,-3.6693215416666662
1403715273277143000,-0.0027925268031909274,0.020943951023931952,0.07819075048934597,9.07115125,0.122583125,-3.67749375
1403715273282143000,-0.0020943951023931952,0.020943951023931952,0.07888888219014369,9.079323458333333,0.13075533333333333,-3.702010375
1403715273287143000,0.0,0.021642082724729686,0.07958701389094143,9.054806833333332,0.07354987499999999,-3.693838166666666
1403715273292143000,-0.0013962634015954637,0.023038346126325153,0.07400196028455958,9.095667875,0.13892754166666665,-3.6611493333333334
1403715273297143000,-0.003490658503988659,0.02234021442552742,0.08028514559173915,9.062979041666667,0.07354987499999999,-3.6693215416666662
1403715273302143000,-0.0041887902047863905,0.017453292519943295,0.07609635538695278,9.136528916666666,0.14709974999999997,-3.702010375
1403715273307143000,-0.0013962634015954637,0.01815142422074103,0.07958701389094143,9.054806833333332,0.06537766666666667,-3.6366327083333334
1403715273312143000,-0.0020943951023931952,0.02024581932313422,0.07400196028455958,9.087495666666666,0.13892754166666665,-3.6693215416666662
1403715273317143000,-0.003490658503988659,0.021642082724729686,0.08028514559173915,9.046634625,0.11441091666666667,-3.67749375
1403715273322143000,-0.0027925268031909274,0.020943951023931952,0.07888888219014369,9.079323458333333,0.17161637500000002,-3.751043625
1403715273327143000,-0.0020943951023931952,0.023038346126325153,0.07958701389094143,9.054806833333332,0.11441091666666667,-3.702010375
1403715273332143000,-0.0041887902047863905,0.01884955592153876,0.07609635538695278,9.079323458333333,0.07354987499999999,-3.702010375
1403715273337143000,-0.003490658503988659,0.021642082724729686,0.07958701389094143,9.054806833333332,0.13075533333333333,-3.6693215416666662
1403715273342143000,-0.005585053606381855,0.02234021442552742,0.07819075048934597,9.087495666666666,0.10623870833333333,-3.718354791666666
1403715273347143000,-0.0027925268031909274,0.021642082724729686,0.0767944870877505,9.062979041666667,0.13892754166666665,-3.67749375
1403715273352143000,-0.0020943951023931952,0.016057029118347832,0.0767944870877505,9.038462416666666,0.0980665,-3.7346992083333332
1403715273357143000,-0.003490658503988659,0.01884955592153876,0.0747000919853573,9.062979041666667,0.122583125,-3.742871416666666
1403715273362143000,-0.0027925268031909274,0.019547687622336492,0.08028514559173915,9.038462416666666,0.0980665,-3.7346992083333332
1403715273367143000,-0.0013962634015954637,0.01815142422074103,0.0767944870877505,9.087495666666666,0.13075533333333333,-3.67749375
1403715273372143000,-0.0027925268031909274,0.019547687622336492,0.07819075048934597,9.030290208333332,0.11441091666666667,-3.67749375
1403715273377143000,-0.004886921905584123,0.016755160819145562,0.07120943348136866,9.079323458333333,0.17978858333333333,-3.67749375
1403715273382143000,0.0006981317007977319,0.02024581932313422,0.07749261878854824,9.038462416666666,0.0980665,-3.693838166666666
1403715273387143000,0.0006981317007977319,0.019547687622336492,0.07609635538695278,9.095667875,0.15527195833333335,-3.702010375
1403715273392143000,-0.0013962634015954637,0.023038346126325153,0.08098327729253688,9.07115125,0.11441091666666667,-3.693838166666666
1403715273397143000,-0.003490658503988659,0.02024581932313422,0.08028514559173915,9.095667875,0.11441091666666667,-3.7346992083333332
1403715273402143000,-0.0027925268031909274,0.02234021442552742,0.07958701389094143,9.030290208333332,0.11441091666666667,-3.6856659583333333
1403715273407143000,-0.005032263696193695,0.02105463296175003,0.07508745789527893,9.089848518371582,0.0980026125907898,-3.6805434226989746
1403715273412143000,-0.0015526339411735535,0.02174808830022812,0.07717899978160858,9.08162784576416,0.08985704928636551,-3.7050182819366455
1403715273417143000,-0.0036434903740882874,0.02033769153058529,0.07438549399375916,9.08159065246582,0.04905683174729347,-3.7539873123168945
1403715273422143000,-0.0036504194140434265,0.020354414358735085,0.07647959887981415,9.040773391723633,0.08989670127630234,-3.7049989700317383
1403715273427143000,-0.0015493407845497131,0.02175835892558098,0.07647928595542908,9.097982406616211,0.1225157305598259,-3.7295334339141846
1403715273432143000,0.0005301162600517273,0.018964292481541634,0.0785672664642334,9.057172775268555,0.0979842096567154,-3.680572032928467
1403715273437143000,-0.003645189106464386,0.019658781588077545,0.07578220963478088,9.065353393554688,0.08982449024915695,-3.664224147796631
1403715273442143000,-0.0036403313279151917,0.01829230785369873,0.07786592841148376,9.098084449768066,0.17143602669239044,-3.7051169872283936
1403715273447143000,-0.0043471381068229675,0.021756591275334358,0.07996837794780731,9.040739059448242,0.1144021525979042,-3.721306562423706
1403715273452143000,-0.00015831738710403442,0.018983423709869385,0.07856382429599762,9.098068237304688,0.1551143229007721,-3.705113410949707
1403715273457143000,-0.00017683953046798706,0.01964624412357807,0.08066247403621674,9.00804615020752,0.05724240466952324,-3.7049832344055176
1403715273462143000,-0.003642655909061432,0.018969973549246788,0.07368315756320953,9.08167552947998,0.1225387305021286,-3.7377164363861084
1403715273467143000,-0.0015601590275764465,0.021063555032014847,0.07648064196109772,9.040803909301758,0.12255610525608063,-3.688694953918457
1403715273472143000,-0.0050320252776145935,0.016882646828889847,0.0785636305809021,9.106289863586426,0.12236765772104263,-3.656146287918091
1403715273477143000,-0.0008727982640266418,0.02246047928929329,0.08275993168354034,8.999870300292969,0.13076956570148468,-3.7049667835235596
1403715273482143000,-0.003651537001132965,0.017586378380656242,0.07925882935523987,9.049006462097168,0.14700956642627716,-3.721395492553711
1403715273487143000,-0.0036527439951896667,0.021753814071416855,0.0813634842634201,9.032546997070312,0.10624060779809952,-3.721299648284912
1403715273492143000,-0.00016049295663833618,0.021069131791591644,0.07578197121620178,9.073522567749023,0.13885292410850525,-3.6887381076812744
1403715273497143000,-0.0022469982504844666,0.021068548783659935,0.08066265285015106,9.098002433776855,0.13879552483558655,-3.7050621509552
1403715273502143000,-0.0022503510117530823,0.018980929628014565,0.07786837220191956,9.081716537475586,0.14697197079658508,-3.6969263553619385
1403715273507143000,-0.0029491856694221497,0.01828685775399208,0.07856374979019165,9.073542594909668,0.15514154732227325,-3.705091953277588
1403715273512143000,-0.0022552981972694397,0.02174048312008381,0.08066821098327637,9.057092666625977,0.06535612791776657,-3.6804943084716797
1403715273517143000,-0.00503317266702652,0.02105206809937954,0.08136361837387085,9.097991943359375,0.08977162092924118,-3.6723709106445312
1403715273522143000,-0.0036453977227211,0.019666321575641632,0.07577994465827942,9.065338134765625,0.11435352265834808,-3.6968791484832764
1403715273527143000,-0.002247445285320282,0.018982522189617157,0.07716886699199677,9.098043441772461,0.15514680743217468,-3.729584217071533
1403715273532143000,-0.0015625134110450745,0.021047672256827354,0.07996590435504913,9.040717124938965,0.0817401185631752,-3.7376394271850586
1403715273537143000,-0.003642924129962921,0.021756192669272423,0.07647733390331268,9.081571578979492,0.12258962541818619,-3.7866415977478027
1403715273542143000,-0.0036498382687568665,0.02380378544330597,0.07579284906387329,9.048806190490723,-0.008043554611504078,-3.7375662326812744
1403715273547143000,-0.01066301017999649,0.01842673309147358,0.07647837698459625,8.91865062713623,0.5390075445175171,-3.688929796218872
1403715273552143000,-0.01613641530275345,0.012740559875965118,0.09318464994430542,9.326896667480469,0.2608129382133484,-3.7706167697906494
1403715273557143000,-0.028060488402843475,0.030039019882678986,0.07931706309318542,8.89332103729248,-0.13022617995738983,-3.6228511333465576
1403715273562143000,-0.0015850290656089783,0.009046485647559166,0.09251351654529572,9.138814926147461,-0.35960468649864197,-3.525221586227417
1403715273567143000,0.02834775298833847,0.036753736436367035,0.06536705791950226,9.228147506713867,-0.8899224996566772,-3.6716086864471436
1403715273572143000,0.05760055035352707,0.011875903233885765,0.06111784651875496,8.852877616882324,-0.19586516916751862,-3.5174612998962402
1403715273577143000,0.06045564264059067,0.01910237967967987,0.05063839629292488,9.294717788696289,0.48983919620513916,-3.762754440307617
1403715273582143000,0.023938216269016266,0.023052353411912918,0.06889019906520844,8.838762283325195,1.4928027391433716,-3.6746513843536377
1403715273587143000,-0.049990586936473846,0.012590071186423302,0.08297356963157654,9.075544357299805,1.7200897932052612,-3.978031635284424
1403715273592143000,-0.10673675686120987,0.01914958469569683,0.09747952222824097,9.1555757522583,0.7588342428207397,-3.697446823120117
1403715273597143000,-0.1047874316573143,0.023666007444262505,0.10726204514503479,8.941878318786621,-0.5632121562957764,-3.6629343032836914
1403715273602143000,-0.058101050555706024,0.020007317885756493,0.10027715563774109,8.892179489135742,-1.1345510482788086,-3.335348606109619
1403715273607143000,0.015141330659389496,0.004642484709620476,0.1022314727306366,9.6945161819458,-1.2501381635665894,-3.6795246601104736
1403715273612143000,0.08055169135332108,0.047748930752277374,0.050690386444330215,9.129551887512207,-1.2574920654296875,-3.6547584533691406
1403715273617143000,0.1230393573641777,0.013371055945754051,0.05060792341828346,8.713988304138184,0.08168447762727737,-3.5014376640319824
1403715273622143000,0.10555142909288406,0.03560382127761841,0.052824635058641434,9.140528678894043,1.3709485530853271,-3.7475922107696533
1403715273627143000,0.027811773121356964,-0.006694715470075607,0.07652179896831512,8.7340087890625,1.9887738227844238,-3.758774757385254
1403715273632143000,-0.058575160801410675,0.01647975854575634,0.0717928558588028,9.874969482421875,1.2644838094711304,-4.131606101989746
1403715273637143000,-0.0873083546757698,0.05507410317659378,0.07313276827335358,8.63170337677002,-0.18638986349105835,-3.5484843254089355
1403715273642143000,-0.056750304996967316,-0.008359499275684357,0.09951499104499817,8.378252983093262,-0.2688174843788147,-3.4346487522125244
1403715273647143000,-0.03695840388536453,0.010470839217305183,0.08133888244628906,9.751955032348633,-0.24591019749641418,-3.7458481788635254
1403715273652143000,-0.03502974659204483,0.02588893473148346,0.06536050140857697,8.83636474609375,-0.03212551772594452,-3.565779209136963
1403715273657143000,-0.021747149527072906,-0.012381615117192268,0.06105952337384224,9.155749320983887,0.12207639217376709,-3.713719367980957
1403715273662143000,-0.012720011174678802,0.030756337568163872,0.0918588936328888,9.007731437683105,-0.0733414888381958,-3.631169557571411
1403715273667143000,-0.0016017183661460876,0.00769968144595623,0.09808436036109924,8.983354568481445,-0.22890426218509674,-3.7539663314819336
1403715273672143000,0.031863369047641754,0.029076961800456047,0.09252430498600006,9.571778297424316,-0.9146580696105957,-3.5815978050231934
1403715273677143000,0.08681286126375198,0.0443200021982193,0.07861645519733429,8.793952941894531,-1.0692623853683472,-3.426168918609619
1403715273682143000,0.11674214154481888,0.003036176785826683,0.07079128921031952,8.575273513793945,0.3512207269668579,-3.607522487640381
1403715273687143000,0.07639538496732712,0.013914624229073524,0.060540396720170975,9.664566993713379,1.476086974143982,-3.9117958545684814
1403715273692143000,-0.006685234606266022,0.042469870299100876,0.04032844677567482,8.894216537475586,1.4445799589157104,-3.9839212894439697
1403715273697143000,-0.0660386011004448,-0.006381796672940254,0.06672385334968567,8.503886222839355,1.4513368606567383,-3.666410446166992
1403715273702143000,-0.10885290056467056,0.006723945029079914,0.11008726060390472,9.441995620727539,1.1417653560638428,-3.8783533573150635
1403715273707143000,-0.1534803807735443,0.022435279563069344,0.10862042009830475,8.901358604431152,0.23704427480697632,-3.7615044116973877
1403715273712143000,-0.14031508564949036,0.006192049011588097,0.11353278160095215,9.416165351867676,-1.0049477815628052,-3.5398521423339844
1403715273717143000,-0.06831162422895432,0.03798675537109375,0.11068479716777802,9.144250869750977,-2.0531704425811768,-3.366887331008911
1403715273722143000,0.06813786178827286,0.014824619516730309,0.09364412724971771,9.07111644744873,-2.071272134780884,-3.555553913116455
1403715273727143000,0.148082435131073,0.033716797828674316,0.04913688078522682,9.505821228027344,-1.4205082654953003,-3.581407308578491
1403715273732143000,0.19125881791114807,0.04873541742563248,0.02485998347401619,8.868809700012207,-0.1959839016199112,-3.631990432739258
1403715273737143000,0.1778915822505951,0.006446138024330139,0.046360958367586136,8.71570873260498,1.51798415184021,-3.7807934284210205
1403715273742143000,0.07787647098302841,0.035475894808769226,0.04212281480431557,9.651128768920898,2.8420867919921875,-4.103085041046143
1403715273747143000,-0.06270589679479599,0.02965117059648037,0.0694938451051712,8.324825286865234,2.921144485473633,-3.8354434967041016
1403715273752143000,-0.16982334852218628,-0.011953918263316154,0.07738813757896423,8.708025932312012,1.637427568435669,-3.8064844608306885
1403715273757143000,-0.19176730513572693,0.002957100048661232,0.12044408917427063,9.211875915527344,0.15469352900981903,-3.647418260574341
1403715273762143000,-0.16266340017318726,0.004020748659968376,0.11013694107532501,9.21923828125,-1.520891785621643,-3.653961658477783
1403715273767143000,-0.0782013013958931,0.015758415684103966,0.11418291926383972,9.275840759277344,-1.6751947402954102,-3.3592684268951416
1403715273772143000,0.015246443450450897,0.04145560413599014,0.08614836633205414,9.381538391113281,-1.929286003112793,-3.5633151531219482
1403715273777143000,0.11741819232702255,0.03239668905735016,0.07158486545085907,8.69566822052002,-1.2000410556793213,-3.3445777893066406
1403715273782143000,0.1460595726966858,0.022344307973980904,0.04084720090031624,9.262094497680664,-0.00023949146270751953,-3.713982343673706
1403715273787143000,0.12793487310409546,0.05350863188505173,0.03397265449166298,9.228976249694824,0.9473412036895752,-3.844156503677368
1403715273792143000,0.06758145242929459,0.00499492883682251,0.05187873914837837,8.086112022399902,1.6888749599456787,-3.592501163482666
1403715273797143000,-0.013781212270259857,0.009212160483002663,0.06559959053993225,9.443222045898438,1.9562251567840576,-4.191258907318115
1403715273802143000,-0.08124683052301407,0.021418452262878418,0.10660398006439209,8.57669734954834,1.26423180103302,-3.6575937271118164
1403715273807143000,-0.12424279004335403,-0.016446402296423912,0.1266462355852127,9.130433082580566,0.5626070499420166,-3.9752037525177
1403715273812143000,-0.12350549548864365,0.04250679165124893,0.09959746897220612,9.342947959899902,-0.4978543519973755,-3.319441080093384
1403715273817143000,-0.0756186917424202,-0.007138414308428764,0.11283612251281738,8.598021507263184,-0.9310369491577148,-3.466696262359619
1403715273822143000,-0.023704923689365387,0.0005376096814870834,0.06524081528186798,10.24267578125,-1.6343861818313599,-3.875497579574585
1403715273827143000,0.0771273598074913,0.06851299107074738,0.031160596758127213,8.997745513916016,-1.699157476425171,-3.571599245071411
1403715273832143000,0.1424839198589325,0.006234610453248024,0.04642835631966591,8.247032165527344,-0.37552422285079956,-3.3051323890686035
1403715273837143000,0.13696959614753723,0.028560534119606018,0.05837898328900337,9.48418140411377,1.3298311233520508,-3.8458054065704346
1403715273842143000,0.05144915729761124,0.01716277189552784,0.07724800705909729,8.667370796203613,2.127631187438965,-3.897834062576294
1403715273847143000,-0.04006019979715347,0.012508293613791466,0.06625640392303467,9.508012771606445,1.6228083372116089,-4.140961647033691
1403715273852143000,-0.08380687981843948,0.04612627625465393,0.08218172192573547,8.583208084106445,0.20503170788288116,-3.393836498260498
1403715273857143000,-0.06857914477586746,-0.002112116664648056,0.09882846474647522,8.60699462890625,-0.38356727361679077,-3.6961722373962402
1403715273862143000,-0.04468163102865219,0.015356028452515602,0.08902907371520996,9.547508239746094,-0.27016907930374146,-3.5985817909240723
1403715273867143000,-0.02598220854997635,0.020976532250642776,0.07580992579460144,8.868918418884277,-0.1384338140487671,-3.6066510677337646
1403715273872143000,-0.010639049112796783,0.002103688195347786,0.0639030933380127,9.073537826538086,-0.29408735036849976,-3.672426462173462
1403715273877143000,0.00472617894411087,0.0195851381868124,0.07787200808525085,9.212368965148926,-0.1063334047794342,-3.6969070434570312
1403715273882143000,0.015085004270076752,0.019695699214935303,0.07159505784511566,8.61581039428711,0.18829461932182312,-3.5578105449676514
1403715273887143000,0.017969302833080292,0.0002251509577035904,0.0896533876657486,9.311047554016113,0.3341381251811981,-3.7547173500061035
1403715273892143000,0.0026773735880851746,0.03366438299417496,0.09393063187599182,9.32662296295166,0.3100767731666565,-3.7866995334625244
1403715273897143000,-0.007933162152767181,0.019807524979114532,0.11275462806224823,8.697802543640137,0.5146743059158325,-3.7050883769989014
1403715273902143000,-0.019642986357212067,0.019686514511704445,0.10924224555492401,9.236778259277344,0.1873747706413269,-3.705045223236084
1403715273907143000,-0.012744970619678497,0.0340861901640892,0.0974658876657486,9.129992485046387,-0.5796687006950378,-3.6061899662017822
1403715273912143000,0.03180014342069626,0.016428744420409203,0.06671260297298431,9.023447036743164,-1.2173821926116943,-3.638697862625122
1403715273917143000,0.08551757782697678,0.020177578553557396,0.053438711911439896,9.360051155090332,-0.2533140778541565,-3.705591917037964
1403715273922143000,0.0776536837220192,0.02708420157432556,0.042949873954057693,8.739083290100098,1.0944960117340088,-3.811735153198242
1403715273927143000,0.01767396181821823,0.018875012174248695,0.034020233899354935,9.042817115783691,1.5824626684188843,-3.846155881881714
1403715273932143000,-0.05136051028966904,0.011188948526978493,0.07108098268508911,8.937420845031738,1.6955970525741577,-3.7736384868621826
1403715273937143000,-0.12356213480234146,0.00533569511026144,0.08428604900836945,9.074751853942871,1.1336349248886108,-3.788412094116211
1403715273942143000,-0.13884237408638,0.014027928933501244,0.10860048234462738,9.130343437194824,-0.13896791636943817,-3.5653841495513916
1403715273947143000,-0.10055916756391525,0.022738059982657433,0.08705572783946991,9.014337539672852,-1.6019424200057983,-3.49822735786438
1403715273952143000,-8.497387170791626e-05,0.032387249171733856,0.09664136171340942,9.291399955749512,-1.8385074138641357,-3.350985527038574
1403715273957143000,0.07636561244726181,0.027717342600226402,0.10229828953742981,9.072861671447754,-0.7351546883583069,-3.647676944732666
1403715273962143000,0.09037425369024277,0.03715239465236664,0.07090625166893005,9.204496383666992,0.2774518132209778,-3.6646323204040527
1403715273967143000,0.07498415559530258,0.03507305681705475,0.0806826651096344,8.607341766357422,0.22911718487739563,-3.6478183269500732
1403715273972143000,0.0826798751950264,-0.0021296683698892593,0.07501640915870667,9.065738677978516,-0.29438868165016174,-3.7302396297454834
1403715273977143000,0.10359693318605423,0.030594786629080772,0.0764712542295456,9.286205291748047,-0.35962599515914917,-3.7871761322021484
1403715273982143000,0.11739908903837204,0.009660415351390839,0.0687267929315567,8.993390083312988,1.0939711332321167,-3.8127543926239014
1403715273987143000,0.01939281076192856,0.033259592950344086,0.06008084490895271,9.126348495483398,2.476646661758423,-3.9310333728790283
1403715273992143000,-0.12302704900503159,0.007257772609591484,0.07730987668037415,8.736830711364746,3.358612537384033,-3.9179763793945312
1403715273997143000,-0.25468727946281433,0.019477179273962975,0.0841621607542038,9.48477840423584,2.199725866317749,-4.035696983337402
1403715274002143000,-0.2903696596622467,0.02153562568128109,0.10042162239551544,8.722156524658203,-0.6352131366729736,-3.2783613204956055
1403715274007143000,-0.18639391660690308,-0.0033164341002702713,0.10840149223804474,9.25115966796875,-3.339188575744629,-3.5062077045440674
1403715274012143000,0.013677887618541718,0.03955520689487457,0.0894438624382019,8.921597480773926,-4.385540962219238,-2.980539560317993
1403715274017143000,0.2053743302822113,0.014606697484850883,0.07598279416561127,9.371150970458984,-2.9303176403045654,-3.7014148235321045
1403715274022143000,0.29080358147621155,0.029862163588404655,0.06513936817646027,9.556715965270996,-0.07419992983341217,-3.861574411392212
1403715274027143000,0.22659853100776672,0.06766673177480698,0.024983394891023636,8.927056312561035,2.1535773277282715,-4.019339561462402
1403715274032143000,0.10885000973939896,0.03496851027011871,0.03928244486451149,8.16075611114502,2.909095287322998,-3.655808687210083
1403715274037143000,-0.015363194048404694,0.0023483652621507645,0.07252304255962372,9.133478164672852,2.1103620529174805,-4.061413288116455
1403715274042143000,-0.10696382075548172,0.000466836616396904,0.12401056289672852,9.03333568572998,1.1580734252929688,-3.9438071250915527
1403715274047143000,-0.14371925592422485,0.009289534762501717,0.12322975695133209,9.064715385437012,0.5140826106071472,-3.8765385150909424
1403715274052143000,-0.1395963728427887,0.022367222234606743,0.14838364720344543,9.056571006774902,-0.1471492499113083,-3.48327898979187
1403715274057143000,-0.1200786754488945,0.015277905389666557,0.10796195268630981,9.44066047668457,-0.9153980016708374,-3.78546404838562
1403715274062143000,-0.05659642070531845,0.040900178253650665,0.08004230260848999,9.390457153320312,-1.453328013420105,-3.530935525894165
1403715274067143000,0.024184204638004303,0.03168497234582901,0.061834562569856644,9.022462844848633,-1.5437637567520142,-3.4578986167907715
1403715274072143000,0.10213658958673477,0.0400213748216629,0.0464424230158329,9.244007110595703,-1.3964487314224243,-3.6138718128204346
1403715274077143000,0.15503734350204468,0.038961946964263916,0.061149466782808304,8.75411605834961,-0.3512750566005707,-3.68100905418396
1403715274082143000,0.14042159914970398,0.04466382414102554,0.06399156153202057,9.360759735107422,1.3467317819595337,-3.9924821853637695
1403715274087143000,0.06344450265169144,0.04365638643503189,0.08503611385822296,8.724756240844727,2.038663148880005,-3.7500391006469727
1403715274092143000,-0.030642487108707428,0.019645357504487038,0.08987562358379364,8.601898193359375,1.834109902381897,-3.8230087757110596
1403715274097143000,-0.11446160823106766,0.006654783152043819,0.09329088032245636,9.009049415588379,0.8565421104431152,-3.657022476196289
1403715274102143000,-0.13187095522880554,0.00849977321922779,0.10578976571559906,9.007743835449219,0.08159189671278,-3.712719440460205
1403715274107143000,-0.1075180247426033,0.0034768227487802505,0.10928955674171448,9.277369499206543,-0.5558289289474487,-3.638808250427246
1403715274112143000,-0.06995246559381485,0.02285371534526348,0.10656245052814484,8.982378959655762,-0.9712472558021545,-3.392712116241455
1403715274117143000,0.00253305584192276,0.0031812991946935654,0.10017643868923187,9.014768600463867,-1.3070346117019653,-3.409386396408081
1403715274122143000,0.06666498631238937,0.009484140202403069,0.07710099220275879,9.62939453125,-1.1435878276824951,-3.7127742767333984
1403715274127143000,0.10358083993196487,0.04176565259695053,0.051404017955064774,9.228891372680664,-0.318429172039032,-3.6236512660980225
1403715274132143000,0.11189360171556473,0.020459506660699844,0.0506051667034626,8.738532066345215,0.34324151277542114,-3.680767059326172
1403715274137143000,0.08333037048578262,0.03545786440372467,0.06467431783676147,9.189197540283203,1.1262637376785278,-3.722665309906006
1403715274142143000,0.03570602089166641,0.027297189459204674,0.09191150963306427,8.593603134155273,1.558176040649414,-3.625922918319702
1403715274147143000,-0.03238586336374283,0.0026807188987731934,0.10167479515075684,9.149100303649902,1.2722212076187134,-3.7891170978546143
1403715274152143000,-0.0914662703871727,0.005151314660906792,0.0946209579706192,8.926822662353516,0.5059958100318909,-3.6481075286865234
1403715274157143000,-0.09010567516088486,-0.009060563519597054,0.08415322005748749,9.065110206604004,-0.48212531208992004,-3.663801908493042
1403715274162143000,-0.0468645915389061,0.01590595953166485,0.0785999447107315,9.449054718017578,-0.8904723525047302,-3.712343692779541
1403715274167143000,0.005333133041858673,0.018708335235714912,0.07860627770423889,8.958446502685547,-0.6612368822097778,-3.573800802230835
1403715274172143000,0.032540060579776764,0.013978501781821251,0.0792606920003891,9.0081205368042,-0.18788981437683105,-3.574519395828247
1403715274177143000,0.030428685247898102,0.017667125910520554,0.08831621706485748,8.877572059631348,0.33487245440483093,-3.6807425022125244
1403715274182143000,0.01093948632478714,0.007241513580083847,0.08829349279403687,9.008614540100098,0.42436662316322327,-3.689159870147705
1403715274187143000,-0.00010260194540023804,0.019661955535411835,0.0897064357995987,9.375657081604004,0.14661163091659546,-3.9255764484405518
1403715274192143000,0.008154191076755524,0.030611274763941765,0.07304473221302032,9.023971557617188,-0.49786296486854553,-3.590211868286133
1403715274197143000,0.04369135946035385,0.02570844255387783,0.0785897970199585,9.171394348144531,-0.4982118308544159,-3.6559746265411377
1403715274202143000,0.07016132026910782,0.03359006345272064,0.06672999262809753,8.950875282287598,0.06554560363292694,-3.6235625743865967
1403715274207143000,0.045616514980793,0.013142511248588562,0.06530041992664337,8.919677734375,1.1509283781051636,-3.7962446212768555
1403715274212143000,-0.014361508190631866,0.02089187502861023,0.07450869679450989,8.969062805175781,1.4601249694824219,-3.854285717010498
1403715274217143000,-0.0755019411444664,0.003919627517461777,0.07304002344608307,9.017452239990234,0.9872358441352844,-3.796118974685669
1403715274222143000,-0.09348409622907639,0.0036460887640714645,0.08414015173912048,9.196054458618164,0.10581608861684799,-3.7050247192382812
1403715274227143000,-0.07479489594697952,0.011074474081397057,0.0765252560377121,9.056565284729004,-0.7184171676635742,-3.5488593578338623
1403715274232143000,-0.024616606533527374,0.010966433212161064,0.07022100687026978,9.187251091003418,-0.9964379668235779,-3.6142690181732178
1403715274237143000,0.02139989286661148,0.02639186568558216,0.06674788892269135,9.179505348205566,-0.5713455677032471,-3.4759714603424072
1403715274242143000,0.042268671095371246,0.015347888693213463,0.06252585351467133,8.844497680664062,-0.24477137625217438,-3.6152586936950684
1403715274247143000,0.04924524575471878,0.012770017609000206,0.06528757512569427,8.869612693786621,0.2774897813796997,-3.4850220680236816
1403715274252143000,0.03741658478975296,0.0009621735662221909,0.06872674822807312,9.074185371398926,0.4244329035282135,-3.754625082015991
1403715274257143000,0.013003863394260406,0.0030555278062820435,0.07851330935955048,8.869744300842285,0.42458105087280273,-3.6890454292297363
1403715274262143000,-0.004356108605861664,-0.001774672418832779,0.0861782431602478,9.24576187133789,0.5874549150466919,-3.8691329956054688
1403715274267143000,-0.02108054608106613,0.010027730837464333,0.09388808906078339,9.090140342712402,0.45704472064971924,-3.762532949447632
1403715274272143000,-0.044073037803173065,0.00721271988004446,0.08482983708381653,9.000282287597656,0.38363873958587646,-3.688912868499756
1403715274277143000,-0.0461580827832222,0.00012881308794021606,0.09806329011917114,9.065315246582031,0.03230542689561844,-3.6887001991271973
1403715274282143000,-0.03645407408475876,-0.0006761755794286728,0.08693408966064453,8.893528938293457,-0.29399409890174866,-3.549577236175537
1403715274287143000,-0.012714974582195282,-0.00629991851747036,0.0882914811372757,9.261575698852539,-0.4090138375759125,-3.73785138130188
1403715274292143000,0.012380771338939667,0.004859955981373787,0.0729595422744751,9.286155700683594,-0.3352818489074707,-3.770611524581909
1403715274297143000,0.03259477764368057,0.016065390780568123,0.06530193984508514,9.27800178527832,-0.1554008275270462,-3.754312753677368
1403715274302143000,0.04162610322237015,0.028749121353030205,0.05695072188973427,9.073522567749023,0.18807798624038696,-3.762277841567993
1403715274307143000,0.03325635939836502,0.03658133000135422,0.055580366402864456,9.114453315734863,0.604653000831604,-3.8357794284820557
1403715274312143000,0.0025581195950508118,0.03730601817369461,0.07374010980129242,8.836858749389648,0.6861988306045532,-3.6724724769592285
1403715274317143000,-0.024607889354228973,0.018400724977254868,0.07019872963428497,8.828692436218262,0.514742374420166,-3.729527711868286
1403715274322143000,-0.041294343769550323,0.007196958176791668,0.07924357056617737,8.96750259399414,0.35114407539367676,-3.7541275024414062
1403715274327143000,-0.04542171210050583,0.014101576060056686,0.07995609939098358,9.155106544494629,0.1632319837808609,-3.8029866218566895
1403715274332143000,-0.036360226571559906,0.02793213538825512,0.0744178295135498,9.236551284790039,-0.1796666383743286,-3.7945430278778076
1403715274337143000,-0.02105308324098587,0.036255642771720886,0.0681663304567337,9.203831672668457,-0.3101133406162262,-3.70459246635437
1403715274342143000,0.003302238881587982,0.03971703350543976,0.07236164808273315,9.105735778808594,-0.3752956986427307,-3.573873996734619
1403715274347143000,0.02556031197309494,0.036989398300647736,0.08072306215763092,8.79505729675293,-0.20366784930229187,-3.5903398990631104
1403715274352143000,0.03325004130601883,0.01902502030134201,0.07576560974121094,9.008368492126465,0.24492120742797852,-3.631828546524048
1403715274357143000,0.023477576673030853,0.015623367391526699,0.08551803231239319,9.008514404296875,0.46540340781211853,-3.7380728721618652
1403715274362143000,0.00047991424798965454,0.010123342275619507,0.07296563684940338,9.082342147827148,0.6939348578453064,-3.8118064403533936
1403715274367143000,-0.03421730548143387,0.020516417920589447,0.0772029310464859,9.441324234008789,0.6284077763557434,-3.8769848346710205
1403715274372143000,-0.047528721392154694,0.0343216210603714,0.0800148993730545,8.991521835327148,0.2208537757396698,-3.729124069213867
1403715274377143000,-0.040616534650325775,0.025071201846003532,0.07444420456886292,8.983194351196289,-0.44867223501205444,-3.4674298763275146
1403715274382143000,0.007415570318698883,0.0172185767441988,0.08348934352397919,8.87621021270752,-0.9466672539710999,-3.344426393508911
1403715274387143000,0.052687905728816986,0.0004921015352010727,0.06180909648537636,8.827766418457031,-0.8000288605690002,-3.410750389099121
1403715274392143000,0.08412281423807144,-0.008958768099546432,0.06450115144252777,9.295169830322266,0.08928322046995163,-3.706062078475952
1403715274397143000,0.06381525844335556,0.0053772274404764175,0.05618659034371376,9.172858238220215,0.9714109897613525,-3.877695083618164
1403715274402143000,0.005812220275402069,0.01540420576930046,0.06824991106987,9.149188041687012,1.6229177713394165,-3.944819450378418
1403715274407143000,-0.06577145308256149,0.02358165942132473,0.09134598076343536,9.287396430969238,1.4027785062789917,-3.903263568878174
1403715274412143000,-0.12141651660203934,0.02939324826002121,0.09677554666996002,8.877130508422852,0.13104629516601562,-3.598095178604126
1403715274417143000,-0.0999549999833107,0.02218727581202984,0.11008132994174957,8.851668357849121,-0.8895650506019592,-3.441710948944092
1403715274422143000,-0.02601885050535202,0.008034816011786461,0.09741494059562683,8.932638168334961,-1.5204463005065918,-3.4660794734954834
1403715274427143000,0.051291681826114655,0.0031442921608686447,0.08339676260948181,9.006887435913086,-1.274558424949646,-3.4998254776000977
1403715274432143000,0.09386942535638809,0.010374324396252632,0.0603787936270237,9.458300590515137,-0.35164859890937805,-3.8772478103637695
1403715274437143000,0.09035671502351761,0.03104344755411148,0.050648827105760574,9.269840240478516,0.6862308382987976,-3.982959270477295
1403715274442143000,0.05263502150774002,0.0445355549454689,0.061214838176965714,8.968053817749023,1.1593655347824097,-3.787583351135254
1403715274447143000,0.001757510006427765,0.032671622931957245,0.07379819452762604,8.927876472473145,1.2484878301620483,-3.7064855098724365
1403715274452143000,-0.04763401299715042,0.029709195718169212,0.0891297310590744,8.894609451293945,0.9630863070487976,-3.6894640922546387
1403715274457143000,-0.08024416118860245,0.023966263979673386,0.09466204047203064,9.147220611572266,0.5222898721694946,-3.6153929233551025
1403715274462143000,-0.07545550912618637,0.01747116632759571,0.10022847354412079,8.974992752075195,-0.23667773604393005,-3.5818023681640625
1403715274467143000,-0.06571375578641891,0.01391252689063549,0.06675341725349426,9.015884399414062,-0.5142235159873962,-3.647242307662964
1403715274472143000,-0.021034829318523407,0.022239623591303825,0.06185812130570412,9.4738187789917,-0.5637542009353638,-3.802785634994507
1403715274477143000,0.017890848219394684,0.04027899354696274,0.06120556965470314,9.11359977722168,-0.7833911776542664,-3.5980350971221924
1403715274482143000,0.04926345497369766,0.04530644416809082,0.05772138014435768,9.015944480895996,-0.30168265104293823,-3.5170204639434814
1403715274487143000,0.06943850964307785,0.0300885122269392,0.07509802281856537,8.819965362548828,0.00020188838243484497,-3.5908362865448
1403715274492143000,0.06247653812170029,0.025401553139090538,0.05971451476216316,8.951241493225098,0.4901939034461975,-3.7134652137756348
1403715274497143000,0.03669603914022446,0.012235188856720924,0.06040321663022041,8.992684364318848,0.6856627464294434,-3.6159636974334717
1403715274502143000,-0.005142591893672943,0.0011218301951885223,0.04504228010773659,9.082563400268555,0.8980693221092224,-3.9100468158721924
1403715274507143000,-0.041999541223049164,0.01220384705811739,0.05277377739548683,9.008888244628906,0.7266400456428528,-3.7382357120513916
1403715274512143000,-0.06069018691778183,0.014776766300201416,0.0722915530204773,9.359296798706055,0.1140637993812561,-3.868363618850708
1403715274517143000,-0.05804172903299332,0.02447371929883957,0.09255824983119965,8.795197486877441,-0.056686095893383026,-3.7125208377838135
1403715274522143000,-0.04549335688352585,0.02720951847732067,0.10651972889900208,8.983048439025879,-0.2775092124938965,-3.524585485458374
1403715274527143000,-0.009949006140232086,0.020176516845822334,0.10788145661354065,9.195610046386719,-0.465820848941803,-3.688258647918701
1403715274532143000,0.015779562294483185,0.012474758550524712,0.08626379072666168,8.85230541229248,-0.5224359035491943,-3.467794418334961
1403715274537143000,0.03674446791410446,0.004889326170086861,0.07504288852214813,9.188158988952637,-0.22902707755565643,-3.713587999343872
1403715274542143000,0.04715912789106369,0.011894466355443,0.06669332087039948,8.918241500854492,-0.1469651758670807,-3.656244993209839
1403715274547143000,0.04933304339647293,0.01205451600253582,0.06944894790649414,9.376370429992676,0.3181268870830536,-3.828085422515869
1403715274552143000,0.03393935412168503,0.026146462187170982,0.07927392423152924,9.106682777404785,0.6286607384681702,-3.730034112930298
1403715274557143000,0.0018127933144569397,0.024838827550411224,0.08069239556789398,8.91894817352295,0.8818760514259338,-3.8036396503448486
1403715274562143000,-0.025939635932445526,0.01558166928589344,0.07578766345977783,9.024881362915039,0.37545618414878845,-3.574657917022705
1403715274567143000,-0.03706044703722,0.021779870614409447,0.06533335149288177,9.10616397857666,0.20433244109153748,-3.7539546489715576
1403715274572143000,-0.038473762571811676,0.014806846156716347,0.05206609144806862,9.016461372375488,0.17990262806415558,-3.705014705657959
1403715274577143000,-0.0426018163561821,0.019042054191231728,0.06114814057946205,9.24518871307373,0.35928744077682495,-3.786863088607788
1403715274582143000,-0.040564365684986115,0.037124909460544586,0.08141016960144043,8.999610900878906,0.2699000835418701,-3.7862696647644043
1403715274587143000,-0.038534410297870636,0.01815067045390606,0.08139815926551819,8.87706184387207,-0.2773005962371826,-3.4758098125457764
1403715274592143000,-0.01199168711900711,0.03625094145536423,0.09186509251594543,9.28542423248291,-0.3267902731895447,-3.786238670349121
1403715274597143000,0.022031284868717194,0.02835768647491932,0.08422622084617615,8.581376075744629,-0.9954306483268738,-3.2951152324676514
1403715274602143000,0.06876233965158463,0.010246092453598976,0.06945846974849701,9.457992553710938,-0.8088032007217407,-3.713340997695923
1403715274607143000,0.10285628587007523,0.030776480212807655,0.07439006865024567,8.762721061706543,-0.008056039921939373,-3.5665197372436523
1403715274612143000,0.0770513191819191,0.007476578466594219,0.049209628254175186,9.091238975524902,0.955014705657959,-3.7388718128204346
1403715274617143000,0.028231181204319,0.02580956369638443,0.06616085767745972,9.287957191467285,1.4764684438705444,-3.870675802230835
1403715274622143000,-0.041448019444942474,0.021413138136267662,0.06189710274338722,8.780674934387207,1.1587990522384644,-3.7306013107299805
1403715274627143000,-0.08020960539579391,0.011423440650105476,0.07510356605052948,9.326871871948242,0.5468026995658875,-3.8687832355499268
1403715274632143000,-0.08524354547262192,0.025144170969724655,0.10165497660636902,8.713454246520996,-0.13817620277404785,-3.524359941482544
1403715274637143000,-0.0691831037402153,0.015271054580807686,0.08000630140304565,9.21202278137207,-0.6613242626190186,-3.4916787147521973
1403715274642143000,-0.019694097340106964,0.022868508473038673,0.08139030635356903,9.42452621459961,-0.849614679813385,-3.736948251724243
1403715274647143000,0.02203979343175888,0.020122205838561058,0.059776801615953445,8.762279510498047,-0.5711665153503418,-3.5657808780670166
1403715274652143000,0.05006755143404007,0.024380723014473915,0.05345620587468147,9.621378898620605,-0.21271713078022003,-3.860501289367676
1403715274657143000,0.058997057378292084,0.03352754935622215,0.04930141940712929,8.828032493591309,-0.097525455057621,-3.63965106010437
1403715274662143000,0.058358632028102875,0.030910201370716095,0.05206337943673134,9.212600708007812,0.37580379843711853,-3.803239583969116
1403715274667143000,0.04160574823617935,0.04427748918533325,0.07582966983318329,9.089883804321289,0.6372393369674683,-3.819485902786255
1403715274672143000,0.00029834359884262085,0.03257790207862854,0.08209918439388275,8.60024642944336,1.0943199396133423,-3.868964195251465
1403715274677143000,-0.03988874703645706,0.02479390613734722,0.09189009666442871,9.253607749938965,0.8733224272727966,-3.8854284286499023
1403715274682143000,-0.07335074990987778,0.0218045711517334,0.09743756055831909,8.844698905944824,0.3186255097389221,-3.598576068878174
1403715274687143000,-0.07199626415967941,0.011187264695763588,0.09882727265357971,8.868730545043945,-0.2611413598060608,-3.6226863861083984
1403715274692143000,-0.03994210809469223,0.015927007421851158,0.09395390748977661,9.138232231140137,-0.734855592250824,-3.4916255474090576
1403715274697143000,0.006052635610103607,0.02002936415374279,0.08277377486228943,9.285420417785645,-0.9310564994812012,-3.622527599334717
1403715274702143000,0.04993758350610733,0.03129689395427704,0.08139894902706146,9.040372848510742,-0.48166099190711975,-3.574174642562866
1403715274707143000,0.06538579612970352,0.037042777985334396,0.06951284408569336,9.547662734985352,0.08946583420038223,-3.7869536876678467
1403715274712143000,0.05132550746202469,0.05053877457976341,0.067472442984581,8.787408828735352,0.5639612078666687,-3.6396119594573975
1403715274717143000,0.017893560230731964,0.03111470490694046,0.05838868394494057,9.04154109954834,0.857284665107727,-3.69746732711792
1403715274722143000,-0.012010298669338226,0.03240221366286278,0.0744408369064331,9.065727233886719,0.6368529200553894,-3.6481974124908447
1403715274727143000,-0.038576848804950714,0.021139342337846756,0.07091115415096283,8.509980201721191,0.4497080147266388,-3.573922872543335
1403715274732143000,-0.04474050551652908,0.0029872357845306396,0.07924839854240417,9.082067489624023,0.21193724870681763,-3.5583250522613525
1403715274737143000,-0.04548890143632889,-0.0027096308767795563,0.08272743225097656,8.942697525024414,-0.12259954959154129,-3.6967499256134033
1403715274742143000,-0.0252186581492424,0.0035292822867631912,0.07087346911430359,9.27794075012207,-0.21271194517612457,-3.6806445121765137
1403715274747143000,-0.0001530572772026062,0.01815241016447544,0.08275258541107178,9.245001792907715,-0.2207467257976532,-3.7049896717071533
1403715274752143000,0.006094701588153839,0.029338818043470383,0.06117302551865578,9.016178131103516,-0.1385364681482315,-3.55787992477417
1403715274757143000,0.026974163949489594,0.01616402342915535,0.08902040123939514,8.983691215515137,0.057001158595085144,-3.574577808380127
1403715274762143000,0.024926520884037018,0.021658027544617653,0.06741578876972198,9.21255874633789,-0.13897353410720825,-3.615351438522339
1403715274767143000,0.03321462124586105,0.013491274788975716,0.0924968272447586,8.869566917419434,0.342774361371994,-3.550292730331421
1403715274772143000,0.012372799217700958,0.006489396095275879,0.06736239790916443,9.114790916442871,0.30199772119522095,-3.746241807937622
1403715274777143000,0.0012446269392967224,0.010761614888906479,0.08411647379398346,9.318974494934082,0.5794983506202698,-3.9260456562042236
1403715274782143000,-0.016828246414661407,0.02530847117304802,0.07788103818893433,9.293974876403809,0.3511005640029907,-3.884711742401123
1403715274787143000,-0.027314431965351105,0.03721374273300171,0.08071853220462799,9.122373580932617,0.51469886302948,-3.819267988204956
1403715274792143000,-0.04202420264482498,0.0342356413602829,0.08561260998249054,8.64809513092041,-0.031859010457992554,-3.614388942718506
1403715274797143000,-0.0301327183842659,0.02093932218849659,0.07859817147254944,9.097756385803223,-0.2694129943847656,-3.6148433685302734
1403715274802143000,-0.002989642322063446,0.025034969672560692,0.09116081893444061,9.130189895629883,-0.5227034091949463,-3.6555392742156982
1403715274807143000,0.013011254370212555,0.01470240205526352,0.06881144642829895,8.746407508850098,-0.1302933543920517,-3.557878255844116
1403715274812143000,0.020742468535900116,0.007070457562804222,0.06946219503879547,9.179977416992188,-0.00026913583860732615,-3.7543587684631348
1403715274817143000,0.029835782945156097,0.020408185198903084,0.07017876207828522,9.343371391296387,0.27744531631469727,-3.8196732997894287
1403715274822143000,0.023583553731441498,0.03932865336537361,0.07163853943347931,9.424699783325195,0.5635036826133728,-3.933771848678589
1403715274827143000,-0.0037166401743888855,0.042168259620666504,0.068870410323143,8.722391128540039,0.6700291037559509,-3.6232688426971436
1403715274832143000,-0.02873704582452774,0.030860070139169693,0.06536228954792023,8.885598182678223,0.253555029630661,-3.606801748275757
1403715274837143000,-0.021084673702716827,0.025153793394565582,0.09185084700584412,8.999543190002441,-0.15503209829330444,-3.6638052463531494
1403715274842143000,-0.01274292916059494,0.014011979103088379,0.08903686702251434,8.918024063110352,-0.1224249005317688,-3.6068296432495117
1403715274847143000,-0.016225241124629974,-0.0011915229260921478,0.09525460004806519,8.983869552612305,0.2528823912143707,-3.721628427505493
1403715274852143000,-0.016182370483875275,0.012629345059394836,0.08344022929668427,9.138776779174805,-0.08187373727560043,-3.7376651763916016
1403715274857143000,-0.0014858618378639221,0.02511690743267536,0.0778813511133194,9.498405456542969,-0.20459260046482086,-3.737645149230957
1403715274862143000,0.012354187667369843,0.028600851073861122,0.06605711579322815,9.016091346740723,-0.25289663672447205,-3.541503429412842
1403715274867143000,0.014475561678409576,0.03222279995679855,0.05628477409482002,9.065345764160156,0.13905180990695953,-3.631540536880493
1403715274872143000,0.019293002784252167,0.018251067027449608,0.07996807992458344,8.803756713867188,0.041010066866874695,-3.574326515197754
1403715274877143000,0.01933182030916214,0.02591562084853649,0.08695241808891296,9.040753364562988,0.040791090577840805,-3.615229368209839
1403715274882143000,0.014422021806240082,0.01348412036895752,0.10574561357498169,8.97568416595459,0.34270769357681274,-3.648207426071167
1403715274887143000,-0.015506871044635773,0.010794539004564285,0.08344429731369019,9.123218536376953,0.6201539635658264,-3.681210994720459
1403715274892143000,-0.032872848212718964,0.015558953396975994,0.08065825700759888,9.196195602416992,0.34275317192077637,-3.7460403442382812
1403715274897143000,-0.04056907445192337,0.016790350899100304,0.06882384419441223,9.097914695739746,-0.17143237590789795,-3.639462471008301
1403715274902143000,-0.014076672494411469,0.015390386804938316,0.06741452217102051,9.212481498718262,-0.16345833241939545,-3.6315433979034424
1403715274907143000,0.0018829628825187683,0.017471881583333015,0.07230688631534576,8.88533878326416,-0.18757577240467072,-3.5986764430999756
1403715274912143000,0.01584038883447647,0.016116665676236153,0.0785631537437439,9.032644271850586,-0.0653681755065918,-3.6479415893554688
1403715274917143000,0.026308290660381317,0.01681949757039547,0.09946763515472412,9.187884330749512,-0.03302339091897011,-3.7542104721069336
1403715274922143000,0.02142518013715744,0.017660051584243774,0.08064375817775726,9.106510162353516,0.33464282751083374,-3.680887460708618
1403715274927143000,0.007493846118450165,0.019870078191161156,0.08206112682819366,9.221126556396484,0.6611252427101135,-3.77097487449646
1403715274932143000,-0.019709356129169464,0.022565320134162903,0.06602711975574493,8.861310005187988,0.44943100214004517,-3.6804909706115723
1403715274937143000,-0.018970318138599396,0.016837207600474358,0.07020062208175659,9.065265655517578,9.090453386306763e-05,-3.737618923187256
1403715274942143000,-0.012705348432064056,0.009144281968474388,0.07018397748470306,9.089900016784668,-0.08173821866512299,-3.688758611679077
1403715274947143000,-0.0036581531167030334,0.020381107926368713,0.0806625485420227,9.008119583129883,0.16341978311538696,-3.696852684020996
1403715274952143000,-0.0050607845187187195,0.014796873554587364,0.09180676937103271,8.999943733215332,0.13876931369304657,-3.696892499923706
1403715274957143000,-0.0015300139784812927,0.023072225973010063,0.08763857185840607,9.253063201904297,-0.09822355210781097,-3.7947890758514404
1403715274962143000,0.003340400755405426,0.02659236267209053,0.08694970607757568,9.19589900970459,-0.0001257330150110647,-3.721303701400757
1403715274967143000,-0.0036591365933418274,0.021068718284368515,0.06882020831108093,8.959199905395508,0.1225966289639473,-3.5662240982055664
1403715274972143000,-0.0043701305985450745,0.010624393820762634,0.0708814412355423,8.926624298095703,0.1551840454339981,-3.607144594192505
1403715274977143000,0.0012227818369865417,0.006328750401735306,0.06598742306232452,9.098097801208496,-0.13897113502025604,-3.770507574081421
1403715274982143000,0.013801254332065582,0.018924610689282417,0.07855530083179474,9.269672393798828,0.01608426123857498,-3.7623507976531982
1403715274987143000,0.012384496629238129,0.023173026740550995,0.08205445110797882,9.13072681427002,0.1795908510684967,-3.7296316623687744
1403715274992143000,0.0025791004300117493,0.021873846650123596,0.09111779928207397,8.967331886291504,0.44118592143058777,-3.8520829677581787
1403715274997143000,-0.01473458856344223,0.027373729273676872,0.08694788813591003,9.310245513916016,0.26932430267333984,-3.843829393386841
1403715275002143000,-0.01897580176591873,0.04055383801460266,0.08143086731433868,8.950628280639648,0.049358900636434555,-3.5494632720947266
1403715275007143000,-0.016924284398555756,0.019587526097893715,0.07510703802108765,8.852636337280273,-0.12216810137033463,-3.5903842449188232
1403715275012143000,-0.008580587804317474,0.006355172023177147,0.07925458252429962,8.803720474243164,-0.0815042033791542,-3.623231887817383
1403715275017143000,0.005405895411968231,0.009107695892453194,0.0806407630443573,9.155263900756836,-0.17178401350975037,-3.6969895362854004
1403715275022143000,0.018658004701137543,0.022386880591511726,0.08066080510616302,9.196012496948242,-0.05732220783829689,-3.7377679347991943
1403715275027143000,0.019369520246982574,0.022467469796538353,0.06880004703998566,9.220699310302734,0.17141251266002655,-3.754213333129883
1403715275032143000,0.01309221237897873,0.03792458772659302,0.07303394377231598,9.179746627807617,0.4900810420513153,-3.762284755706787
1403715275037143000,-0.007842712104320526,0.033708274364471436,0.07163377106189728,8.942790985107422,0.408638596534729,-3.696749448776245
1403715275042143000,-0.018965236842632294,0.032249197363853455,0.06675523519515991,8.999918937683105,0.22895947098731995,-3.647702693939209
1403715275047143000,-0.021796323359012604,0.021061526611447334,0.082776740193367,8.828299522399902,0.11456731706857681,-3.549647331237793
1403715275052143000,-0.011335127055644989,0.00986861065030098,0.0855349749326706,8.975482940673828,-0.016442257910966873,-3.55804705619812
1403715275057143000,-0.006430245935916901,0.008449435234069824,0.08482244610786438,9.155282020568848,-0.07381229102611542,-3.6643075942993164
1403715275062143000,0.003336407244205475,0.016824567690491676,0.07159025967121124,9.179829597473145,-0.032815806567668915,-3.6561508178710938
1403715275067143000,0.008951567113399506,0.018937086686491966,0.06809563934803009,9.359599113464355,0.06507895886898041,-3.7950496673583984
1403715275072143000,0.008887462317943573,0.030902918428182602,0.07929259538650513,9.032707214355469,0.33489903807640076,-3.6560935974121094
1403715275077143000,-0.0008558109402656555,0.02881552278995514,0.07580147683620453,9.073575973510742,0.3594066798686981,-3.7050836086273193
1403715275082143000,-0.010636113584041595,0.023190541192889214,0.08068346977233887,8.90197467803955,0.2124243974685669,-3.549833059310913
1403715275087143000,-0.0071375444531440735,0.02240617759525776,0.08137698471546173,9.032544136047363,-0.03262786567211151,-3.598748207092285
1403715275092143000,0.00328623503446579,0.014073379337787628,0.10087636113166809,8.959023475646973,0.057041097432374954,-3.6233866214752197
1403715275097143000,-0.004376150667667389,0.012034658342599869,0.0834345817565918,8.926557540893555,0.20416231453418732,-3.647946357727051
1403715275102143000,-0.002219967544078827,0.007827280089259148,0.0848052054643631,9.2698335647583,0.1547202467918396,-3.746178150177002
1403715275107143000,-0.007120274007320404,0.01194736361503601,0.06599964201450348,9.130752563476562,-0.024556491523981094,-3.7541117668151855
1403715275112143000,-0.00014375895261764526,0.021814167499542236,0.0722884088754654,9.171581268310547,0.2940360903739929,-3.819437265396118
1403715275117143000,-0.0057607367634773254,0.021763823926448822,0.07091362774372101,8.893757820129395,0.12270761281251907,-3.574291467666626
1403715275122143000,-0.010577253997325897,0.019662583246827126,0.06601200997829437,9.212372779846191,0.13066311180591583,-3.827556610107422
1403715275127143000,-0.0057531073689460754,0.023060573264956474,0.07929100096225739,9.024272918701172,-0.15507248044013977,-3.5986602306365967
1403715275132143000,0.003314681351184845,0.019654616713523865,0.08484204113483429,9.065281867980957,0.08163811266422272,-3.713218927383423
1403715275137143000,0.006778262555599213,0.01269986666738987,0.08692178130149841,8.983721733093262,0.11420033872127533,-3.623507022857666
1403715275142143000,0.0005334839224815369,0.009987030178308487,0.08062659204006195,9.13917350769043,0.334614634513855,-3.762528419494629
1403715275147143000,-0.0029083266854286194,0.018982838839292526,0.07019075751304626,9.253297805786133,0.17955127358436584,-3.811306953430176
1403715275152143000,-0.005052872002124786,0.016897762194275856,0.06949138641357422,9.000003814697266,0.1798429787158966,-3.7540268898010254
1403715275157143000,-0.0064381882548332214,0.025252552703022957,0.07091812789440155,8.991785049438477,0.1390077769756317,-3.6314663887023926
1403715275162143000,-0.013400666415691376,0.015511274337768555,0.07855755090713501,9.065386772155762,0.1959797441959381,-3.7377498149871826
1403715275167143000,-0.006414689123630524,0.02587679587304592,0.08416281640529633,9.179483413696289,-0.05723714455962181,-3.7620487213134766
1403715275172143000,0.0033040866255760193,0.027963902801275253,0.0932409018278122,9.02413558959961,-0.08159635215997696,-3.6721529960632324
1403715275177143000,0.008873693645000458,0.02449995093047619,0.08695809543132782,8.991640090942383,-0.024465732276439667,-3.5906248092651367
1403715275182143000,0.0075153931975364685,0.020398752763867378,0.07786878943443298,9.15537166595459,0.2121630758047104,-3.672571897506714
1403715275187143000,0.007495321333408356,0.016918791458010674,0.07576358318328857,9.073623657226562,0.22865645587444305,-3.745999336242676
1403715275192143000,-0.0036384090781211853,0.021080980077385902,0.0632363110780716,9.057318687438965,0.16338501870632172,-3.615302324295044
1403715275197143000,-0.0036392733454704285,0.016201697289943695,0.0694865882396698,9.10623836517334,0.18788032233715057,-3.8030917644500732
1403715275202143000,-0.00990545004606247,0.02388330176472664,0.06812769174575806,9.057302474975586,0.20418983697891235,-3.598939895629883
1403715275207143000,-0.01127757877111435,0.025932978838682175,0.08485504984855652,9.204029083251953,0.11425809562206268,-3.7947633266448975
1403715275212143000,-0.010647393763065338,0.030094916000962257,0.08280481398105621,8.811809539794922,0.024830445647239685,-3.4678878784179688
1403715275217143000,-0.005039282143115997,0.01751396805047989,0.08345277607440948,9.114320755004883,-0.06547660380601883,-3.6315159797668457
1403715275222143000,0.006090007722377777,0.02173534408211708,0.08834271132946014,9.008063316345215,0.04078415408730507,-3.590684413909912
1403715275227143000,0.005386196076869965,0.009229190647602081,0.07366019487380981,8.975669860839844,0.15512016415596008,-3.648054361343384
1403715275232143000,0.0012238547205924988,0.015492886304855347,0.07088452577590942,9.040913581848145,0.13886196911334991,-3.7051093578338623
1403715275237143000,-0.0022573694586753845,0.013372782617807388,0.06391021609306335,9.040936470031738,0.057210203260183334,-3.6806182861328125
1403715275242143000,0.003365032374858856,0.01966986618936062,0.07855494320392609,9.29411506652832,0.15495112538337708,-3.8276426792144775
1403715275247143000,-0.0015944018959999084,0.02321498654782772,0.08416606485843658,8.8529691696167,0.277757465839386,-3.5580458641052246
1403715275252143000,-0.007112272083759308,0.01759156584739685,0.08831878006458282,9.171529769897461,0.17131802439689636,-3.7785964012145996
1403715275257143000,-0.009944431483745575,0.023812642320990562,0.08696088194847107,8.909832954406738,0.008371248841285706,-3.6312806606292725
1403715275262143000,-0.002224437892436981,0.024524353444576263,0.08764255046844482,9.220512390136719,0.06511969864368439,-3.6887030601501465
1403715275267143000,0.0012021735310554504,0.02176930569112301,0.07997389137744904,8.910029411315918,0.1390053778886795,-3.631462335586548
1403715275272143000,-0.0057621970772743225,0.009239492937922478,0.0715700089931488,8.951142311096191,0.18786843121051788,-3.6724820137023926
1403715275277143000,-0.00015264004468917847,0.01122523657977581,0.06529974937438965,9.163450241088867,-0.08995014429092407,-3.7623209953308105
1403715275282143000,0.006125442683696747,0.016158780083060265,0.07576353847980499,9.18797779083252,0.06517884135246277,-3.7460122108459473
1403715275287143000,0.0005694106221199036,0.02945307083427906,0.07161583006381989,9.204197883605957,0.21233466267585754,-3.7377140522003174
1403715275292143000,-0.006455563008785248,0.023929141461849213,0.08834552764892578,8.967350959777832,0.33486318588256836,-3.6642370223999023
1403715275297143000,-0.006426431238651276,0.0314977765083313,0.07720820605754852,9.056958198547363,0.06551355123519897,-3.6803383827209473
1403715275302143000,-0.005744613707065582,0.017530102282762527,0.09042240679264069,9.065183639526367,-0.0164188202470541,-3.7049667835235596
1403715275307143000,-0.003650747239589691,0.02594725787639618,0.07858888804912567,9.016240119934082,0.13077190518379211,-3.647792100906372
1403715275312143000,-0.002297215163707733,0.009944181889295578,0.07785192131996155,8.861231803894043,0.20422765612602234,-3.6152844429016113
1403715275317143000,-0.00713648647069931,0.007056327536702156,0.07366137206554413,9.081722259521484,-0.06546930223703384,-3.7459561824798584
1403715275322143000,0.001919277012348175,0.015418428927659988,0.07158821821212769,9.065288543701172,-0.06532027572393417,-3.7213826179504395
1403715275327143000,0.006852798163890839,0.02177196927368641,0.07507404685020447,9.310503959655762,0.1876295953989029,-3.8031787872314453
1403715275332143000,0.0005232766270637512,0.028841804713010788,0.07859869301319122,9.008340835571289,0.4164639711380005,-3.6072070598602295
1403715275337143000,-0.009892202913761139,0.025234149768948555,0.08137305080890656,9.163299560546875,0.09792185574769974,-3.6968154907226562
1403715275342143000,-0.007146231830120087,0.03007522039115429,0.07581809163093567,8.9425048828125,-0.02417031116783619,-3.623080015182495
1403715275347143000,0.0012423470616340637,0.024548951536417007,0.08137044310569763,9.12253475189209,0.12241708487272263,-3.647907257080078
1403715275352143000,0.0011946484446525574,0.021106300875544548,0.08136652410030365,8.87744140625,0.2288084626197815,-3.6070213317871094
1403715275357143000,-0.00436941534280777,0.010617690160870552,0.06809008121490479,8.926607131958008,0.13891257345676422,-3.623452663421631
1403715275362143000,-0.006437472999095917,0.0035742875188589096,0.06877078115940094,9.08999252319336,-0.057320382446050644,-3.721534490585327
1403715275367143000,0.0012433305382728577,0.014760985970497131,0.07506595551967621,9.15528678894043,0.048865385353565216,-3.729651927947998
1403715275372143000,0.005438573658466339,0.021132925525307655,0.08204570412635803,9.245185852050781,0.3346519470214844,-3.8032283782958984
1403715275377143000,-0.006439335644245148,0.0294879712164402,0.08277975022792816,9.008096694946289,0.29412275552749634,-3.6804704666137695
1403715275382143000,-0.014081023633480072,0.026619471609592438,0.08137834072113037,9.114173889160156,0.07354549318552017,-3.7212142944335938
1403715275387143000,-0.0064380839467048645,0.024515444412827492,0.0855606347322464,9.0406494140625,0.02454904280602932,-3.655898094177246
1403715275392143000,0.0012146160006523132,0.02802489884197712,0.08347673714160919,8.967113494873047,0.09000717103481293,-3.639561176300049
1403715275397143000,-0.0029446259140968323,0.021080074831843376,0.07439091801643372,9.073579788208008,0.1633128821849823,-3.6479380130767822
1403715275402143000,-0.005058608949184418,0.012654205784201622,0.0688001811504364,8.975512504577637,-0.01626979373395443,-3.6070568561553955
1403715275407143000,0.0012372806668281555,0.014733660966157913,0.06809449195861816,9.130712509155273,-0.02453451417386532,-3.770432710647583
1403715275412143000,0.008209474384784698,0.017619680613279343,0.0806397795677185,9.179790496826172,0.2530677914619446,-3.827681064605713
1403715275417143000,-0.0022268518805503845,0.03020579181611538,0.07301680743694305,9.163446426391602,0.35933271050453186,-3.7132883071899414
1403715275422143000,-0.016163833439350128,0.02666935697197914,0.07998272776603699,9.130622863769531,0.2205049842596054,-3.721308946609497
1403715275427143000,-0.017585404217243195,0.03077162802219391,0.07442691922187805,8.991547584533691,-0.0242052860558033,-3.6312203407287598
1403715275432143000,-0.0071334317326545715,0.027302512899041176,0.07650198042392731,9.024287223815918,0.024690037593245506,-3.6803507804870605
1403715275437143000,-0.0022773966193199158,0.02035962976515293,0.0792849212884903,8.918295860290527,0.08168455213308334,-3.492713212966919
1403715275442143000,-0.0036591365933418274,0.014756854623556137,0.06949582695960999,9.008164405822754,0.024569779634475708,-3.672380208969116
1403715275447143000,0.0019059255719184875,0.0112539641559124,0.07227692008018494,8.991826057434082,-0.024480773136019707,-3.6642467975616455
1403715275452143000,0.010984890162944794,0.011298516765236855,0.0792338103055954,9.130843162536621,0.11416696757078171,-3.762409210205078
1403715275457143000,0.0019878223538398743,0.019697044044733047,0.07925251126289368,9.359578132629395,0.23649227619171143,-3.7950687408447266
1403715275462143000,-0.005045212805271149,0.03090118244290352,0.07790452241897583,9.000011444091797,0.34311628341674805,-3.6478593349456787
1403715275467143000,-0.014088340103626251,0.02385766990482807,0.07858183979988098,9.0734224319458,0.1470644772052765,-3.713109016418457
1403715275472143000,-0.012026019394397736,0.025923192501068115,0.08766022324562073,8.94254207611084,0.06552070379257202,-3.647630214691162
1403715275477143000,-0.008529014885425568,0.02660130150616169,0.08277946710586548,9.024285316467285,0.008273846469819546,-3.639514446258545
1403715275482143000,-0.0029534921050071716,0.013344299048185349,0.08414101600646973,9.098081588745117,-0.032889917492866516,-3.5907814502716064
1403715275487143000,0.0004970207810401917,0.011940661817789078,0.0771678239107132,8.910014152526855,-0.05707212910056114,-3.631488561630249
1403715275492143000,0.008895985782146454,0.003593919798731804,0.07503849267959595,9.147313117980957,0.007866564206779003,-3.705345869064331
1403715275497143000,0.012398026883602142,0.018327005207538605,0.08064289391040802,9.220758438110352,0.27744656801223755,-3.762453079223633
1403715275502143000,-0.0001350119709968567,0.020422115921974182,0.06950253248214722,9.188104629516602,0.2857044041156769,-3.7052507400512695
1403715275507143000,-0.009208418428897858,0.028812512755393982,0.07649657130241394,9.114291191101074,0.37581220269203186,-3.8111555576324463
1403715275512143000,-0.013415418565273285,0.03083672560751438,0.07302702963352203,8.901800155639648,0.1718650609254837,-3.6312875747680664
1403715275517143000,-0.009225152432918549,0.029411040246486664,0.07859638333320618,8.999712944030762,0.08194317668676376,-3.729294538497925
1403715275522143000,-0.006472595036029816,0.02103222906589508,0.08137841522693634,8.836380958557129,0.02475889027118683,-3.565998077392578
1403715275527143000,-0.0022597983479499817,0.018912775442004204,0.07578396797180176,9.057071685791016,-0.04896169528365135,-3.6804873943328857
1403715275532143000,0.0025803372263908386,0.010549331083893776,0.07925662398338318,8.8773193359375,-0.04890240356326103,-3.615161657333374
1403715275537143000,0.010980956256389618,0.006400229409337044,0.07294708490371704,9.11455249786377,0.06517147272825241,-3.770620822906494
1403715275542143000,0.012396685779094696,0.020430736243724823,0.08483242988586426,9.220732688903809,0.31009793281555176,-3.7542850971221924
1403715275547143000,0.0005326643586158752,0.023233292624354362,0.07578426599502563,9.073627471923828,0.34302544593811035,-3.7214813232421875
1403715275552143000,-0.0133785679936409,0.02880551666021347,0.07719956338405609,9.13068962097168,0.3512098491191864,-3.7377054691314697
1403715275557143000,-0.016197718679904938,0.028046805411577225,0.08487546443939209,8.958969116210938,0.16351498663425446,-3.639505624771118
1403715275562143000,-0.014104969799518585,0.02450213022530079,0.07789136469364166,9.007898330688477,-0.007961704395711422,-3.721140146255493
1403715275567143000,-0.00437801331281662,0.01822701282799244,0.08206728100776672,8.893582344055176,-0.02433007024228573,-3.5987186431884766
1403715275572143000,0.001215510070323944,0.012642309069633484,0.07925467193126678,9.040816307067871,-0.040895722806453705,-3.6724188327789307
1403715275577143000,0.009568862617015839,0.009866973385214806,0.07924316823482513,9.01636791229248,-7.90759950177744e-05,-3.680666208267212
1403715275582143000,0.009574361145496368,0.009201457723975182,0.07574452459812164,9.04093074798584,0.09795332700014114,-3.770524501800537
1403715275587143000,0.008933179080486298,0.017624864354729652,0.07924582064151764,9.294283866882324,0.27738866209983826,-3.7951314449310303
1403715275592143000,-0.002936027944087982,0.02321954444050789,0.07369428873062134,9.122650146484375,0.31030458211898804,-3.713325023651123
1403715275597143000,-0.016168050467967987,0.027388008311390877,0.07580104470252991,9.106147766113281,0.2859170436859131,-3.7376515865325928
1403715275602143000,-0.013382114470005035,0.029413508251309395,0.07790040969848633,9.106023788452148,0.08992992341518402,-3.688541889190674
1403715275607143000,-0.01134306937456131,0.01196429505944252,0.07577309012413025,8.901893615722656,0.008305753581225872,-3.631458282470703
1403715275612143000,-0.004356257617473602,0.014738906174898148,0.08065937459468842,9.032651901245117,-0.0327344685792923,-3.6070427894592285
1403715275617143000,-0.00019041448831558228,0.011229157447814941,0.07925787568092346,8.983580589294434,-0.0980195477604866,-3.6315324306488037
1403715275622143000,0.006785817444324493,0.009140463545918465,0.07506139576435089,9.04088306427002,-0.0817638486623764,-3.6724820137023926
1403715275627143000,0.015183769166469574,0.00988798588514328,0.0757414847612381,9.228991508483887,0.08136641979217529,-3.7625043392181396
1403715275632143000,0.0047181472182273865,0.023943385109305382,0.080666184425354,9.122686386108398,0.3755740821361542,-3.7215490341186523
1403715275637143000,-0.005037836730480194,0.02600884810090065,0.07858540117740631,9.057225227355957,0.31036341190338135,-3.6887409687042236
1403715275642143000,-0.011997349560260773,0.02738206647336483,0.07580052316188812,9.065299034118652,0.26145583391189575,-3.7131388187408447
1403715275647143000,-0.012701563537120819,0.03358946740627289,0.07930624485015869,9.015995025634766,0.07379280030727386,-3.7210566997528076
1403715275652143000,-0.00994875282049179,0.023119600489735603,0.07999446988105774,8.86092472076416,0.008397973142564297,-3.508833408355713
1403715275657143000,-0.0022762492299079895,0.021721690893173218,0.083468958735466,8.950814247131348,8.769184205448255e-05,-3.57425594329834
1403715275662143000,0.005385465919971466,0.012602189555764198,0.07786668837070465,9.01624870300293,-0.15519419312477112,-3.623368740081787
1403715275667143000,0.013078935444355011,0.004284080117940903,0.07155318558216095,9.163694381713867,-0.008464708924293518,-3.680882692337036
1403715275672143000,0.010993458330631256,0.016921119764447212,0.07296949625015259,9.155364036560059,0.24492594599723816,-3.7787163257598877
1403715275677143000,0.004718981683254242,0.0232445877045393,0.07787694036960602,9.114564895629883,0.36739686131477356,-3.688915729522705
1403715275682143000,-0.005713127553462982,0.02461080439388752,0.07648603618144989,9.163434982299805,0.31029367446899414,-3.745948553085327
1403715275687143000,-0.015452094376087189,0.025969037786126137,0.074403315782547,9.187894821166992,0.21228772401809692,-3.7050445079803467
1403715275692143000,-0.013416953384876251,0.032183900475502014,0.0800071507692337,8.917953491210938,0.033039163798093796,-3.647512912750244
1403715275697143000,-0.010640420019626617,0.022421222180128098,0.07719813287258148,8.893616676330566,0.00840600486844778,-3.5660040378570557
1403715275702143000,-0.0015666857361793518,0.015409057959914207,0.0771746039390564,9.065306663513184,-0.1062203049659729,-3.623359203338623
1403715275707143000,0.010265089571475983,0.013326006010174751,0.07716275751590729,9.016286849975586,-0.07351336628198624,-3.6724236011505127
1403715275712143000,0.013774596154689789,0.009884223341941833,0.07365158200263977,9.147205352783203,0.06516898423433304,-3.778761148452759
1403715275717143000,0.013047866523265839,0.019737156108021736,0.08344003558158875,9.000069618225098,0.3022191822528839,-3.737816333770752
1403715275722143000,-0.00015700608491897583,0.023225964978337288,0.07717819511890411,9.106283187866211,0.32665738463401794,-3.7378063201904297
1403715275727143000,-0.011262677609920502,0.021825235337018967,0.07996399700641632,9.277800559997559,0.3346392512321472,-3.803175926208496
1403715275732143000,-0.017552457749843597,0.030172478407621384,0.0799969881772995,9.130684852600098,0.2694762349128723,-3.656015396118164
1403715275737143000,-0.017605222761631012,0.02660735696554184,0.0779033899307251,8.885340690612793,0.03303098306059837,-3.63938307762146
1403715275742143000,-0.011345900595188141,0.014733750373125076,0.07996951043605804,8.893620491027832,-0.048841290175914764,-3.5987131595611572
1403715275747143000,-0.0008672401309013367,0.011890290305018425,0.07856026291847229,9.130674362182617,-0.19617097079753876,-3.6805579662323
1403715275752143000,0.007481925189495087,0.011965969577431679,0.07924503087997437,9.024491310119629,0.024465074762701988,-3.72961688041687
1403715275757143000,0.010982133448123932,0.019677087664604187,0.06949272751808167,9.081706047058105,0.15524618327617645,-3.770430326461792
1403715275762143000,0.01097279042005539,0.020440615713596344,0.07507672905921936,9.049189567565918,0.3184909522533417,-3.6888928413391113
1403715275767143000,-0.002936132252216339,0.01974085345864296,0.07786732912063599,9.14720630645752,0.3265429735183716,-3.7297239303588867
1403715275772143000,-0.011258162558078766,0.027396902441978455,0.08067925274372101,9.269620895385742,0.31831109523773193,-3.7296385765075684
1403715275777143000,-0.017601244151592255,0.02665604278445244,0.08069181442260742,8.893662452697754,0.171742245554924,-3.5986688137054443
1403715275782143000,-0.015505008399486542,0.020331107079982758,0.08555065095424652,8.9915771484375,0.024621620774269104,-3.737506151199341
1403715275787143000,-0.014813818037509918,0.012643778696656227,0.07648088037967682,8.975481033325195,-0.05717230960726738,-3.533491611480713
1403715275792143000,-0.002240993082523346,0.014016954228281975,0.07855822145938873,9.187926292419434,-0.0900547057390213,-3.69693922996521
1403715275797143000,0.006787650287151337,0.01192391850054264,0.07436791062355042,9.048965454101562,-0.08987829834222794,-3.7377562522888184
1403715275802143000,0.011673517525196075,0.016893843188881874,0.0722757875919342,9.065428733825684,0.16336165368556976,-3.7459840774536133
1403715275807143000,0.014468394219875336,0.026003312319517136,0.07787914574146271,9.098109245300293,0.2858192026615143,-3.6969993114471436
1403715275812143000,-0.004330627620220184,0.022588662803173065,0.08624784648418427,9.188154220581055,0.48973214626312256,-3.7298641204833984
1403715275817143000,-0.014747925102710724,0.03575082868337631,0.08349175751209259,9.212215423583984,0.29399600625038147,-3.7375895977020264
1403715275822143000,-0.020371101796627045,0.02870885841548443,0.07512021064758301,8.97531509399414,0.05742019787430763,-3.598625659942627
1403715275827143000,-0.012723080813884735,0.02798469364643097,0.0779028981924057,8.934284210205078,-0.01599102094769478,-3.704709768295288
1403715275832143000,-0.005061544477939606,0.01891784369945526,0.0723077803850174,8.95089054107666,-0.0488542877137661,-3.549781560897827
1403715275837143000,0.005427278578281403,0.0195771437138319,0.07438233494758606,9.212308883666992,-0.12263759225606918,-3.8193819522857666
1403715275842143000,0.014476366341114044,0.022382033988833427,0.07368974387645721,9.171487808227539,-0.07355125993490219,-3.7540626525878906
1403715275847143000,0.015883810818195343,0.03358830511569977,0.07440882921218872,9.187665939331055,0.08177290111780167,-3.8192708492279053
1403715275852143000,0.01234840601682663,0.03374704346060753,0.08557751774787903,8.975549697875977,0.4737648069858551,-3.680631637573242
1403715275857143000,-0.00846806913614273,0.02950720489025116,0.07580256462097168,9.294053077697754,0.3837529420852661,-3.8194327354431152
1403715275862143000,-0.016883663833141327,0.03645600378513336,0.0821116715669632,8.96719741821289,0.294194757938385,-3.5987045764923096
1403715275867143000,-0.02109304815530777,0.025858787819743156,0.0786079615354538,8.90975284576416,-0.13032789528369904,-3.6148006916046143
1403715275872143000,-0.014812566339969635,0.01750405877828598,0.07718732953071594,8.991660118103027,-0.10606741160154343,-3.606865882873535
1403715275877143000,0.005394868552684784,0.016787661239504814,0.07996691763401031,9.065254211425781,-0.14706309139728546,-3.6315131187438965
1403715275882143000,0.012427069246768951,0.018879560753703117,0.07506994903087616,9.384073257446289,-0.09835826605558395,-3.803169012069702
1403715275887143000,0.01934119313955307,0.03294800966978073,0.08138340711593628,9.065220832824707,0.21245281398296356,-3.713175058364868
1403715275892143000,0.007487528026103973,0.028831511735916138,0.07649551331996918,9.024569511413574,0.39212507009506226,-3.7132625579833984
1403715275897143000,-0.008482955396175385,0.03300224244594574,0.07720901072025299,9.22050952911377,0.40016767382621765,-3.778547525405884
1403715275902143000,-0.018297769129276276,0.026691103354096413,0.07371394336223602,8.893765449523926,0.27794575691223145,-3.6395490169525146
1403715275907143000,-0.016879014670848846,0.021669378504157066,0.07649374008178711,9.122326850891113,-0.14698533713817596,-3.7130126953125
1403715275912143000,-0.008546419441699982,0.018840359523892403,0.07370533049106598,9.040589332580566,-0.2694048285484314,-3.655824899673462
1403715275917143000,0.008961908519268036,0.025157717987895012,0.06950655579566956,9.424784660339355,-0.07376519590616226,-3.884735584259033
1403715275922143000,0.018091656267642975,0.05104193091392517,0.07723569869995117,9.644953727722168,0.26933956146240234,-3.9171009063720703
1403715275927143000,0.002002827823162079,0.08527166396379471,0.07038065791130066,9.219280242919922,0.4174376428127289,-4.006295680999756
1403715275932143000,-0.018288202583789825,0.07126426696777344,0.063377246260643,8.607223510742188,0.23803582787513733,-3.565258026123047
1403715275937143000,-0.020389728248119354,0.05036278814077377,0.07448437809944153,8.721826553344727,0.22124294936656952,-3.541116714477539
1403715275942143000,-0.015539921820163727,0.03561554476618767,0.07654410600662231,8.729732513427734,-0.12995705008506775,-3.59822678565979
1403715275947143000,-0.0008623525500297546,0.023171158507466316,0.09321653842926025,9.081518173217773,0.16328740119934082,-3.737671375274658
1403715275952143000,0.004029206931591034,0.04127027839422226,0.08908343315124512,9.097643852233887,0.09812242537736893,-3.6639490127563477
1403715275957143000,0.0005215927958488464,0.0349704772233963,0.07653126120567322,8.950704574584961,0.008450689725577831,-3.5333075523376465
1403715275962143000,0.0026018545031547546,0.021765489131212234,0.06674656271934509,8.869399070739746,0.09798165410757065,-3.3540284633636475
1403715275967143000,0.006101138889789581,0.006341509521007538,0.07297059893608093,9.11461353302002,-0.12277793139219284,-3.525599956512451
1403715275972143000,0.013093911111354828,0.012724941596388817,0.08272598683834076,9.22092342376709,0.19556157290935516,-3.640089750289917
1403715275977143000,0.004109703004360199,0.030903009697794914,0.08556176722049713,9.474023818969727,0.407821923494339,-3.7216320037841797
1403715275982143000,-0.014004327356815338,0.04823131114244461,0.07654702663421631,9.37531852722168,0.13891957700252533,-3.810816764831543
1403715275987143000,-0.016942523419857025,0.02870774082839489,0.07165251672267914,8.566691398620605,0.06599655002355576,-3.3860490322113037
1403715275992143000,-0.004322551190853119,0.017472540959715843,0.0771799385547638,9.253397941589355,-0.17994585633277893,-3.5580389499664307
1403715275997143000,0.009565837681293488,0.031524136662483215,0.09324413537979126,8.934320449829102,0.1227068156003952,-3.6721746921539307
1403715276002143000,0.006108559668064117,0.020535368472337723,0.10575877130031586,9.278064727783203,0.5875335931777954,-3.8198695182800293
1403715276007143000,-0.024529598653316498,0.037232980132102966,0.0890936553478241,9.11439323425293,0.538911759853363,-3.6806046962738037
1403715276012143000,-0.0406959131360054,-0.006237488240003586,0.07507218420505524,8.427594184875488,-0.16272883117198944,-3.549243211746216
1403715276017143000,-0.02798905223608017,-0.0034741517156362534,0.06319192051887512,9.392502784729004,-0.3190632462501526,-3.7052671909332275
1403715276022143000,0.00680118054151535,0.013169927522540092,0.07229021191596985,9.343222618103027,-0.5147862434387207,-3.664108991622925
1403715276027143000,0.03327181190252304,0.04255986586213112,0.055612314492464066,9.114069938659668,-0.17113198339939117,-3.704874038696289
1403715276032143000,0.03251918405294418,0.02109094336628914,0.04717690125107765,8.65674114227295,0.18009188771247864,-3.46815824508667
1403715276037143000,0.02341366559267044,0.01012151688337326,0.06387582421302795,8.755529403686523,0.6533280611038208,-3.6237640380859375
1403715276042143000,0.005250610411167145,0.0018637068569660187,0.07993544638156891,8.788900375366211,0.9139352440834045,-3.5918474197387695
1403715276047143000,-0.027257047593593597,0.023959100246429443,0.08555752038955688,9.400260925292969,0.4978497624397278,-3.8685665130615234
1403715276052143000,-0.04344857484102249,0.016129057854413986,0.08141344785690308,8.43594741821289,0.0006844490999355912,-3.2633936405181885
1403715276057143000,-0.02115621417760849,-0.03201525658369064,0.09385170042514801,8.746865272521973,-0.2128036469221115,-3.296872138977051
1403715276062143000,-0.00024012476205825806,-0.014582255855202675,0.09734907746315002,8.820228576660156,-0.15547902882099152,-3.4683423042297363
1403715276067143000,0.010992564260959625,-0.036797717213630676,0.10629603266716003,9.35229778289795,0.12123167514801025,-3.7796502113342285
1403715276072143000,0.009635917842388153,0.005673473700881004,0.07433778047561646,9.3516263961792,0.007684244308620691,-3.770721197128296
1403715276077143000,0.005358405411243439,-0.0026159193366765976,0.06177166476845741,8.83692741394043,0.17971067130565643,-3.615424633026123
1403715276082143000,-0.0014905110001564026,0.002291640266776085,0.07572130858898163,9.408964157104492,0.293395072221756,-3.8117363452911377
1403715276087143000,-0.0015494003891944885,0.012763163074851036,0.08760416507720947,9.171722412109375,0.31827789545059204,-3.811433792114258
1403715276092143000,-0.007129855453968048,0.05373311787843704,0.06611368060112,8.9829740524292,-0.1299765408039093,-3.7452428340911865
1403715276097143000,0.005338780581951141,0.009863724932074547,0.07577422261238098,8.656631469726562,-0.007806326728314161,-3.5170390605926514
1403715276102143000,-0.005018897354602814,0.00014220736920833588,0.05827823653817177,9.212583541870117,0.14683827757835388,-3.991102457046509
1403715276107143000,-0.012818001210689545,0.010079963132739067,0.07993511855602264,8.747174263000488,0.620793879032135,-3.7542173862457275
1403715276112143000,-0.025866813957691193,0.02245589904487133,0.0778714120388031,9.359126091003418,0.17949308454990387,-3.9826080799102783
1403715276117143000,-0.019056789577007294,0.0313425287604332,0.08076196908950806,8.516963005065918,-0.4153173267841339,-3.254809856414795
1403715276122143000,0.008184470236301422,-0.013252178207039833,0.08198735117912292,9.163681030273438,-0.3111785054206848,-3.9913880825042725
1403715276127143000,0.019328318536281586,0.023244798183441162,0.07926793396472931,9.04919147491455,0.3510732352733612,-3.648122787475586
1403715276132143000,0.012394674122333527,0.0197908915579319,0.09040413796901703,9.326763153076172,0.4980270266532898,-4.02377986907959
1403715276137143000,-0.0057357922196388245,0.06006664037704468,0.08287528157234192,8.901290893554688,0.03330669179558754,-3.5410611629486084
1403715276142143000,-0.00021680444478988647,0.011935509741306305,0.08067110180854797,8.787407875061035,-0.08149551600217819,-3.4599430561065674
1403715276147143000,0.0027189478278160095,0.019638387486338615,0.08552125096321106,9.522929191589355,0.09742308408021927,-3.827674150466919
1403715276152143000,0.0011468306183815002,0.023971326649188995,0.09392918646335602,8.697754859924316,0.44942858815193176,-3.631488561630249
1403715276157143000,-0.012524493038654327,0.045439139008522034,0.07653500139713287,9.701848030090332,0.22031404078006744,-4.047630786895752
1403715276162143000,-0.017627201974391937,0.03641483187675476,0.07377573847770691,8.574966430664062,0.1801462173461914,-3.2719109058380127
1403715276167143000,-0.01684579998254776,-0.0040596481412649155,0.05619988217949867,9.24553394317627,0.024142857640981674,-3.7381386756896973
1403715276172143000,-0.008558817207813263,0.014079021289944649,0.06741200387477875,8.84476375579834,0.06553669273853302,-3.533472776412964
1403715276177143000,0.0020127519965171814,-0.0034091994166374207,0.07430858910083771,9.515092849731445,-0.03345250338315964,-3.999469518661499
1403715276182143000,0.003359951078891754,0.04330955445766449,0.06119338050484657,9.220208168029785,-0.016039211302995682,-3.7782511711120605
1403715276187143000,0.004669450223445892,0.009265340864658356,0.05413924530148506,8.787896156311035,0.2369060516357422,-3.4602696895599365
1403715276192143000,-0.002961672842502594,0.006466710940003395,0.05970527604222298,9.008522033691406,0.22043444216251373,-3.6318185329437256
1403715276197143000,-0.00019656866788864136,-0.005381442606449127,0.08059288561344147,8.992267608642578,0.22836489975452423,-3.6727898120880127
1403715276202143000,0.0006615743041038513,0.024543317034840584,0.09040525555610657,9.628949165344238,0.21175003051757812,-3.9255759716033936
1403715276207143000,0.0004978552460670471,0.034964874386787415,0.09327247738838196,8.827985763549805,0.00032973886118270457,-3.508680820465088
1403715276212143000,-0.0071435049176216125,0.01617250218987465,0.0904163271188736,9.024404525756836,0.0897950604557991,-3.7295053005218506
1403715276217143000,-0.014145545661449432,0.018275845795869827,0.07161688804626465,8.722168922424316,0.11462536454200745,-3.4516963958740234
1403715276222143000,-0.00018028169870376587,-0.0019472502171993256,0.09664596617221832,9.090128898620605,0.08933557569980621,-3.6482300758361816
1403715276227143000,0.006216131150722504,0.03214837983250618,0.10575756430625916,9.637127876281738,0.02374630980193615,-3.786560535430908
1403715276232143000,0.0025728121399879456,0.028740212321281433,0.0918579250574112,8.746413230895996,0.13919003307819366,-3.56593918800354
1403715276237143000,0.006794176995754242,0.014106348156929016,0.0820428878068924,9.049172401428223,0.14683689177036285,-3.6235649585723877
1403715276242143000,0.00257689505815506,0.021730363368988037,0.06672665476799011,8.770997047424316,0.04130315035581589,-3.623122215270996
1403715276247143000,0.004005588591098785,-0.003281140699982643,0.06874459981918335,9.065912246704102,0.24466608464717865,-3.6402266025543213
1403715276252143000,0.0013696029782295227,0.0322735533118248,0.07998377084732056,9.637078285217285,0.40794917941093445,-3.917428493499756
1403715276257143000,-0.01623757928609848,0.03647590056061745,0.07443530857563019,8.697604179382324,0.3844233751296997,-3.6229748725891113
1403715276262143000,-0.023927800357341766,0.003653222694993019,0.06110422685742378,8.616122245788574,0.18823371827602386,-3.541494131088257
1403715276267143000,-0.01754758507013321,0.015381215140223503,0.061835113912820816,9.269683837890625,-0.18797743320465088,-3.664224147796631
1403715276272143000,-0.0008878633379936218,7.190927863121033e-05,0.06039774790406227,8.975625991821289,-0.10617715120315552,-3.6398749351501465
1403715276277143000,0.0034732595086097717,0.015423109754920006,0.06529313325881958,9.719209671020508,0.06468810886144638,-3.9094650745391846
1403715276282143000,0.0005421116948127747,0.05596698820590973,0.07588531076908112,8.942469596862793,0.2699255049228668,-3.5495381355285645
1403715276287143000,-0.007906831800937653,0.009903650730848312,0.07438157498836517,8.575037002563477,0.1065477803349495,-3.459794759750366
1403715276292143000,-0.008523665368556976,0.005679376423358917,0.08272266387939453,9.122647285461426,-0.024805182591080666,-3.672513961791992
1403715276297143000,0.006078086793422699,-0.008265592157840729,0.09175163507461548,9.049272537231445,-0.024964867159724236,-3.6890721321105957
1403715276302143000,0.013898856937885284,0.01754721812903881,0.09455975890159607,9.68624496459961,0.14624305069446564,-4.015488624572754
1403715276307143000,0.0032892897725105286,0.048318542540073395,0.08701835572719574,8.787184715270996,0.31906208395957947,-3.639301300048828
1403715276312143000,-0.012036480009555817,0.009301229380071163,0.09249532222747803,8.992115020751953,0.35090821981430054,-3.6481595039367676
1403715276317143000,-0.01758279651403427,0.020306797698140144,0.08625559508800507,9.073349952697754,-0.05722809210419655,-3.6150355339050293
1403715276322143000,-0.010705314576625824,-0.004780968651175499,0.09178854525089264,8.640308380126953,-0.01617509312927723,-3.5987179279327393
1403715276327143000,0.0027234628796577454,-0.008997583761811256,0.0972965806722641,9.662363052368164,-0.0665564313530922,-3.860736846923828
1403715276332143000,0.014600448310375214,0.052352458238601685,0.0869937539100647,9.65298080444336,0.016068344935774803,-3.9822793006896973
1403715276337143000,0.008153624832630157,0.030834175646305084,0.06675636768341064,8.713866233825684,0.13930056989192963,-3.476167917251587
1403715276342143000,-0.00291568785905838,0.014834349974989891,0.04997115209698677,9.171971321105957,0.23671892285346985,-3.6237430572509766
1403715276347143000,-0.005804382264614105,0.014791982248425484,0.06878907978534698,8.697569847106934,0.16384334862232208,-3.7210724353790283
1403715276352143000,-0.004269547760486603,-0.006139345467090607,0.06872822344303131,9.433513641357422,0.10550307482481003,-3.8525941371917725
1403715276357143000,-0.0007705762982368469,0.0322546549141407,0.07440637052059174,9.432814598083496,0.30203312635421753,-3.876525640487671
1403715276362143000,-0.009960897266864777,0.04060972109436989,0.07443949580192566,8.705512046813965,0.24578556418418884,-3.7044825553894043
1403715276367143000,-0.018250219523906708,0.02728823386132717,0.05629848316311836,9.122696876525879,-0.04077364131808281,-3.4600400924682617
1403715276372143000,-0.011365868151187897,0.014039307832717896,0.06532371044158936,8.730205535888672,-0.03223569691181183,-3.5414490699768066
1403715276377143000,-0.005089975893497467,-0.0026807375252246857,0.06665875017642975,8.861181259155273,0.008236462250351906,-3.729602336883545
1403715276382143000,-0.0007727369666099548,0.012635568156838417,0.0917765200138092,9.531144142150879,-0.0007476806640625,-3.8522090911865234
1403715276387143000,0.004742227494716644,0.034310027956962585,0.08975279331207275,9.204004287719727,0.14693611860275269,-3.7457547187805176
1403715276392143000,0.0033078715205192566,0.0308295376598835,0.08767259120941162,8.975356101989746,0.1306978017091751,-3.5416383743286133
1403715276397143000,0.0032996758818626404,0.028731321915984154,0.08906868100166321,8.934534072875977,0.10614269226789474,-3.468169927597046
1403715276402143000,0.0004623904824256897,0.0014874991029500961,0.07366050779819489,8.70574951171875,-0.04061242192983627,-3.574272394180298
1403715276407143000,0.005394108593463898,-0.004720166325569153,0.07710650563240051,9.065739631652832,0.13851872086524963,-3.713610887527466
1403715276412143000,0.0075800493359565735,0.0210788045078516,0.089006707072258,9.465653419494629,0.22822076082229614,-3.893005609512329
1403715276417143000,0.0005406960844993591,0.029443155974149704,0.0890449732542038,9.097739219665527,0.1797923743724823,-3.8437082767486572
1403715276422143000,-0.014780096709728241,0.03366364538669586,0.07861791551113129,9.040834426879883,0.2777167856693268,-3.582493305206299
1403715276427143000,-0.014786861836910248,0.02944069914519787,0.07302834093570709,9.016288757324219,0.15530328452587128,-3.58243727684021
1403715276432143000,-0.007208250463008881,0.009077074006199837,0.07510453462600708,8.656379699707031,-0.2853538691997528,-3.386117935180664
1403715276437143000,-0.00012581795454025269,-0.0006813835352659225,0.05550969019532204,9.343506813049316,-0.23729676008224487,-3.8279147148132324
1403715276442143000,0.01936163753271103,0.018974240869283676,0.071574866771698,9.20429801940918,0.1551097184419632,-3.835836172103882
1403715276447143000,0.018650569021701813,0.026074353605508804,0.08484245836734772,9.236932754516602,0.4981885552406311,-3.94203782081604
1403715276452143000,-0.005011923611164093,0.04140358790755272,0.07235941290855408,9.138893127441406,0.49008408188819885,-3.6887364387512207
1403715276457143000,-0.025996215641498566,0.02530197985470295,0.07441407442092896,8.689552307128906,0.3189392685890198,-3.5659141540527344
1403715276462143000,-0.021113909780979156,0.015352325513958931,0.07580678164958954,8.877096176147461,-0.2936948835849762,-3.5086276531219482
1403715276467143000,-0.0022309347987174988,0.0055682118982076645,0.07575154304504395,9.343302726745605,-0.3271934688091278,-3.795037269592285
1403715276472143000,0.016576401889324188,0.014760063961148262,0.08063103258609772,9.228801727294922,0.06511130183935165,-3.8522067070007324
1403715276477143000,0.014680348336696625,0.048264533281326294,0.08559265732765198,9.90597915649414,0.39982515573501587,-4.153748989105225
1403715276482143000,-0.0036393925547599792,0.06224557012319565,0.07031510770320892,8.90954303741455,0.31113043427467346,-3.7370896339416504
1403715276487143000,-0.013371966779232025,0.041984230279922485,0.06747706234455109,9.081463813781738,0.16367270052433014,-3.663944959640503
1403715276492143000,-0.002240516245365143,0.04742637649178505,0.06888820230960846,9.1629056930542,-0.24462994933128357,-3.6555497646331787
1403715276497143000,0.02001497894525528,0.027974307537078857,0.08835545182228088,8.975165367126465,-0.05701839178800583,-3.696758270263672
1403715276502143000,0.0263122096657753,0.04704216122627258,0.10164691507816315,9.220458030700684,0.6043106913566589,-3.819509267807007
1403715276507143000,-0.0016015693545341492,0.04918341338634491,0.08494754135608673,8.95106029510498,0.7596758604049683,-3.7378053665161133
1403715276512143000,-0.023833103477954865,0.03084348328411579,0.08139055967330933,9.081419944763184,0.20437318086624146,-3.7701337337493896
1403715276517143000,-0.026650898158550262,0.032110027968883514,0.06747113168239594,8.991474151611328,-0.21187299489974976,-3.5493950843811035
1403715276522143000,0.0025733932852745056,0.025089969858527184,0.07932022213935852,8.860648155212402,-0.35072073340415955,-3.3697471618652344
1403715276527143000,0.03048057109117508,0.009789111092686653,0.08970025181770325,9.212648391723633,-0.1882774531841278,-3.5746536254882812
1403715276532143000,0.024931661784648895,0.03650960326194763,0.07930970191955566,9.155438423156738,0.4080938398838043,-3.5665221214294434
1403715276537143000,-0.0072545334696769714,0.004633678123354912,0.06810031831264496,8.764383316040039,0.873016357421875,-3.4611265659332275
1403715276542143000,-0.04197888821363449,-0.0003969762474298477,0.055536214262247086,8.951826095581055,0.4814456105232239,-3.5259785652160645
1403715276547143000,-0.04272887855768204,-0.0026600025594234467,0.076478973031044,8.673351287841797,0.008202656172215939,-3.2966034412384033
1403715276552143000,-0.01758980005979538,-0.007090581580996513,0.08620312809944153,9.48234748840332,-0.7358207106590271,-3.7130424976348877
1403715276557143000,0.01162547618150711,0.03272370994091034,0.09187862277030945,8.942071914672852,-0.4406670033931732,-3.549269914627075
1403715276562143000,0.032505787909030914,0.004963649436831474,0.07156878709793091,8.697565078735352,-0.06517168879508972,-3.5009400844573975
1403715276567143000,0.03882288187742233,0.015577824786305428,0.07086677849292755,9.049394607543945,0.35105594992637634,-3.6646060943603516
1403715276572143000,0.022044353187084198,0.010102367028594017,0.07504785060882568,8.845410346984863,0.5959802269935608,-3.6075599193573
1403715276577143000,-0.01133698970079422,0.02470969222486019,0.06951621174812317,9.065475463867188,0.6044930815696716,-3.8684747219085693
1403715276582143000,-0.021142639219760895,0.01625855080783367,0.08764293789863586,8.656937599182129,0.3595733046531677,-3.5578882694244385
1403715276587143000,-0.026701949536800385,-0.009681034833192825,0.08271323144435883,8.812047004699707,-0.10622899234294891,-3.6151745319366455
1403715276592143000,-0.013425849378108978,0.0008512623608112335,0.09944985806941986,9.024630546569824,0.11393521726131439,-3.6154210567474365
1403715276597143000,-0.01545221358537674,0.014740638434886932,0.08134633302688599,9.269615173339844,-0.008497347123920918,-3.7214293479919434
1403715276602143000,-0.013394184410572052,0.018197378143668175,0.061847392469644547,9.09807014465332,-0.11427364498376846,-3.5661721229553223
1403715276607143000,-0.007180891931056976,0.009123211726546288,0.06880584359169006,8.82010555267334,-0.1467708796262741,-3.525224447250366
1403715276612143000,0.008895330131053925,0.009163698181509972,0.07923579216003418,9.147184371948242,-0.008422506041824818,-3.7134063243865967
1403715276617143000,0.019387520849704742,0.023823609575629234,0.08135183155536652,9.335058212280273,0.081326924264431,-3.737865447998047
1403715276622143000,0.013808272778987885,0.04474620521068573,0.06328433752059937,9.203909873962402,0.10645541548728943,-3.7864670753479004
1403715276627143000,0.0026429370045661926,0.034357763826847076,0.055598486214876175,9.065422058105469,0.2615310251712799,-3.607060432434082
1403715276632143000,-0.004380427300930023,0.01556515134871006,0.0799439400434494,8.951065063476562,0.3513219952583313,-3.803065538406372
1403715276637143000,-0.014115206897258759,0.019783761352300644,0.08973026275634766,9.032856941223145,0.44088050723075867,-3.7052204608917236
1403715276642143000,-0.01687368005514145,0.0432983860373497,0.08630575239658356,9.064674377441406,-0.0731695368885994,-3.818833351135254
1403715276647143000,-0.007199503481388092,0.0007180199027061462,0.07855944335460663,8.787300109863281,-0.2611798346042633,-3.533369541168213
1403715276652143000,-0.0028782710433006287,-0.004062460735440254,0.0701272189617157,9.433390617370605,0.07286520302295685,-3.9096806049346924
1403715276657143000,-0.005827717483043671,0.007229913026094437,0.09528122842311859,8.738812446594238,0.41649654507637024,-3.631694793701172
1403715276662143000,-0.010518036782741547,0.005653956905007362,0.09594643115997314,9.580276489257812,-0.04178118333220482,-3.8359360694885254
1403715276667143000,-0.0023176297545433044,0.02439984492957592,0.08560329675674438,8.746114730834961,-0.32614007592201233,-3.345136880874634
1403715276672143000,0.019441135227680206,-0.005595432594418526,0.06524519622325897,9.654397010803223,-0.27867087721824646,-4.024141788482666
1403715276677143000,0.02007206529378891,0.0357871875166893,0.06883427500724792,9.24499225616455,0.38395047187805176,-3.835700511932373
1403715276682143000,0.005353353917598724,0.02335692197084427,0.07997184991836548,9.03300952911377,0.6697145104408264,-3.852354049682617
1403715276687143000,-0.011952541768550873,0.06358489394187927,0.07659533619880676,9.1463623046875,0.17202365398406982,-3.7370920181274414
1403715276692143000,-0.01277565211057663,0.009193044155836105,0.07509618997573853,8.591409683227539,0.04927084222435951,-3.3292274475097656
1403715276697143000,-0.007009260356426239,0.01822560280561447,0.0660010427236557,9.5635347366333,0.07310367375612259,-4.080721378326416
1403715276702143000,-0.012058965861797333,0.02177918143570423,0.06741549074649811,8.746593475341797,0.20469160377979279,-3.680222749710083
1403715276707143000,-0.009809829294681549,0.03916291147470474,0.06884920597076416,9.465195655822754,0.13883188366889954,-3.966120719909668
1403715276712143000,-0.005060233175754547,0.045395202934741974,0.07100865244865417,8.787261009216309,-0.08930979669094086,-3.239168167114258
1403715276717143000,0.006868086755275726,-0.0040612779557704926,0.07918331027030945,9.441596984863281,0.0809856429696083,-3.926039218902588
1403715276722143000,-0.00021111220121383667,0.03512130305171013,0.08558519184589386,8.820174217224121,0.44133269786834717,-3.6640453338623047
1403715276727143000,-0.004310734570026398,0.040617965161800385,0.09047423303127289,9.171298027038574,0.24502058327198029,-3.6967051029205322
1403715276732143000,-0.007848314940929413,0.04332837462425232,0.08633576333522797,8.83623218536377,-0.00783567875623703,-3.3371541500091553
1403715276737143000,-0.0057807788252830505,0.013382000848650932,0.08067202568054199,8.812092781066895,0.05721122398972511,-3.435539484024048
1403715276742143000,0.004753075540065765,0.030818291008472443,0.09183232486248016,9.269372940063477,0.1304929107427597,-3.7702808380126953
1403715276747143000,0.012399174273014069,0.03643834590911865,0.09255069494247437,9.179618835449219,0.23669853806495667,-3.6478750705718994
1403715276752143000,0.008880160748958588,0.05029487609863281,0.07657018303871155,8.893229484558105,-0.023913223296403885,-3.5575644969940186
1403715276757143000,0.0025700554251670837,0.02324279025197029,0.0632648766040802,8.632513046264648,0.3348585069179535,-3.272412061691284
1403715276762143000,0.0033660009503364563,0.015552699565887451,0.07924263179302216,9.318832397460938,0.32634487748146057,-3.803333044052124
1403715276767143000,-0.009226836264133453,0.02460028976202011,0.08554455637931824,9.056928634643555,0.294223815202713,-3.9090304374694824
1403715276772143000,-0.018985606729984283,0.03500363230705261,0.08282066881656647,8.893647193908691,0.11450926959514618,-3.4271438121795654
1403715276777143000,-0.021806232631206512,-0.002050662413239479,0.06465080380439758,8.689921379089355,-0.2532796859741211,-2.921154260635376
1403715276782143000,0.002722404897212982,-0.017368445172905922,0.08543366193771362,9.670949935913086,-0.09111583977937698,-3.6976168155670166
1403715276787143000,0.002687521278858185,0.018968068063259125,0.08760713040828705,9.391971588134766,0.16299138963222504,-3.9908602237701416
1403715276792143000,-0.0113530233502388,0.018953483551740646,0.07580943405628204,8.763030052185059,0.049179792404174805,-3.3945672512054443
1403715276797143000,-0.0036718323826789856,-0.0006541144102811813,0.06809230148792267,9.000284194946289,-0.21255941689014435,-3.370380401611328
1403715276802143000,0.011736325919628143,-0.011047044768929482,0.07290920615196228,9.42579460144043,0.015360821969807148,-3.5670390129089355
1403715276807143000,0.015248171985149384,0.030976729467511177,0.08556601405143738,9.612409591674805,0.6612598896026611,-4.129810333251953
1403715276812143000,-0.003724239766597748,0.03925056755542755,0.08770185708999634,8.476794242858887,0.33553236722946167,-3.500331401824951
1403715276817143000,-0.014174126088619232,-0.008951013907790184,0.06943686306476593,8.722270011901855,0.04102203994989395,-3.7540035247802734
1403715276822143000,-0.0048920586705207825,0.00849573127925396,0.07991568744182587,9.703028678894043,0.16245494782924652,-3.811619520187378
1403715276827143000,-0.008426018059253693,0.0315772145986557,0.07510499656200409,9.473457336425781,0.3837755024433136,-4.007116794586182
1403715276832143000,-0.016962774097919464,0.05156879127025604,0.07243625819683075,8.328720092773438,-0.34140071272850037,-3.4178850650787354
1403715276837143000,0.0060399845242500305,-0.01184047944843769,0.07991591095924377,8.861077308654785,-0.26966592669487,-3.6072187423706055
1403715276842143000,0.02096482366323471,0.03004026785492897,0.07925760746002197,10.029714584350586,0.12161865830421448,-3.901078224182129
1403715276847143000,-0.0016249790787696838,0.04759494587779045,0.07097220420837402,8.435775756835938,0.3031778037548065,-3.557272434234619
1403715276852143000,-0.019723735749721527,0.00568915531039238,0.06810133159160614,8.754911422729492,-0.007969808764755726,-3.492577075958252
1403715276857143000,0.0032880082726478577,0.0028410013765096664,0.10225647687911987,9.073629379272461,-0.15569902956485748,-3.452000856399536
1403715276862143000,0.0034732893109321594,0.030762962996959686,0.07996846735477448,9.710589408874512,0.08111481368541718,-3.958106517791748
1403715276867143000,-0.014842040836811066,0.035013411194086075,0.06607037782669067,8.632070541381836,0.18035466969013214,-3.5248470306396484
1403715276872143000,-0.015526525676250458,0.006375797092914581,0.06391836702823639,8.853044509887695,-0.048901092261075974,-3.4763617515563965
1403715276877143000,0.009014315903186798,0.02783253602683544,0.10506027936935425,9.899016380310059,-0.401190847158432,-3.8925862312316895
1403715276882143000,-0.0029524490237236023,0.08590242266654968,0.057114798575639725,8.688380241394043,0.246469646692276,-3.9325287342071533
1403715276887143000,-0.012074045836925507,0.03289724141359329,0.06677514314651489,8.460365295410156,0.10697528719902039,-3.3940858840942383
1403715276892143000,0.013052888214588165,0.0013546552509069443,0.10224504768848419,9.277935981750488,-0.4008167088031769,-3.5989458560943604
1403715276897143000,0.01877514272928238,0.07465194165706635,0.08287578821182251,9.587069511413574,-0.0325893871486187,-4.1125946044921875
1403715276902143000,-0.0037479326128959656,0.039902351796627045,0.06816205382347107,8.116951942443848,0.29514065384864807,-3.3936893939971924
1403715276907143000,-0.0023083314299583435,-0.0039866603910923,0.08691975474357605,8.820755958557129,0.1952507495880127,-3.2565016746520996
1403715276912143000,0.012428797781467438,0.02448173798620701,0.1231745034456253,9.506659507751465,0.007148382253944874,-3.590724229812622
1403715276917143000,-0.004988722503185272,0.04540359973907471,0.07514415681362152,9.252689361572266,-0.00796491652727127,-3.867948532104492
1403715276922143000,-0.02327810972929001,-0.00043924711644649506,0.056217510253190994,8.33039379119873,0.46553856134414673,-3.2721242904663086
1403715276927143000,-0.011936463415622711,-0.013776520267128944,0.08963483572006226,9.466527938842773,0.1539701670408249,-3.624185800552368
1403715276932143000,0.010407783091068268,0.05511440336704254,0.09327550232410431,9.620159149169922,-0.09826203435659409,-4.031156063079834
1403715276937143000,-0.009267263114452362,0.047532759606838226,0.035390276461839676,8.54202938079834,0.1482182741165161,-3.5653865337371826
1403715276942143000,-9.120255708694458e-05,0.010783590376377106,0.07786500453948975,9.450346946716309,0.6196945309638977,-3.6162593364715576
1403715276947143000,0.008354924619197845,0.06697267293930054,0.09330172836780548,9.742684364318848,-0.016585513949394226,-3.9166581630706787
1403715276952143000,-0.004378043115139008,0.06423509865999222,0.06055382266640663,8.59058952331543,0.04219036549329758,-3.761232852935791
1403715276957143000,-0.004333235323429108,0.006394116207957268,0.061786849051713943,9.147115707397461,0.06527946144342422,-3.933826208114624
1403715276962143000,-0.0007271692156791687,0.05727505683898926,0.08144642412662506,9.579809188842773,0.13040201365947723,-3.6557281017303467
1403715276967143000,-0.0037363842129707336,0.041123777627944946,0.07937049865722656,8.418590545654297,-0.3256337642669678,-3.6060774326324463
1403715276972143000,-0.011380083858966827,-0.006142193451523781,0.045025426894426346,8.689682006835938,0.07382996380329132,-3.598820686340332
1403715276977143000,-0.0014397725462913513,0.0072564855217933655,0.08480826020240784,9.65423583984375,0.5870707035064697,-3.852851152420044
1403715276982143000,-0.009268708527088165,0.050412580370903015,0.08983099460601807,8.607465744018555,0.35176894068717957,-3.4758973121643066
1403715276987143000,-0.02112019807100296,-0.00042594410479068756,0.0694555938243866,8.877986907958984,0.44088509678840637,-3.6563758850097656
1403715276992143000,0.004180006682872772,0.014822516590356827,0.09734456241130829,9.801002502441406,0.3583298325538635,-3.8361072540283203
1403715276997143000,0.006813071668148041,0.06433642655611038,0.08914777636528015,8.966657638549805,0.2782893776893616,-3.6800148487091064
1403715277002143000,0.006021760404109955,0.017665473744273186,0.0737108439207077,8.501669883728027,0.3430630564689636,-3.2560136318206787
1403715277007143000,0.020781226456165314,0.010079054161906242,0.1085057258605957,9.515509605407715,0.6196844577789307,-3.7550041675567627
1403715277012143000,0.008234091103076935,0.054583840072155,0.09399507939815521,9.179296493530273,0.31051769852638245,-3.688427448272705
1403715277017143000,-0.008651740849018097,0.005697593092918396,0.071587473154068,8.14970874786377,0.10704779624938965,-3.304145097732544
1403715277022143000,-0.0029109641909599304,-0.036713607609272,0.074941486120224,9.344539642333984,0.2763611674308777,-3.5758004188537598
1403715277027143000,-0.00281708687543869,0.025225963443517685,0.09110629558563232,9.63702392578125,0.17095288634300232,-3.9500017166137695
1403715277032143000,-0.025305084884166718,0.017536373808979988,0.040249187499284744,8.419808387756348,0.008945590816438198,-3.1738128662109375
1403715277037143000,-0.014164425432682037,-0.06059931963682175,0.043527308851480484,8.780030250549316,-0.1883557289838791,-3.6567368507385254
1403715277042143000,0.017380617558956146,0.01396683044731617,0.08201131224632263,9.76030158996582,-0.11519473791122437,-3.835944175720215
1403715277047143000,0.0094829723238945,0.030852464959025383,0.06323114037513733,8.288698196411133,0.29503756761550903,-3.573556661605835
1403715277052143000,-0.009307436645030975,-0.03459569066762924,0.08402067422866821,8.837546348571777,0.3585823178291321,-3.5670535564422607
1403715277057143000,0.0036177262663841248,0.05025916174054146,0.11832194030284882,10.216245651245117,0.19499526917934418,-4.218715667724609
1403715277062143000,-0.0071192458271980286,0.07884639501571655,0.1052321195602417,8.949662208557129,-0.10538332909345627,-3.793811321258545
1403715277067143000,-0.012152470648288727,0.012759493663907051,0.08553849160671234,8.231864929199219,0.392612099647522,-3.443154811859131
1403715277072143000,0.002779431641101837,0.031450171023607254,0.11410996317863464,9.800296783447266,0.04806922376155853,-3.9742989540100098
1403715277077143000,0.0018616095185279846,0.06900767982006073,0.09270405769348145,8.434468269348145,-0.3824930489063263,-3.6139345169067383
1403715277082143000,0.009474359452724457,-0.018004069104790688,0.04917365685105324,8.427992820739746,0.08205203711986542,-3.50886607170105
1403715277087143000,0.027760140597820282,-0.001164386048913002,0.09800052642822266,9.523554801940918,0.39112722873687744,-3.8610095977783203
1403715277092143000,0.001192428171634674,0.05385112017393112,0.06330971419811249,8.664416313171387,0.2378845363855362,-3.736971139907837
1403715277097143000,-0.02460280805826187,-0.009501747786998749,0.03667807951569557,8.641226768493652,0.3427170217037201,-3.272711992263794
1403715277102143000,-0.003506876528263092,0.0015262234956026077,0.08826929330825806,9.736345291137695,0.16193988919258118,-3.550623893737793
1403715277107143000,-0.014669723808765411,0.06764919310808182,0.057077933102846146,9.513772010803223,-0.1303330808877945,-4.047348976135254
1403715277112143000,-0.013427548110485077,0.025180108845233917,0.03466572239995003,8.795676231384277,-0.08098959177732468,-3.4516141414642334
1403715277117143000,0.001994602382183075,0.019109100103378296,0.08207190036773682,9.384919166564941,0.5134365558624268,-3.444685697555542
1403715277122143000,-0.00290495902299881,0.07958540320396423,0.09057627618312836,9.096813201904297,0.04975084587931633,-3.9082508087158203
1403715277127143000,-0.017674483358860016,0.016760041937232018,0.057669464498758316,8.460139274597168,-0.18689008057117462,-3.5164875984191895
1403715277132143000,-0.0021774396300315857,-0.005402399227023125,0.08128547668457031,9.466482162475586,0.1950000822544098,-3.6404805183410645
1403715277137143000,0.012418515980243683,0.05861654877662659,0.10096794366836548,9.293292045593262,-0.12244227528572083,-3.8596274852752686
1403715277142143000,0.0018089786171913147,0.018135175108909607,0.06045718863606453,8.247217178344727,-0.20317675173282623,-3.589881181716919
1403715277147143000,0.006189264357089996,-0.024844283238053322,0.07078026235103607,9.516205787658691,0.382466197013855,-3.60852313041687
1403715277152143000,0.01096528023481369,0.01408909261226654,0.0903959572315216,9.040692329406738,0.13068582117557526,-3.958230972290039
1403715277157143000,-0.0058024004101753235,-0.014584442600607872,0.058248911052942276,8.820120811462402,-0.04925105348229408,-4.2360029220581055
1403715277162143000,-0.00912167876958847,0.007304095663130283,0.08065055310726166,9.670421600341797,0.7586892247200012,-4.008099555969238
1403715277167143000,-0.01761125773191452,0.04751291498541832,0.09609024226665497,8.770450592041016,0.041553158313035965,-3.769657611846924
1403715277172143000,-0.01626407355070114,0.012498214840888977,0.05488641932606697,8.75422477722168,-0.44973424077033997,-4.235857009887695
1403715277177143000,0.010991327464580536,-0.001173926517367363,0.0819738507270813,9.278066635131836,0.3590323328971863,-4.015829086303711
1403715277182143000,0.015809424221515656,0.05660335719585419,0.10937196016311646,8.582226753234863,0.05807887017726898,-3.728872776031494
1403715277187143000,-0.001062922179698944,-0.010348483920097351,0.06938393414020538,8.157904624938965,0.2866663932800293,-3.9984543323516846
1403715277192143000,0.010235048830509186,-0.015687303617596626,0.10985268652439117,9.466105461120605,0.7588361501693726,-4.294294834136963
1403715277197143000,-0.013428039848804474,0.0627911239862442,0.11078847944736481,8.835431098937988,-0.17077435553073883,-3.5733797550201416
1403715277202143000,-0.012143276631832123,-0.022967031225562096,0.08268500864505768,8.460049629211426,-0.04102751612663269,-4.3095502853393555
1403715277207143000,0.023657120764255524,0.020335176959633827,0.09177796542644501,9.710551261901855,0.16268517076969147,-4.154263019561768
1403715277212143000,0.004646815359592438,0.04814619570970535,0.08358074724674225,8.40241527557373,-0.19478841125965118,-3.3203330039978027
1403715277217143000,0.0039534792304039,-0.030443934723734856,0.05540955439209938,8.902812957763672,0.31814536452293396,-3.697584629058838
1403715277222143000,0.018158115446567535,0.02326926589012146,0.0939057320356369,9.981121063232422,0.6848338842391968,-3.836407423019409
1403715277227143000,-0.028802238404750824,0.04958401247859001,0.05008183792233467,7.945295333862305,0.1894180327653885,-3.1484735012054443
1403715277232143000,-0.032324813306331635,-0.050746627151966095,0.0449184812605381,8.551115989685059,0.09793689846992493,-3.67253041267395
1403715277237143000,-0.012339077889919281,0.0008184369653463364,0.08964413404464722,10.398050308227539,0.43951284885406494,-3.975097417831421
1403715277242143000,-0.04133491963148117,0.04742663726210594,0.04451319947838783,8.255900382995605,-0.11259917914867401,-3.2872979640960693
1403715277247143000,-0.025266699492931366,-0.04181531071662903,0.05335332825779915,9.090535163879395,-0.3518601953983307,-3.6240339279174805
1403715277252143000,0.014808274805545807,0.04248771816492081,0.1148192286491394,10.627493858337402,0.03916284069418907,-3.6963047981262207
1403715277257143000,-0.004358239471912384,0.09063944220542908,0.07744759321212769,7.437104225158691,-0.15237608551979065,-3.1559951305389404
1403715277262143000,0.01101570576429367,-0.015141317620873451,0.07636301219463348,9.343907356262207,0.26062527298927307,-3.8527944087982178
1403715277267143000,0.03135047107934952,0.08802191913127899,0.11149396002292633,9.724944114685059,0.34324902296066284,-4.373537540435791
1403715277272143000,-0.003157965838909149,0.02159041352570057,0.058343518525362015,7.167247772216797,-0.00659952312707901,-3.3928744792938232
1403715277277143000,0.0018488690257072449,-0.05344206839799881,0.08044128119945526,9.107340812683105,0.4239111542701721,-4.098225116729736
1403715277282143000,-0.004208140075206757,0.05593526363372803,0.10792088508605957,9.603979110717773,0.3099137246608734,-3.778136730194092
1403715277287143000,-0.02962251752614975,-0.022975249215960503,0.06873965263366699,7.863248348236084,-0.03982582315802574,-3.36901593208313
1403715277292143000,-0.01111476868391037,-0.05839858204126358,0.08112885057926178,9.973880767822266,0.21037273108959198,-4.000664234161377
1403715277297143000,-0.009034492075443268,0.07332306355237961,0.10517548024654388,9.72597885131836,0.26114150881767273,-3.8920302391052246
1403715277302143000,-0.020506836473941803,0.006302131339907646,0.07160885632038116,8.100301742553711,-0.12136339396238327,-3.393672466278076
1403715277307143000,-0.0027519091963768005,-0.02577461488544941,0.08052922785282135,9.989655494689941,-0.18963146209716797,-4.195811748504639
1403715277312143000,0.012375898659229279,0.09490823745727539,0.09831233322620392,8.761636734008789,-0.03967680037021637,-3.6385927200317383
1403715277317143000,0.015717394649982452,-0.002788357436656952,0.07087954878807068,8.181794166564941,-0.24434737861156464,-3.5411126613616943
1403715277322143000,0.030853576958179474,0.01749887503683567,0.07225394248962402,10.455513000488281,0.34173277020454407,-3.9014596939086914
1403715277327143000,0.012409873306751251,0.08383961021900177,0.0689784586429596,8.990894317626953,0.2541050612926483,-3.7532525062561035
1403715277332143000,-0.008700080215930939,-0.03755810856819153,0.039339084178209305,8.043578147888184,0.0986296683549881,-3.442871570587158
1403715277337143000,-0.008925475180149078,-0.0004661325365304947,0.05695149675011635,10.274730682373047,0.8074663877487183,-4.318382263183594
1403715277342143000,-0.03571128100156784,0.0705501064658165,0.05849035456776619,8.533841133117676,0.28713229298591614,-3.5896031856536865
1403715277347143000,-0.046280644834041595,-0.05704578012228012,0.04565553739666939,8.256591796875,-0.04068558290600777,-3.312798500061035
1403715277352143000,-0.015062876045703888,0.015347568318247795,0.07017919421195984,10.5693359375,0.15390926599502563,-4.121646881103516
1403715277357143000,-0.009295813739299774,0.059218890964984894,0.08641955256462097,8.303876876831055,-0.44735217094421387,-3.295177698135376
1403715277362143000,0.007474221289157867,-0.0487123504281044,0.09304782748222351,9.156183242797852,-0.0664505586028099,-3.7714526653289795
1403715277367143000,0.03068970888853073,0.09069161862134933,0.11215829849243164,9.93834114074707,0.13842810690402985,-3.957099437713623
1403715277372143000,0.026903651654720306,0.045329391956329346,0.09753285348415375,8.017424583435059,-0.3335527777671814,-3.4507460594177246
1403715277377143000,0.04578966647386551,-0.019256694242358208,0.12026986479759216,9.336179733276367,0.43161365389823914,-3.714590311050415
1403715277382143000,0.029159940779209137,0.1160358414053917,0.12136997282505035,9.25979232788086,0.6048837304115295,-3.8510899543762207
1403715277387143000,-0.00805162638425827,0.015446122735738754,0.07782170176506042,7.421957969665527,0.40165457129478455,-3.3275249004364014
1403715277392143000,-0.01183413714170456,-0.039370469748973846,0.08473005890846252,9.950345039367676,0.8471946120262146,-3.756563901901245
1403715277397143000,-0.035611845552921295,0.08863478153944016,0.07806573808193207,9.12944507598877,0.10716337710618973,-3.8345422744750977
1403715277402143000,-0.04844742268323898,-0.0272554662078619,0.019879762083292007,7.49484395980835,-0.1779506355524063,-3.1804957389831543
1403715277407143000,-0.02004941552877426,-0.031199457123875618,0.04777935519814491,10.178497314453125,0.3659318685531616,-3.780287504196167
1403715277412143000,-0.021756477653980255,0.09549263119697571,0.05438590422272682,8.925300598144531,-0.34952348470687866,-3.589292526245117
1403715277417143000,-0.0036919787526130676,-0.02772819809615612,0.04778612032532692,8.812777519226074,0.05676261708140373,-3.3708722591400146
1403715277422143000,0.023271583020687103,0.03763360530138016,0.09737621247768402,10.790665626525879,0.235430046916008,-3.9251599311828613
1403715277427143000,0.008870162069797516,0.10320620238780975,0.0865183025598526,7.485925674438477,-0.0880696251988411,-3.662632465362549
1403715277432143000,0.022722430527210236,-0.046412885189056396,0.10766825079917908,9.066849708557129,0.5135543942451477,-3.861725091934204
1403715277437143000,0.010636471211910248,0.11853380501270294,0.11084674298763275,10.305717468261719,0.23649373650550842,-3.9563989639282227
1403715277442143000,-0.003017611801624298,0.04952244460582733,0.0843447893857956,7.118190288543701,-0.24195151031017303,-2.723227024078369
1403715277447143000,0.0034269914031028748,-0.0742965042591095,0.09993802011013031,9.852922439575195,0.5115010738372803,-3.405773639678955
1403715277452143000,-0.020212627947330475,0.0802910178899765,0.08501279354095459,9.538901329040527,0.22028768062591553,-3.4594640731811523
1403715277457143000,-0.02815694361925125,-0.020237797871232033,0.052745405584573746,8.239500999450684,-0.3829425573348999,-3.1897730827331543
1403715277462143000,0.0008706972002983093,-0.04168812930583954,0.0728185772895813,10.432905197143555,0.38161957263946533,-3.625321388244629
1403715277467143000,-0.006388954818248749,0.08006525784730911,0.07942754030227661,9.4245023727417,-0.6197494268417358,-3.148077964782715
1403715277472143000,0.010910861194133759,-0.04515456408262253,0.06379474699497223,8.73122501373291,0.06446906179189682,-3.2649598121643066
1403715277477143000,0.023191891610622406,0.02521435171365738,0.07788245379924774,10.4402437210083,0.545250654220581,-3.477327346801758
1403715277482143000,-0.010640226304531097,0.05943030118942261,0.05708365514874458,8.468645095825195,0.2541249096393585,-3.287909984588623
1403715277487143000,-0.007725454866886139,-0.04920445382595062,0.0644361823797226,9.630900382995605,0.5048548579216003,-3.861989736557007
1403715277492143000,-0.022277481853961945,0.051681533455848694,0.07725465297698975,9.710786819458008,0.12204091250896454,-3.6149187088012695
1403715277497143000,-0.01703917235136032,0.015342995524406433,0.08209523558616638,7.887431621551514,-0.13741816580295563,-3.450500249862671
1403715277502143000,-0.004162557423114777,-0.017274899408221245,0.08471214771270752,9.874719619750977,0.26822584867477417,-4.122196674346924
1403715277507143000,-0.006923668086528778,0.03903700411319733,0.10159885883331299,9.980091094970703,-0.20518285036087036,-4.137421131134033
1403715277512143000,0.004521079361438751,-0.00342477485537529,0.10366126894950867,7.879386901855469,0.009098120033740997,-3.6469638347625732
1403715277517143000,0.006713978946208954,0.022612322121858597,0.07928936183452606,8.62445068359375,0.5226657390594482,-3.42758846282959
1403715277522143000,0.0032978281378746033,0.031379334628582,0.06397673487663269,9.007837295532227,-0.2854408919811249,-3.557729959487915
1403715277527143000,0.02499701827764511,-0.046477317810058594,0.07974900305271149,9.65530776977539,0.3987775444984436,-3.9027044773101807
1403715277532143000,0.005741901695728302,0.00633949413895607,0.07780347764492035,10.315269470214844,0.2191888689994812,-4.366485118865967
1403715277537143000,-0.0016536489129066467,0.05319333076477051,0.0619010366499424,8.059903144836426,0.4748791754245758,-3.3773069381713867
1403715277542143000,-0.012747354805469513,0.04083608090877533,0.05217427387833595,8.755711555480957,0.8244532942771912,-3.330047607421875
1403715277547143000,-0.04302816838026047,0.07799400389194489,0.039703596383333206,10.339685440063477,-0.4002300500869751,-4.104538917541504
1403715277552143000,-0.010696493089199066,0.030702264979481697,0.07165025174617767,8.52527141571045,-0.19505901634693146,-3.663459539413452
1403715277557143000,-0.0023221448063850403,0.047555774450302124,0.07517047226428986,8.370230674743652,0.17260055243968964,-3.467373847961426
1403715277562143000,0.0012245699763298035,0.09621475636959076,0.05790970101952553,8.4757661819458,-0.3081550598144531,-3.2544782161712646
