#timestamp [ns],w_RS_S_x [rad s^-1],w_RS_S_y [rad s^-1],w_RS_S_z [rad s^-1],a_RS_S_x [m s^-2],a_RS_S_y [m s^-2],a_RS_S_z [m s^-2]
1403715273262143000,-0.0020943951023931952,0.017453292519943295,0.07749261878854824,9.087495666666666,0.13075533333333333,-3.693838166666666
1403715273267143000,-0.0013962634015954637,0.019547687622336492,0.07819075048934597,9.079323458333333,0.122583125,-3.693838166666666
1403715273272143000,-0.0020943951023931952,0.016755160819145562,0.0747000919853573,9.038462416666666,0.14709974999999997,-3.6693215416666662
1403715273277143000,-0.0027925268031909274,0.020943951023931952,0.07819075048934597,9.07115125,0.122583125,-3.67749375
1403715273282143000,-0.0020943951023931952,0.020943951023931952,0.07888888219014369,9.079323458333333,0.13075533333333333,-3.702010375
1403715273287143000,0.0,0.021642082724729686,0.07958701389094143,9.054806833333332,0.07354987499999999,-3.693838166666666
1403715273292143000,-0.0013962634015954637,0.023038346126325153,0.07400196028455958,9.095667875,0.13892754166666665,-3.6611493333333334
1403715273297143000,-0.003490658503988659,0.02234021442552742,0.08028514559173915,9.062979041666667,0.07354987499999999,-3.6693215416666662
1403715273302143000,-0.0041887902047863905,0.017453292519943295,0.07609635538695278,9.136528916666666,0.14709974999999997,-3.702010375
1403715273307143000,-0.0013962634015954637,0.01815142422074103,0.07958701389094143,9.054806833333332,0.06537766666666667,-3.6366327083333334
1403715273312143000,-0.0020943951023931952,0.02024581932313422,0.07400196028455958,9.087495666666666,0.13892754166666665,-3.6693215416666662
1403715273317143000,-0.003490658503988659,0.021642082724729686,0.08028514559173915,9.046634625,0.11441091666666667,-3.67749375
1403715273322143000,-0.0027925268031909274,0.020943951023931952,0.07888888219014369,9.079323458333333,0.17161637500000002,-3.751043625
1403715273327143000,-0.0020943951023931952,0.023038346126325153,0.07958701389094143,9.054806833333332,0.11441091666666667,-3.702010375
1403715273332143000,-0.0041887902047863905,0.01884955592153876,0.07609635538695278,9.079323458333333,0.07354987499999999,-3.702010375
1403715273337143000,-0.003490658503988659,0.021642082724729686,0.07958701389094143,9.054806833333332,0.13075533333333333,-3.6693215416666662
1403715273342143000,-0.005585053606381855,0.02234021442552742,0.07819075048934597,9.087495666666666,0.10623870833333333,-3.718354791666666
1403715273347143000,-0.0027925268031909274,0.021642082724729686,0.0767944870877505,9.062979041666667,0.13892754166666665,-3.67749375
1403715273352143000,-0.0020943951023931952,0.016057029118347832,0.0767944870877505,9.038462416666666,0.0980665,-3.7346992083333332
1403715273357143000,-0.003490658503988659,0.01884955592153876,0.0747000919853573,9.062979041666667,0.122583125,-3.742871416666666
1403715273362143000,-0.0027925268031909274,0.019547687622336492,0.08028514559173915,9.038462416666666,0.0980665,-3.7346992083333332
1403715273367143000,-0.0013962634015954637,0.01815142422074103,0.0767944870877505,9.087495666666666,0.13075533333333333,-3.67749375
1403715273372143000,-0.0027925268031909274,0.019547687622336492,0.07819075048934597,9.030290208333332,0.11441091666666667,-3.67749375
1403715273377143000,-0.004886921905584123,0.016755160819145562,0.07120943348136866,9.079323458333333,0.17978858333333333,-3.67749375
1403715273382143000,0.0006981317007977319,0.02024581932313422,0.07749261878854824,9.038462416666666,0.0980665,-3.693838166666666
1403715273387143000,0.0006981317007977319,0.019547687622336492,0.07609635538695278,9.095667875,0.15527195833333335,-3.702010375
1403715273392143000,-0.0013962634015954637,0.023038346126325153,0.08098327729253688,9.07115125,0.11441091666666667,-3.693838166666666
1403715273397143000,-0.003490658503988659,0.02024581932313422,0.08028514559173915,9.095667875,0.11441091666666667,-3.7346992083333332
1403715273402143000,-0.0027925268031909274,0.02234021442552742,0.07958701389094143,9.030290208333332,0.11441091666666667,-3.6856659583333333
1403715273407143000,-0.006495397537946701,0.02302297204732895,0.0760432556271553,9.0984468460083,0.09009623527526855,-3.6905229091644287
1403715273412143000,-0.0032607056200504303,0.023738309741020203,0.07795944809913635,9.090059280395508,0.08219236135482788,-3.7140777111053467
1403715273417143000,-0.005032680928707123,0.022460632026195526,0.0753781720995903,9.09024429321289,0.04197142645716667,-3.7614989280700684
1403715273422143000,-0.005102492868900299,0.022394545376300812,0.07733321934938431,9.050182342529297,0.08202219754457474,-3.71415114402771
1403715273427143000,-0.00333491712808609,0.02373557537794113,0.07739267498254776,9.106657981872559,0.11385594308376312,-3.7378439903259277
1403715273432143000,-0.0011321492493152618,0.021105125546455383,0.0794001966714859,9.065958976745605,0.09053191542625427,-3.690298080444336
1403715273437143000,-0.004987411201000214,0.02175118774175644,0.0766853541135788,9.07410717010498,0.08252501487731934,-3.674586296081543
1403715273442143000,-0.005327165126800537,0.020317886024713516,0.07865617424249649,9.106999397277832,0.1616331785917282,-3.7143261432647705
1403715273447143000,-0.005915936082601547,0.023737818002700806,0.08074731379747391,9.050353050231934,0.10630940645933151,-3.7298595905303955
1403715273452143000,-0.0019099228084087372,0.02112668752670288,0.07937102019786835,9.10663890838623,0.1460925191640854,-3.714210033416748
1403715273457143000,-0.0017266236245632172,0.021837294101715088,0.08147735148668289,9.018068313598633,0.050538867712020874,-3.714031934738159
1403715273462143000,-0.005072273313999176,0.021018274128437042,0.07475545257329941,9.090822219848633,0.11404246091842651,-3.746048927307129
1403715273467143000,-0.0032957233488559723,0.023025482892990112,0.07739202678203583,9.049989700317383,0.11372926086187363,-3.6985855102539062
1403715273472143000,-0.006480317562818527,0.019134938716888428,0.07924999296665192,9.113945960998535,0.11375243961811066,-3.6668801307678223
1403715273477143000,-0.0026402734220027924,0.024388276040554047,0.08341749012470245,9.009632110595703,0.12211715430021286,-3.7141354084014893
1403715273482143000,-0.005216974765062332,0.019706301391124725,0.08013112843036652,9.058761596679688,0.13778381049633026,-3.730059862136841
1403715273487143000,-0.005104627460241318,0.02379690110683441,0.08217376470565796,9.04195499420166,0.09821678698062897,-3.730001926422119
1403715273492143000,-0.0019593723118305206,0.023019254207611084,0.07676327973604202,9.08165168762207,0.13017575442790985,-3.698390007019043
1403715273497143000,-0.003765381872653961,0.023111015558242798,0.08136457204818726,9.105621337890625,0.12986312806606293,-3.713987350463867
1403715273502143000,-0.0038546472787857056,0.02108834683895111,0.07867184281349182,9.089858055114746,0.13833115994930267,-3.7063522338867188
1403715273507143000,-0.004659760743379593,0.02029981091618538,0.07943535596132278,9.08234691619873,0.14589212834835052,-3.714406967163086
1403715273512143000,-0.0037180595099925995,0.023719757795333862,0.08146662265062332,9.066129684448242,0.05828402563929558,-3.6901073455810547
1403715273517143000,-0.006402682512998581,0.0231381356716156,0.08211386948823929,9.106266975402832,0.08184148371219635,-3.6821441650390625
1403715273522143000,-0.005263581871986389,0.021855108439922333,0.07680665701627731,9.074108123779297,0.10567957162857056,-3.7060399055480957
1403715273527143000,-0.003929737955331802,0.02104824036359787,0.07805618643760681,9.106545448303223,0.14591625332832336,-3.7377963066101074
1403715273532143000,-0.003108937293291092,0.02299705147743225,0.08080697059631348,9.050058364868164,0.07454144209623337,-3.7456576824188232
1403715273537143000,-0.005228918045759201,0.02375917136669159,0.07747190445661545,9.091218948364258,0.1135823130607605,-3.7935972213745117
1403715273542143000,-0.005111105740070343,0.02591060847043991,0.07680270820856094,9.057860374450684,-0.013312330469489098,-3.7458746433258057
1403715273547143000,-0.012441525235772133,0.020038142800331116,0.07733778655529022,8.930113792419434,0.5214948654174805,-3.701049327850342
1403715273552143000,-0.01747649721801281,0.015116199851036072,0.09358800202608109,9.333169937133789,0.24924375116825104,-3.777501344680786
1403715273557143000,-0.02842690423130989,0.03143186867237091,0.08014556765556335,8.90419864654541,-0.12924614548683167,-3.635258197784424
1403715273562143000,-0.0031142570078372955,0.012226726859807968,0.09297236055135727,9.142034530639648,-0.3567022383213043,-3.537837505340576
1403715273567143000,0.026378344744443893,0.038973912596702576,0.06712441891431808,9.220213890075684,-0.870654284954071,-3.6753509044647217
1403715273572143000,0.05487992241978645,0.014569588005542755,0.06272979825735092,8.859813690185547,-0.19739216566085815,-3.52911639213562
1403715273577143000,0.05698094889521599,0.02122129499912262,0.052038636058568954,9.29854965209961,0.47048071026802063,-3.7689428329467773
1403715273582143000,0.02169937640428543,0.022494517266750336,0.06915558874607086,8.84764575958252,1.4671764373779297,-3.6937105655670166
1403715273587143000,-0.05028092488646507,0.012364104390144348,0.08277580142021179,9.090228080749512,1.6969952583312988,-3.9920759201049805
1403715273592143000,-0.10660381615161896,0.020362861454486847,0.09753096848726273,9.16860294342041,0.7428988218307495,-3.7106218338012695
1403715273597143000,-0.10340286791324615,0.025225944817066193,0.10763330012559891,8.953682899475098,-0.5509006381034851,-3.675893783569336
1403715273602143000,-0.0570874884724617,0.022854477167129517,0.10087604820728302,8.894020080566406,-1.1109944581985474,-3.3508548736572266
1403715273607143000,0.013984199613332748,0.008850544691085815,0.10235776752233505,9.66965103149414,-1.2232105731964111,-3.682382345199585
1403715273612143000,0.0778723955154419,0.04891415685415268,0.05348020792007446,9.108275413513184,-1.2311983108520508,-3.653066396713257
1403715273617143000,0.11813244223594666,0.01602686196565628,0.05239710956811905,8.72461223602295,0.06537658721208572,-3.5135252475738525
1403715273622143000,0.10043658316135406,0.036361999809741974,0.053358349949121475,9.14873218536377,1.332221508026123,-3.760045051574707
1403715273627143000,0.02529960498213768,-0.006640587002038956,0.07678887993097305,8.750662803649902,1.959198236465454,-3.782989978790283
1403715273632143000,-0.05959724634885788,0.01675529032945633,0.07241587340831757,9.879648208618164,1.2503000497817993,-4.132349014282227
1403715273637143000,-0.08699245750904083,0.05464767664670944,0.07414402067661285,8.647405624389648,-0.1714640110731125,-3.5665502548217773
1403715273642143000,-0.05658308416604996,-0.00408254936337471,0.10003738850355148,8.401296615600586,-0.2573901116847992,-3.4544241428375244
1403715273647143000,-0.035948656499385834,0.014101952314376831,0.08178447186946869,9.75033187866211,-0.24498313665390015,-3.7506189346313477
1403715273652143000,-0.0341479629278183,0.02582189440727234,0.06661124527454376,8.84565258026123,-0.038499295711517334,-3.578538417816162
1403715273657143000,-0.0231289342045784,-0.008712835609912872,0.06254680454730988,9.161282539367676,0.1054539903998375,-3.7215993404388428
1403715273662143000,-0.014658628031611443,0.03307955712080002,0.09214619547128677,9.020537376403809,-0.08905771374702454,-3.640267848968506
1403715273667143000,-0.003575354814529419,0.01012982428073883,0.0983152985572815,8.989557266235352,-0.2391880750656128,-3.7590670585632324
1403715273672143000,0.02929716184735298,0.032560914754867554,0.09287997335195541,9.554243087768555,-0.8962056636810303,-3.588043689727783
1403715273677143000,0.08371789753437042,0.04627141356468201,0.0804092064499855,8.791001319885254,-1.0379807949066162,-3.432650089263916
1403715273682143000,0.11264167726039886,0.005702368915081024,0.07200853526592255,8.584781646728516,0.34543707966804504,-3.6185719966888428
1403715273687143000,0.07363438606262207,0.014832921326160431,0.06083056703209877,9.670876502990723,1.4559091329574585,-3.9204294681549072
1403715273692143000,-0.008221320807933807,0.03992420434951782,0.0414406955242157,8.901997566223145,1.4239046573638916,-3.9946484565734863
1403715273697143000,-0.0678166076540947,-0.005412071943283081,0.0674688071012497,8.516551971435547,1.4276247024536133,-3.689114809036255
1403715273702143000,-0.1094253659248352,0.008375205099582672,0.10972316563129425,9.458456993103027,1.1175068616867065,-3.8875553607940674
1403715273707143000,-0.15041063725948334,0.02243925631046295,0.10896649956703186,8.916606903076172,0.2245086282491684,-3.774935007095337
1403715273712143000,-0.13631665706634521,0.009391486644744873,0.11333119869232178,9.410508155822754,-0.9839895367622375,-3.5557854175567627
1403715273717143000,-0.0676489919424057,0.04038110375404358,0.11163850873708725,9.131416320800781,-2.0071022510528564,-3.378192186355591
1403715273722143000,0.06347334384918213,0.017757374793291092,0.09611880779266357,9.046302795410156,-2.035459280014038,-3.5590240955352783
1403715273727143000,0.142412930727005,0.03665691614151001,0.05169133096933365,9.477255821228027,-1.4045205116271973,-3.579798936843872
1403715273732143000,0.18475762009620667,0.04949294030666351,0.027630101889371872,8.873160362243652,-0.20620301365852356,-3.63700270652771
1403715273737143000,0.17092487215995789,0.007799454033374786,0.04786984622478485,8.724583625793457,1.482256531715393,-3.793076753616333
1403715273742143000,0.0774649977684021,0.03628332167863846,0.042291443794965744,9.667853355407715,2.8270962238311768,-4.128625869750977
1403715273747143000,-0.0614355896702004,0.029321531433504733,0.06981317007977318,8.319308083333333,2.9338227916666666,-3.8245934999999998
1403715273752143000,-0.16797824203968048,-0.011283639818429947,0.0775017961859703,8.724114418029785,1.6340402364730835,-3.8286774158477783
1403715273757143000,-0.18905533850193024,0.004870221018791199,0.11995995044708252,9.230682373046875,0.15544968843460083,-3.66405987739563
1403715273762143000,-0.15777982771396637,0.005010232329368591,0.1100461483001709,9.209089279174805,-1.482567548751831,-3.665285110473633
1403715273767143000,-0.07674349844455719,0.01900644227862358,0.11396670341491699,9.262858390808105,-1.6483532190322876,-3.3726634979248047
1403715273772143000,0.013293329626321793,0.04388830065727234,0.08811812847852707,9.356722831726074,-1.9032281637191772,-3.5655291080474854
1403715273777143000,0.11258311569690704,0.03573597967624664,0.07402575016021729,8.69101619720459,-1.197393774986267,-3.3489317893981934
1403715273782143000,0.14025092124938965,0.025473058223724365,0.042966943234205246,9.266154289245605,-0.025854308158159256,-3.716346263885498
1403715273787143000,0.12217545509338379,0.052777715027332306,0.035182222723960876,9.229899406433105,0.9168031811714172,-3.848632574081421
1403715273792143000,0.06373846530914307,0.004890553653240204,0.05310280621051788,8.096247673034668,1.6641168594360352,-3.6194798946380615
1403715273797143000,-0.014264313504099846,0.009475044906139374,0.06537637859582901,9.46041202545166,1.9542620182037354,-4.206817626953125
1403715273802143000,-0.08103537559509277,0.019949421286582947,0.10608618706464767,8.583917617797852,1.2654882669448853,-3.677434206008911
1403715273807143000,-0.12279540300369263,-0.01382102444767952,0.12670990824699402,9.147464752197266,0.5583251714706421,-3.982710123062134
1403715273812143000,-0.12079621851444244,0.0438283234834671,0.09973639249801636,9.344574928283691,-0.4905143082141876,-3.3435943126678467
1403715273817143000,-0.07454660534858704,-0.003476768732070923,0.11342763900756836,8.60791301727295,-0.9212601780891418,-3.4809486865997314
1403715273822143000,-0.02548961713910103,0.00451921671628952,0.06624216586351395,10.1984224319458,-1.602655053138733,-3.8740203380584717
1403715273827143000,0.0720711201429367,0.06786923110485077,0.03538476675748825,8.975196838378906,-1.6753836870193481,-3.5684120655059814
1403715273832143000,0.13644365966320038,0.010019123554229736,0.04813411831855774,8.25963020324707,-0.38478004932403564,-3.3196914196014404
1403715273837143000,0.13205094635486603,0.030969254672527313,0.05881313234567642,9.491519927978516,1.2933485507965088,-3.8528923988342285
1403715273842143000,0.049474816769361496,0.015115167945623398,0.07776287943124771,8.683402061462402,2.1017467975616455,-3.9191150665283203
1403715273847143000,-0.04072680324316025,0.012206178158521652,0.06677234172821045,9.514105796813965,1.618078589439392,-4.152122497558594
1403715273852143000,-0.0837973952293396,0.04650118947029114,0.08293744921684265,8.600727081298828,0.21369968354701996,-3.4182372093200684
1403715273857143000,-0.06804443895816803,0.000823289155960083,0.09933494031429291,8.625221252441406,-0.3725951910018921,-3.7104978561401367
1403715273862143000,-0.04347638785839081,0.018497373908758163,0.0889563336968422,9.549351692199707,-0.27018070220947266,-3.6108920574188232
1403715273867143000,-0.025151651352643967,0.022230707108974457,0.07699519395828247,8.877862930297852,-0.1436389982700348,-3.6187257766723633
1403715273872143000,-0.011451752856373787,0.005880676209926605,0.0656033530831337,9.073651313781738,-0.2987654507160187,-3.680882453918457
1403715273877143000,0.00175413116812706,0.022819533944129944,0.07835663855075836,9.218546867370605,-0.1223907470703125,-3.701817512512207
1403715273882143000,0.0109860859811306,0.02108999341726303,0.07179658114910126,8.62371826171875,0.1690690964460373,-3.570039749145508
1403715273887143000,0.014878060668706894,0.0035824738442897797,0.08991566300392151,9.316436767578125,0.31732699275016785,-3.7603037357330322
1403715273892143000,0.0016082711517810822,0.034857310354709625,0.09425785392522812,9.330766677856445,0.3054955303668976,-3.7923226356506348
1403715273897143000,-0.008868642151355743,0.020832136273384094,0.11291158944368362,8.70672607421875,0.510990560054779,-3.7158126831054688
1403715273902143000,-0.020110007375478745,0.022364765405654907,0.10937236249446869,9.247926712036133,0.18544282019138336,-3.7146353721618652
1403715273907143000,-0.013177059590816498,0.03566587716341019,0.09813783317804337,9.131759643554688,-0.5674507021903992,-3.6151652336120605
1403715273912143000,0.02929098531603813,0.01933594048023224,0.06922388821840286,9.011052131652832,-1.1919728517532349,-3.6433489322662354
1403715273917143000,0.08098931610584259,0.0233427956700325,0.05521567910909653,9.356855392456055,-0.2596830129623413,-3.710258960723877
1403715273922143000,0.07381521165370941,0.027224525809288025,0.04425498843193054,8.74585247039795,1.0630271434783936,-3.820927858352661
1403715273927143000,0.01585383713245392,0.019180502742528915,0.03531248867511749,9.052592277526855,1.5566332340240479,-3.862534761428833
1403715273932143000,-0.05260809138417244,0.011117581278085709,0.07109130918979645,8.950882911682129,1.6753015518188477,-3.7954015731811523
1403715273937143000,-0.12319381535053253,0.005521237850189209,0.08467710763216019,9.084625244140625,1.1151376962661743,-3.801255941390991
1403715273942143000,-0.1370336413383484,0.01552969217300415,0.10857293754816055,9.143367767333984,-0.13949590921401978,-3.582127332687378
1403715273947143000,-0.09814544767141342,0.024402901530265808,0.08845522999763489,9.00878620147705,-1.561354637145996,-3.5075409412384033
1403715273952143000,-0.0010743103921413422,0.035147398710250854,0.0979887992143631,9.272300720214844,-1.8003875017166138,-3.3613369464874268
1403715273957143000,0.07452565431594849,0.03101976215839386,0.10245956480503082,9.071571350097656,-0.7310385704040527,-3.649792194366455
1403715273962143000,0.08751431107521057,0.03887902945280075,0.07194065302610397,9.207015991210938,0.25233110785484314,-3.669480085372925
1403715273967143000,0.07067655026912689,0.03658386319875717,0.08160599321126938,8.621018409729004,0.21165414154529572,-3.655524969100952
1403715273972143000,0.07697398960590363,0.0020894519984722137,0.07602383196353912,9.06692886352539,-0.2898001968860626,-3.733799695968628
1403715273977143000,0.09770002961158752,0.03251461684703827,0.07742888480424881,9.276934623718262,-0.3501853346824646,-3.7883124351501465
1403715273982143000,0.11183233559131622,0.010266564786434174,0.06897509098052979,8.995726585388184,1.0746020078659058,-3.822822332382202
1403715273987143000,0.021023254841566086,0.032824769616127014,0.060393985360860825,9.144803047180176,2.4606575965881348,-3.9618568420410156
1403715273992143000,-0.12147491593880534,0.006981317007977318,0.07749261878854824,8.7279185,3.3751220416666667,-3.906315583333333
1403715273997143000,-0.2493610680103302,0.017263442277908325,0.08274086564779282,9.49476146697998,2.1916544437408447,-4.059051990509033
1403715274002143000,-0.2851485311985016,0.022190898656845093,0.10029546171426773,8.745018005371094,-0.6349770426750183,-3.309709310531616
1403715274007143000,-0.18709929581379212,-0.0020943951023931952,0.10890854532444616,9.250939833333334,-3.317916583333333,-3.505877375
1403715274012143000,0.014660765716752367,0.041189770347066175,0.09145525280450287,8.932223708333334,-4.339442625,-2.982856041666666
1403715274017143000,0.19674137234687805,0.01491987332701683,0.08159653842449188,9.355900764465332,-2.8867640495300293,-3.738812208175659
1403715274022143000,0.28388068079948425,0.03335599601268768,0.066441610455513,9.545748710632324,-0.09870615601539612,-3.8545587062835693
1403715274027143000,0.2203768491744995,0.06656266748905182,0.027162492275238037,8.939126968383789,2.097634792327881,-4.016610145568848
1403715274032143000,0.11030480872604163,0.03420845333908886,0.039793506945470715,8.155863916666666,2.9174783749999995,-3.6448049166666663
1403715274037143000,-0.018743157386779785,0.0027016662061214447,0.07214730978012085,9.160901069641113,2.1013481616973877,-4.087965488433838
1403715274042143000,-0.10706594586372375,-0.00041351839900016785,0.1235300675034523,9.04831314086914,1.1590368747711182,-3.9563653469085693
1403715274047143000,-0.14112120866775513,0.009558051824569702,0.12338068336248398,9.076861381530762,0.519291341304779,-3.889436721801758
1403715274052143000,-0.13510413467884064,0.025009065866470337,0.1473819464445114,9.066474914550781,-0.13438616693019867,-3.5045316219329834
1403715274057143000,-0.11589910089969635,0.01883036643266678,0.10840185731649399,9.434318542480469,-0.8989213109016418,-3.7919397354125977
1403715274062143000,-0.05742018297314644,0.04308387637138367,0.08123453706502914,9.374601364135742,-1.440561294555664,-3.5372605323791504
1403715274067143000,0.02000502496957779,0.034138478338718414,0.06394559890031815,9.010056495666504,-1.5402283668518066,-3.4616928100585938
1403715274072143000,0.09679809212684631,0.042404986917972565,0.04932840168476105,9.222667694091797,-1.3880035877227783,-3.6137197017669678
1403715274077143000,0.14970843493938446,0.04081055521965027,0.06280839443206787,8.76256275177002,-0.355290949344635,-3.6849524974823
1403715274082143000,0.13683943450450897,0.04523526132106781,0.06454925239086151,9.362217903137207,1.3213576078414917,-3.99566912651062
1403715274087143000,0.06271359324455261,0.04329073429107666,0.08557819575071335,8.734705924987793,2.0212743282318115,-3.77365779876709
1403715274092143000,-0.03114018589258194,0.01925458014011383,0.08967064321041107,8.617362976074219,1.8229211568832397,-3.847264289855957
1403715274097143000,-0.11370755732059479,0.007472172379493713,0.0935584157705307,9.023056983947754,0.851897656917572,-3.673978090286255
1403715274102143000,-0.13075928390026093,0.009549383074045181,0.10609797388315201,9.024285316467285,0.07940414547920227,-3.7279365062713623
1403715274107143000,-0.10563653707504272,0.006186041980981827,0.10961121320724487,9.278072357177734,-0.5514482259750366,-3.65271258354187
1403715274112143000,-0.06751127541065216,0.02599789947271347,0.1073065921664238,8.983162879943848,-0.9601503610610962,-3.4084670543670654
1403715274117143000,0.0013528615236282349,0.00813884288072586,0.1013701856136322,9.004188537597656,-1.2907485961914062,-3.418671131134033
1403715274122143000,0.06228705868124962,0.014141369611024857,0.07860975712537766,9.601771354675293,-1.1314653158187866,-3.711212158203125
1403715274127143000,0.09807589650154114,0.0434478223323822,0.05321723595261574,9.22258472442627,-0.3297634720802307,-3.6281559467315674
1403715274132143000,0.10553768277168274,0.0225788876414299,0.05180776119232178,8.746883392333984,0.32950615882873535,-3.6897969245910645
1403715274137143000,0.07935605943202972,0.03637893497943878,0.06521694362163544,9.196864128112793,1.1112076044082642,-3.7365729808807373
1403715274142143000,0.03377964720129967,0.026338040828704834,0.09200272709131241,8.60310173034668,1.5444532632827759,-3.6481716632843018
1403715274147143000,-0.032528359442949295,0.003656987100839615,0.10225597769021988,9.159467697143555,1.2633893489837646,-3.8042352199554443
1403715274152143000,-0.09000104665756226,0.006775207817554474,0.09607034921646118,8.940308570861816,0.4977990686893463,-3.662980794906616
1403715274157143000,-0.08878697454929352,-0.006210997700691223,0.08539736270904541,9.070428848266602,-0.4738542437553406,-3.6760025024414062
1403715274162143000,-0.04711262881755829,0.018843162804841995,0.07908929884433746,9.438319206237793,-0.8727558851242065,-3.7165637016296387
1403715274167143000,0.004206974059343338,0.021867111325263977,0.07932589948177338,8.960572242736816,-0.6580913066864014,-3.581087827682495
1403715274172143000,0.030571099370718002,0.017423253506422043,0.08009955286979675,9.014594078063965,-0.2000444084405899,-3.5837488174438477
1403715274177143000,0.02789979800581932,0.019612528383731842,0.08916513621807098,8.892987251281738,0.3131956160068512,-3.688687324523926
1403715274182143000,0.008583296090364456,0.008794039487838745,0.08944099396467209,9.016803741455078,0.40556800365448,-3.696896553039551
1403715274187143000,-0.002557847648859024,0.021509073674678802,0.0906488299369812,9.377389907836914,0.13851520419120789,-3.9259772300720215
1403715274192143000,0.006805282086133957,0.032418541610240936,0.07426595687866211,9.024848937988281,-0.4822843372821808,-3.599607229232788
1403715274197143000,0.0418265201151371,0.02848900854587555,0.07950511574745178,9.168597221374512,-0.4819880723953247,-3.662754535675049
1403715274202143000,0.06773671507835388,0.03541799634695053,0.06785079091787338,8.9618558883667,0.06456606090068817,-3.6342806816101074
1403715274207143000,0.04381502792239189,0.01384364441037178,0.06646432727575302,8.931370735168457,1.1261298656463623,-3.807694435119629
1403715274212143000,-0.015705225989222527,0.020719781517982483,0.074981190264225,8.982016563415527,1.4312334060668945,-3.867774724960327
1403715274217143000,-0.07673771679401398,0.0047302767634391785,0.07398853451013565,9.028485298156738,0.9648838043212891,-3.8065974712371826
1403715274222143000,-0.09401139616966248,0.005936078727245331,0.08470320701599121,9.203508377075195,0.09589631110429764,-3.715503692626953
1403715274227143000,-0.07404695451259613,0.013515654951334,0.07737085223197937,9.060260772705078,-0.7058588862419128,-3.561072587966919
1403715274232143000,-0.024207118898630142,0.013941943645477295,0.07178179919719696,9.180530548095703,-0.9744836688041687,-3.620922565460205
1403715274237143000,0.020929310470819473,0.029038548469543457,0.0679241418838501,9.179058074951172,-0.5629357099533081,-3.4870195388793945
1403715274242143000,0.040851566940546036,0.01794356107711792,0.06395671516656876,8.855121612548828,-0.24572578072547913,-3.623436689376831
1403715274247143000,0.04605628177523613,0.01479426771402359,0.06644438207149506,8.879603385925293,0.2613809406757355,-3.498763084411621
1403715274252143000,0.033964332193136215,0.0030681975185871124,0.06991418451070786,9.083072662353516,0.40385162830352783,-3.761183500289917
1403715274257143000,0.01073690876364708,0.0048860833048820496,0.07937510311603546,8.877708435058594,0.41153374314308167,-3.6989028453826904
1403715274262143000,-0.006190318614244461,0.0005671940743923187,0.08675293624401093,9.252452850341797,0.5763465762138367,-3.8734045028686523
1403715274267143000,-0.02192324586212635,0.012100860476493835,0.09415244311094284,9.098522186279297,0.45046374201774597,-3.770793914794922
1403715274272143000,-0.04404030740261078,0.009401850402355194,0.08545764535665512,9.011506080627441,0.3783106505870819,-3.6999289989471436
1403715274277143000,-0.046835314482450485,0.0030425749719142914,0.09833898395299911,9.079084396362305,0.02683262713253498,-3.6984920501708984
1403715274282143000,-0.03731382638216019,0.0018718913197517395,0.08745315670967102,8.905935287475586,-0.2945460379123688,-3.5619759559631348
1403715274287143000,-0.014020059257745743,-0.0033946484327316284,0.08903413265943527,9.262367248535156,-0.41056209802627563,-3.7430419921875
1403715274292143000,0.010464008897542953,0.007598597556352615,0.0742766484618187,9.284960746765137,-0.33953946828842163,-3.7742772102355957
1403715274297143000,0.030485767871141434,0.0185098797082901,0.06688608974218369,9.276329040527344,-0.1607743501663208,-3.7586770057678223
1403715274302143000,0.038990844041109085,0.03065568208694458,0.05850032716989517,9.082084655761719,0.1767529398202896,-3.7690370082855225
1403715274307143000,0.03031792864203453,0.03768368065357208,0.05674999952316284,9.125568389892578,0.586444079875946,-3.84250807762146
1403715274312143000,0.0005187764763832092,0.03770899772644043,0.07421915978193283,8.849167823791504,0.6712591052055359,-3.685976982116699
1403715274317143000,-0.02616318129003048,0.019498389214277267,0.07117050141096115,8.844216346740723,0.5043500661849976,-3.7428674697875977
1403715274322143000,-0.04224987328052521,0.008511856198310852,0.08033519983291626,8.980618476867676,0.3421745300292969,-3.7649006843566895
1403715274327143000,-0.04578273743391037,0.015218570828437805,0.08100467175245285,9.163287162780762,0.15480296313762665,-3.811277389526367
1403715274332143000,-0.03659402206540108,0.029559127986431122,0.07559046894311905,9.239069938659668,-0.1823836863040924,-3.801694631576538
1403715274337143000,-0.02167128026485443,0.03858418017625809,0.06914304941892624,9.206043243408203,-0.31073683500289917,-3.7128725051879883
1403715274342143000,0.001716557890176773,0.04205307364463806,0.07298975437879562,9.110279083251953,-0.37461161613464355,-3.5851335525512695
1403715274347143000,0.0228409506380558,0.038694269955158234,0.081186942756176,8.808774948120117,-0.20630988478660583,-3.6014797687530518
1403715274352143000,0.030255358666181564,0.02073211967945099,0.07644886523485184,9.0189208984375,0.230866476893425,-3.6427319049835205
1403715274357143000,0.020873166620731354,0.016998741775751114,0.08607236295938492,9.016934394836426,0.4509741961956024,-3.746251344680786
1403715274362143000,-0.0015362054109573364,0.011434953659772873,0.07407286018133163,9.088876724243164,0.6789411306381226,-3.819739580154419
1403715274367143000,-0.03509758412837982,0.02219284325838089,0.07803913950920105,9.44516658782959,0.6132805347442627,-3.881711959838867
1403715274372143000,-0.048272788524627686,0.035950519144535065,0.08034761250019073,9.002657890319824,0.21467144787311554,-3.7402420043945312
1403715274377143000,-0.040645308792591095,0.027846932411193848,0.07525533437728882,8.993254661560059,-0.43840649724006653,-3.4838368892669678
1403715274382143000,0.006033655256032944,0.020510703325271606,0.08432045578956604,8.8820161819458,-0.9267585277557373,-3.3588593006134033
1403715274387143000,0.05033128336071968,0.003748752176761627,0.06360112130641937,8.829683303833008,-0.7873727679252625,-3.4213528633117676
1403715274392143000,0.08038657903671265,-0.005840294063091278,0.06603072583675385,9.293002128601074,0.07460661232471466,-3.709923505783081
1403715274397143000,0.06015157327055931,0.00679992139339447,0.057285625487565994,9.17522144317627,0.9431192874908447,-3.8811423778533936
1403715274402143000,0.0036387741565704346,0.015725165605545044,0.0684371218085289,9.156951904296875,1.5962547063827515,-3.9562673568725586
1403715274407143000,-0.06666067987680435,0.024297580122947693,0.0908978059887886,9.300542831420898,1.3826419115066528,-3.9144210815429688
1403715274412143000,-0.11982779204845428,0.030837029218673706,0.09683601558208466,8.897185325622559,0.12868784368038177,-3.615267753601074
1403715274417143000,-0.0980369821190834,0.024130716919898987,0.11037783324718475,8.865457534790039,-0.8670583963394165,-3.4596567153930664
1403715274422143000,-0.026002097874879837,0.011007159948348999,0.09863553196191788,8.928369522094727,-1.4856841564178467,-3.47534441947937
1403715274427143000,0.05010794475674629,0.006571639329195023,0.08507237583398819,8.991654396057129,-1.250361680984497,-3.5041441917419434
1403715274432143000,0.09072811901569366,0.013380710035562515,0.06193143129348755,9.443928718566895,-0.35691604018211365,-3.872824192047119
1403715274437143000,0.0856454074382782,0.03269457072019577,0.051934048533439636,9.270441055297852,0.6540625095367432,-3.979740619659424
1403715274442143000,0.04815675690770149,0.04501493275165558,0.06162244454026222,8.974806785583496,1.1279990673065186,-3.798227310180664
1403715274447143000,-0.0016043595969676971,0.03311692178249359,0.07382018119096756,8.941817283630371,1.2253108024597168,-3.7242519855499268
1403715274452143000,-0.04898490756750107,0.029711179435253143,0.08926085382699966,8.909276962280273,0.950472354888916,-3.7055652141571045
1403715274457143000,-0.07947148382663727,0.024201571941375732,0.0949963629245758,9.157621383666992,0.5190929174423218,-3.6314637660980225
1403715274462143000,-0.07392673194408417,0.019253447651863098,0.10058505088090897,8.984794616699219,-0.22692136466503143,-3.5964653491973877
1403715274467143000,-0.06400199234485626,0.016383398324251175,0.06833933293819427,9.020912170410156,-0.506107747554779,-3.656620740890503
1403715274472143000,-0.022003736346960068,0.02470475435256958,0.06334256380796432,9.466938018798828,-0.562515377998352,-3.804318428039551
1403715274477143000,0.015854094177484512,0.04232758283615112,0.06264904141426086,9.10951042175293,-0.7791092395782471,-3.604027032852173
1403715274482143000,0.046388570219278336,0.0472964271903038,0.059129975736141205,9.021027565002441,-0.31101441383361816,-3.5284807682037354
1403715274487143000,0.06561057269573212,0.03261275589466095,0.07583542168140411,8.833351135253906,-0.010950564406812191,-3.6010773181915283
1403715274492143000,0.0588933490216732,0.02682468295097351,0.06107763200998306,8.959467887878418,0.47682517766952515,-3.722625255584717
1403715274497143000,0.03403548523783684,0.013335034251213074,0.061839163303375244,8.997140884399414,0.6741085052490234,-3.62992000579834
1403715274502143000,-0.007186856120824814,0.0026571303606033325,0.04639805108308792,9.090290069580078,0.8874174952507019,-3.916630268096924
1403715274507143000,-0.04305722564458847,0.01335238665342331,0.05376617610454559,9.016112327575684,0.7187184691429138,-3.74914288520813
1403715274512143000,-0.06082102656364441,0.016903869807720184,0.07280149310827255,9.368369102478027,0.10962837189435959,-3.8737592697143555
1403715274517143000,-0.05801248177886009,0.026705272495746613,0.09269247204065323,8.81283187866211,-0.0629165843129158,-3.724358081817627
1403715274522143000,-0.04506687819957733,0.029618054628372192,0.10659893602132797,8.994893074035645,-0.2819697856903076,-3.5396838188171387
1403715274527143000,-0.010866165161132812,0.023128420114517212,0.10798881947994232,9.198006629943848,-0.46612638235092163,-3.6958916187286377
1403715274532143000,0.014402102679014206,0.015644419938325882,0.08716525137424469,8.854832649230957,-0.5203422904014587,-3.4794745445251465
1403715274537143000,0.034227561205625534,0.00801718607544899,0.07591670751571655,9.18664264678955,-0.23387038707733154,-3.718066692352295
1403715274542143000,0.04403209313750267,0.014423612505197525,0.06752327084541321,8.923912048339844,-0.14792531728744507,-3.663201332092285
1403715274547143000,0.046040307730436325,0.01447904109954834,0.07033580541610718,9.376466751098633,0.30631768703460693,-3.8304288387298584
1403715274552143000,0.03134823963046074,0.0275254026055336,0.07979051768779755,9.114544868469238,0.6146290302276611,-3.7394957542419434
1403715274557143000,4.377588629722595e-05,0.025762826204299927,0.08150814473628998,8.931459426879883,0.8665156960487366,-3.8142592906951904
1403715274562143000,-0.02666393481194973,0.017424151301383972,0.0769449770450592,9.036890029907227,0.36785948276519775,-3.5905919075012207
1403715274567143000,-0.038002073764801025,0.023135676980018616,0.06652458757162094,9.11833381652832,0.19530881941318512,-3.764660596847534
1403715274572143000,-0.03936336934566498,0.016455721110105515,0.05354290455579758,9.024767875671387,0.16937042772769928,-3.7156026363372803
1403715274577143000,-0.04340840131044388,0.02097479999065399,0.06208869069814682,9.253127098083496,0.34261927008628845,-3.793670177459717
1403715274582143000,-0.04159108176827431,0.03833210468292236,0.08167919516563416,9.009919166564941,0.25410929322242737,-3.793684959411621
1403715274587143000,-0.03851507604122162,0.020834684371948242,0.08215460926294327,8.888683319091797,-0.2777078151702881,-3.4908342361450195
1403715274592143000,-0.013383476063609123,0.03820350766181946,0.09255355596542358,9.289366722106934,-0.3292796015739441,-3.7910096645355225
1403715274597143000,0.02046101912856102,0.030449286103248596,0.08550766855478287,8.587069511413574,-0.9773625731468201,-3.3077635765075684
1403715274602143000,0.06570889055728912,0.013947110623121262,0.07086391746997833,9.441486358642578,-0.7926573157310486,-3.7157769203186035
1403715274607143000,0.09867122769355774,0.03224506229162216,0.07482589781284332,8.76968002319336,-0.012919852510094643,-3.575805902481079
1403715274612143000,0.07399673759937286,0.008819155395030975,0.05052589997649193,9.094541549682617,0.9345647692680359,-3.748889207839966
1403715274617143000,0.025823067873716354,0.026320159435272217,0.06655500829219818,9.295411109924316,1.4551156759262085,-3.8828206062316895
1403715274622143000,-0.042944394052028656,0.021475888788700104,0.06247566640377045,8.790360450744629,1.1399462223052979,-3.7459092140197754
1403715274627143000,-0.08080806583166122,0.01340395212173462,0.07601556181907654,9.33808422088623,0.5337086319923401,-3.875337839126587
1403715274632143000,-0.08481991291046143,0.026888631284236908,0.10108016431331635,8.732686996459961,-0.13624627888202667,-3.541943311691284
1403715274637143000,-0.06754077970981598,0.017668303102254868,0.08052247762680054,9.210756301879883,-0.648602306842804,-3.505701780319214
1403715274642143000,-0.019736189395189285,0.025806866586208344,0.08243245631456375,9.414143562316895,-0.833629846572876,-3.740123987197876
1403715274647143000,0.02072930708527565,0.022728778421878815,0.06133327633142471,8.767162322998047,-0.5669634342193604,-3.573564052581787
1403715274652143000,0.047269273549318314,0.02696174383163452,0.055283986032009125,9.612258911132812,-0.22221344709396362,-3.8584377765655518
1403715274657143000,0.05551948770880699,0.035309724509716034,0.05073883384466171,8.839987754821777,-0.10618812590837479,-3.6484804153442383
1403715274662143000,0.05452638491988182,0.03254808485507965,0.0533197782933712,9.21668815612793,0.3594440519809723,-3.808162212371826
1403715274667143000,0.038602348417043686,0.04509429633617401,0.07628192752599716,9.101576805114746,0.6228110194206238,-3.826965093612671
1403715274672143000,-0.0013901032507419586,0.032757312059402466,0.0821872353553772,8.613993644714355,1.0780936479568481,-3.8798084259033203
1403715274677143000,-0.04062053933739662,0.025914624333381653,0.09218133985996246,9.263742446899414,0.8604090213775635,-3.8932278156280518
1403715274682143000,-0.07302040606737137,0.02307744324207306,0.09740401059389114,8.85987663269043,0.31306448578834534,-3.6147613525390625
1403715274687143000,-0.0715705007314682,0.01349359005689621,0.09897039830684662,8.878223419189453,-0.25950193405151367,-3.6360082626342773
1403715274692143000,-0.040279489010572433,0.01888415217399597,0.09420884400606155,9.140586853027344,-0.7261592149734497,-3.504560947418213
1403715274697143000,0.004834160208702087,0.023088447749614716,0.0836067795753479,9.273177146911621,-0.9180487990379333,-3.6281325817108154
1403715274702143000,0.04747762903571129,0.03404749929904938,0.08226010203361511,9.038961410522461,-0.48216983675956726,-3.5816545486450195
1403715274707143000,0.062058623880147934,0.03947286307811737,0.07051798701286316,9.544988632202148,0.0742126926779747,-3.788789749145508
1403715274712143000,0.04792303219437599,0.051194071769714355,0.06815110892057419,8.795392036437988,0.5452625155448914,-3.651108503341675
1403715274717143000,0.015026558190584183,0.032197557389736176,0.05942296236753464,9.051741600036621,0.837917685508728,-3.7103657722473145
1403715274722143000,-0.013987908139824867,0.03322301805019379,0.07501044124364853,9.075722694396973,0.6260949373245239,-3.6618757247924805
1403715274727143000,-0.03931104391813278,0.02194312959909439,0.0718550905585289,8.523192405700684,0.4457715153694153,-3.5910050868988037
1403715274732143000,-0.04464816674590111,0.005492907017469406,0.08021874725818634,9.091115951538086,0.20701640844345093,-3.573164463043213
1403715274737143000,-0.04483430087566376,0.00032477080821990967,0.08383612334728241,8.952794075012207,-0.12304558604955673,-3.7060251235961914
1403715274742143000,-0.02569662779569626,0.006419006735086441,0.07218325138092041,9.275232315063477,-0.21592168509960175,-3.687901020050049
1403715274747143000,-0.0019448846578598022,0.021064549684524536,0.08338359743356705,9.246430397033691,-0.22890037298202515,-3.7106430530548096
1403715274752143000,0.0044138990342617035,0.0318988561630249,0.06217430531978607,9.022467613220215,-0.14638939499855042,-3.5688109397888184
1403715274757143000,0.02394382283091545,0.019163940101861954,0.08927688747644424,8.993806838989258,0.04530917480587959,-3.5852506160736084
1403715274762143000,0.02288493886590004,0.023871690034866333,0.06834374368190765,9.218534469604492,-0.1403760015964508,-3.6237118244171143
1403715274767143000,0.030632194131612778,0.014934003353118896,0.09291862696409225,8.876718521118164,0.33207690715789795,-3.562481164932251
1403715274772143000,0.010676555335521698,0.00885913148522377,0.06868304312229156,9.122368812561035,0.29357582330703735,-3.7529077529907227
1403715274777143000,-0.0006279796361923218,0.012742333114147186,0.0848170593380928,9.325071334838867,0.5662012100219727,-3.926774263381958
1403715274782143000,-0.018274787813425064,0.026872754096984863,0.07860957831144333,9.299250602722168,0.33932268619537354,-3.8882856369018555
1403715274787143000,-0.028747905045747757,0.03849084675312042,0.08111169934272766,9.135093688964844,0.49778565764427185,-3.8274168968200684
1403715274792143000,-0.04221409186720848,0.03613976389169693,0.08621068298816681,8.669515609741211,-0.035961415618658066,-3.6290221214294434
1403715274797143000,-0.03076399862766266,0.023283950984477997,0.07945485413074493,9.109048843383789,-0.27024707198143005,-3.6272218227386475
1403715274802143000,-0.0042424388229846954,0.02689988911151886,0.09172795712947845,9.131593704223633,-0.5166017413139343,-3.6632869243621826
1403715274807143000,0.011448636651039124,0.016747739166021347,0.07000254839658737,8.753989219665527,-0.13447721302509308,-3.569866895675659
1403715274812143000,0.018708012998104095,0.01011136919260025,0.0708397626876831,9.183399200439453,-0.007293482776731253,-3.7587735652923584
1403715274817143000,0.026776354759931564,0.02231648564338684,0.07107196748256683,9.345572471618652,0.2650911509990692,-3.822474479675293
1403715274822143000,0.0208178348839283,0.04027321934700012,0.0725744366645813,9.42739486694336,0.5450236797332764,-3.9353010654449463
1403715274827143000,-0.005487330257892609,0.0430920273065567,0.06969357281923294,8.73720645904541,0.6538699865341187,-3.6396758556365967
1403715274832143000,-0.02958901971578598,0.03267282247543335,0.06656338274478912,8.902976036071777,0.24712541699409485,-3.6224918365478516
1403715274837143000,-0.022121185436844826,0.02686505764722824,0.09236831963062286,9.012351036071777,-0.15390528738498688,-3.6752846240997314
1403715274842143000,-0.01350037008523941,0.01598712056875229,0.08937881141901016,8.926451683044434,-0.12376680225133896,-3.618713617324829
1403715274847143000,-0.017065901309251785,0.0016519799828529358,0.095746248960495,8.990696907043457,0.23890472948551178,-3.7297065258026123
1403715274852143000,-0.01719871163368225,0.015270013362169266,0.08437023311853409,9.142723083496094,-0.08743949979543686,-3.743675947189331
1403715274857143000,-0.0033531971275806427,0.0274970680475235,0.0787370353937149,9.491939544677734,-0.20667845010757446,-3.741994857788086
1403715274862143000,0.010394986718893051,0.03132817894220352,0.06712187826633453,9.022332191467285,-0.2544521391391754,-3.5535740852355957
1403715274867143000,0.012241721153259277,0.03422660380601883,0.057500340044498444,9.07583236694336,0.12855760753154755,-3.6429240703582764
1403715274872143000,0.01722683385014534,0.02028239518404007,0.08056677132844925,8.819525718688965,0.03707997873425484,-3.586737871170044
1403715274877143000,0.017574556171894073,0.02745739370584488,0.08730713278055191,9.04917049407959,0.038452234119176865,-3.62563419342041
1403715274882143000,0.012489806860685349,0.015362970530986786,0.10577042400836945,8.982625961303711,0.3323710858821869,-3.657182455062866
1403715274887143000,-0.01671842858195305,0.012858264148235321,0.08444499224424362,9.128018379211426,0.6023505330085754,-3.690608263015747
1403715274892143000,-0.03394675254821777,0.017560366541147232,0.08187573403120041,9.201963424682617,0.32976916432380676,-3.7534267902374268
1403715274897143000,-0.040871888399124146,0.019025005400180817,0.06994479894638062,9.106258392333984,-0.17069324851036072,-3.649655818939209
1403715274902143000,-0.015480674803256989,0.018128667026758194,0.06836237758398056,9.218684196472168,-0.1653139740228653,-3.6415317058563232
1403715274907143000,0.0007047876715660095,0.019813910126686096,0.073344387114048,8.898259162902832,-0.1904083490371704,-3.6097917556762695
1403715274912143000,0.014370005577802658,0.018478699028491974,0.07949487119913101,9.041827201843262,-0.07236263900995255,-3.6567366123199463
1403715274917143000,0.024031292647123337,0.01938953995704651,0.0997878909111023,9.192211151123047,-0.040146492421627045,-3.7580149173736572
1403715274922143000,0.019000887870788574,0.01957421749830246,0.08141019940376282,9.111465454101562,0.32118749618530273,-3.689084768295288
1403715274927143000,0.004994619637727737,0.021362200379371643,0.08289352059364319,9.226829528808594,0.6404986381530762,-3.778001546859741
1403715274932143000,-0.021139468997716904,0.023951232433319092,0.06721020489931107,8.874817848205566,0.43650203943252563,-3.6921558380126953
1403715274937143000,-0.02008861117064953,0.01899005100131035,0.07130137085914612,9.077167510986328,-0.00044459252967499197,-3.7461190223693848
1403715274942143000,-0.013643123209476471,0.01164345070719719,0.07120614498853683,9.100707054138184,-0.0827331468462944,-3.698593854904175
1403715274947143000,-0.0049181245267391205,0.02200489491224289,0.08147833496332169,9.017313957214355,0.15233498811721802,-3.706592321395874
1403715274952143000,-0.006310399621725082,0.017045199871063232,0.0924237072467804,9.009312629699707,0.12807954847812653,-3.705911159515381
1403715274957143000,-0.003076203167438507,0.02559555321931839,0.08817054331302643,9.257288932800293,-0.10233055800199509,-3.7991387844085693
1403715274962143000,0.001318909227848053,0.028551355004310608,0.0875086560845375,9.2000732421875,-0.00838632695376873,-3.7284317016601562
1403715274967143000,-0.00518379732966423,0.02301832288503647,0.06993717700242996,8.970083236694336,0.1119387298822403,-3.5798609256744385
1403715274972143000,-0.005981583148241043,0.012922458350658417,0.07200171798467636,8.939717292785645,0.14636099338531494,-3.619359016418457
1403715274977143000,-0.00021953508257865906,0.008699901401996613,0.06728679686784744,9.106612205505371,-0.1371726244688034,-3.776501417160034
1403715274982143000,0.011987093836069107,0.020771808922290802,0.07940243929624557,9.27255916595459,0.01257255394011736,-3.7682182788848877
1403715274987143000,0.010635990649461746,0.025225281715393066,0.08283037692308426,9.136191368103027,0.16916316747665405,-3.737543821334839
1403715274992143000,0.0006290562450885773,0.024143271148204803,0.09170175343751907,8.98011302947998,0.423876017332077,-3.857243776321411
1403715274997143000,-0.016183368861675262,0.029225826263427734,0.08758799731731415,9.319397926330566,0.2572406232357025,-3.8487555980682373
1403715275002143000,-0.02028418332338333,0.041307732462882996,0.08199252933263779,8.962394714355469,0.0452108234167099,-3.564836025238037
1403715275007143000,-0.0179759468883276,0.021895766258239746,0.07619798928499222,8.86644172668457,-0.12453203648328781,-3.6039516925811768
1403715275012143000,-0.009607614949345589,0.009208325296640396,0.08028431981801987,8.818307876586914,-0.08644433319568634,-3.6344077587127686
1403715275017143000,0.00401097908616066,0.011336859315633774,0.08156430721282959,9.158079147338867,-0.17326973378658295,-3.7040066719055176
1403715275022143000,0.016706310212612152,0.02424803376197815,0.08152805268764496,9.196176528930664,-0.061540745198726654,-3.7435123920440674
1403715275027143000,0.017199497669935226,0.025070004165172577,0.07010757178068161,9.223642349243164,0.16028445959091187,-3.760181427001953
1403715275032143000,0.0104629285633564,0.039444006979465485,0.07387126982212067,9.186549186706543,0.4713861644268036,-3.770292282104492
1403715275037143000,-0.009574439376592636,0.03488931059837341,0.07235028594732285,8.95695686340332,0.39517712593078613,-3.708400011062622
1403715275042143000,-0.02027689293026924,0.033526115119457245,0.06772845983505249,9.013474464416504,0.2211795151233673,-3.6607184410095215
1403715275047143000,-0.02282591536641121,0.022694692015647888,0.08342698216438293,8.842272758483887,0.1092589795589447,-3.5648996829986572
1403715275052143000,-0.012306861579418182,0.012238040566444397,0.08624477684497833,8.982926368713379,-0.020456824451684952,-3.5708823204040527
1403715275057143000,-0.007290493696928024,0.011110372841358185,0.08573347330093384,9.157194137573242,-0.07805290073156357,-3.6721866130828857
1403715275062143000,0.0018130168318748474,0.019163575023412704,0.07255186140537262,9.180571556091309,-0.038329899311065674,-3.664149284362793
1403715275067143000,0.006921634078025818,0.021642446517944336,0.06933416426181793,9.36058521270752,0.05564144253730774,-3.798875331878662
1403715275072143000,0.0066083818674087524,0.03264737129211426,0.07967822253704071,9.04333209991455,0.31887054443359375,-3.6663687229156494
1403715275077143000,-0.0028236620128154755,0.030384361743927002,0.07633058726787567,9.085928916931152,0.34458646178245544,-3.7146201133728027
1403715275082143000,-0.01197347603738308,0.024943888187408447,0.0813864916563034,8.916611671447754,0.205084890127182,-3.5643694400787354
1403715275087143000,-0.00841548666357994,0.02425175905227661,0.08224077522754669,9.04152774810791,-0.03469077870249748,-3.610579013824463
1403715275092143000,0.0017017722129821777,0.016270596534013748,0.10110783576965332,8.966979026794434,0.05083262920379639,-3.633112668991089
1403715275097143000,-0.005449511110782623,0.014387495815753937,0.08408357203006744,8.935115814208984,0.19492390751838684,-3.657252550125122
1403715275102143000,-0.003867845982313156,0.010476242750883102,0.08555004000663757,9.273090362548828,0.14618396759033203,-3.751236915588379
1403715275107143000,-0.00849350169301033,0.014413293451070786,0.06748168915510178,9.137657165527344,-0.029232196509838104,-3.760563611984253
1403715275112143000,-0.0023235492408275604,0.023653611540794373,0.07345741987228394,9.180569648742676,0.2777593433856964,-3.8249993324279785
1403715275117143000,-0.007261138409376144,0.023794397711753845,0.07172704488039017,8.907490730285645,0.11376901715993881,-3.5880072116851807
1403715275122143000,-0.011837070807814598,0.021960392594337463,0.06731760501861572,9.222026824951172,0.12230841815471649,-3.833415985107422
1403715275127143000,-0.006953202188014984,0.025012746453285217,0.08015329390764236,9.032014846801758,-0.15499401092529297,-3.6099255084991455
1403715275132143000,0.0015079155564308167,0.021610230207443237,0.08540787547826767,9.073469161987305,0.07459372282028198,-3.721309185028076
1403715275137143000,0.005153011530637741,0.015122935175895691,0.08755739033222198,8.99205207824707,0.10642016679048538,-3.633620500564575
1403715275142143000,-0.0012242570519447327,0.012109965085983276,0.08143209666013718,9.147907257080078,0.3212021589279175,-3.7689085006713867
1403715275147143000,-0.004625927656888962,0.02078022062778473,0.0715920627117157,9.259115219116211,0.17039234936237335,-3.816549062728882
1403715275152143000,-0.006764329969882965,0.018993936479091644,0.07077880203723907,9.011752128601074,0.17041195929050446,-3.763023614883423
1403715275157143000,-0.007983818650245667,0.027207791805267334,0.07170874625444412,9.003059387207031,0.12937462329864502,-3.6440281867980957
1403715275162143000,-0.014661340042948723,0.01770038530230522,0.07931718230247498,9.077848434448242,0.18507179617881775,-3.7470014095306396
1403715275167143000,-0.007869977504014969,0.027751632034778595,0.0847373828291893,9.1857271194458,-0.06023115664720535,-3.768817663192749
1403715275172143000,0.0016763508319854736,0.029694825410842896,0.09354978054761887,9.031641006469727,-0.08473221212625504,-3.6813998222351074
1403715275177143000,0.007302578538656235,0.026695653796195984,0.08751816302537918,9.000154495239258,-0.030255092307925224,-3.6020166873931885
1403715275182143000,0.005590908229351044,0.02253282070159912,0.07878580689430237,9.162240982055664,0.20008014142513275,-3.681335210800171
1403715275187143000,0.005352448672056198,0.018777113407850266,0.07676263153553009,9.082993507385254,0.21757648885250092,-3.753486394882202
1403715275192143000,-0.005024723708629608,0.022795170545578003,0.06451602280139923,9.065688133239746,0.15549854934215546,-3.627546548843384
1403715275197143000,-0.00552019476890564,0.018377359956502914,0.07066014409065247,9.116804122924805,0.17813092470169067,-3.8100221157073975
1403715275202143000,-0.011316381394863129,0.025713957846164703,0.06904880702495575,9.065778732299805,0.1944318264722824,-3.6114754676818848
1403715275207143000,-0.01248658262193203,0.027861982583999634,0.08547444641590118,9.21160888671875,0.10606232285499573,-3.800882339477539
1403715275212143000,-0.011807840317487717,0.03179169446229935,0.08322131633758545,8.823826789855957,0.021128971129655838,-3.484002113342285
1403715275217143000,-0.006260644644498825,0.02005038410425186,0.08421497792005539,9.121925354003906,-0.06923504918813705,-3.641512393951416
1403715275222143000,0.004333559423685074,0.02364225685596466,0.08889984339475632,9.016512870788574,0.03298821672797203,-3.6012213230133057
1403715275227143000,0.003693047910928726,0.01143745705485344,0.07475931197404861,8.983736038208008,0.14484234154224396,-3.657517671585083
1403715275232143000,-0.0003205202519893646,0.01770571991801262,0.0721481442451477,9.04922866821289,0.12994444370269775,-3.7130985260009766
1403715275237143000,-0.003849402070045471,0.01574714109301567,0.06515533477067947,9.049198150634766,0.05174142122268677,-3.6897542476654053
1403715275242143000,0.001284811645746231,0.021993741393089294,0.07935129851102829,9.297840118408203,0.14470423758029938,-3.8314168453216553
1403715275247143000,-0.0031822435557842255,0.025012493133544922,0.08442356437444687,8.863988876342773,0.2670463025569916,-3.571845293045044
1403715275252143000,-0.008462533354759216,0.019887182861566544,0.08886983245611191,9.180163383483887,0.1623493880033493,-3.7852392196655273
1403715275257143000,-0.01112334057688713,0.025643765926361084,0.08771274238824844,8.922114372253418,0.004458137322217226,-3.64201283454895
1403715275262143000,-0.003887280821800232,0.02631397545337677,0.08822309970855713,9.225211143493652,0.05702005326747894,-3.6968700885772705
1403715275267143000,-0.000546429306268692,0.023805230855941772,0.08080504089593887,8.919075012207031,0.1297362744808197,-3.641792058944702
1403715275272143000,-0.007101327180862427,0.011799145489931107,0.07271957397460938,8.961332321166992,0.1776471585035324,-3.682276487350464
1403715275277143000,-0.0017513670027256012,0.013597890734672546,0.06676022708415985,9.168367385864258,-0.0925789475440979,-3.7684288024902344
1403715275282143000,0.004216831177473068,0.01813391223549843,0.07662951201200485,9.193422317504883,0.05775262042880058,-3.752894639968872
1403715275287143000,-0.0009721703827381134,0.03118322044610977,0.07251051068305969,9.208765029907227,0.19985805451869965,-3.7452828884124756
1403715275292143000,-0.008180849254131317,0.026004746556282043,0.08868752419948578,8.979292869567871,0.32194778323173523,-3.675293207168579
1403715275297143000,-0.008003871887922287,0.0332629531621933,0.07810875028371811,9.067307472229004,0.06027582287788391,-3.690537452697754
1403715275302143000,-0.006895560771226883,0.01959175243973732,0.0910925418138504,9.075654029846191,-0.0204919446259737,-3.713402509689331
1403715275307143000,-0.00520547479391098,0.027469098567962646,0.0794077068567276,9.025386810302734,0.12120489776134491,-3.6583995819091797
1403715275312143000,-0.003953035920858383,0.012126322835683823,0.078872449696064,8.871548652648926,0.19393962621688843,-3.627143144607544
1403715275317143000,-0.008063528686761856,0.009883593767881393,0.07482939958572388,9.089712142944336,-0.06804291903972626,-3.7529335021972656
1403715275322143000,0.00015141814947128296,0.017614521086215973,0.0726977288722992,9.071311950683594,-0.06861259043216705,-3.7289769649505615
1403715275327143000,0.004670567810535431,0.02382119745016098,0.0760103166103363,9.313935279846191,0.17504757642745972,-3.808412790298462
1403715275332143000,-0.001194041222333908,0.030628398060798645,0.07903826981782913,9.016525268554688,0.40042221546173096,-3.620144844055176
1403715275337143000,-0.011132832616567612,0.027328819036483765,0.08212046325206757,9.171978950500488,0.09122300893068314,-3.7060322761535645
1403715275342143000,-0.008662611246109009,0.03158018738031387,0.0766695886850357,8.955188751220703,-0.02647842839360237,-3.634467840194702
1403715275347143000,-0.0005794353783130646,0.02624238282442093,0.08207432180643082,9.130805015563965,0.11355913430452347,-3.657958984375
1403715275352143000,-0.00042814016342163086,0.02293252944946289,0.08206398040056229,8.887922286987305,0.2178446650505066,-3.618666172027588
1403715275357143000,-0.005638092756271362,0.01294272392988205,0.0693451464176178,8.936145782470703,0.13198412954807281,-3.6345431804656982
1403715275362143000,-0.007610015571117401,0.006303444504737854,0.07003595679998398,9.096290588378906,-0.05976814404129982,-3.72892165184021
1403715275367143000,-0.0006438083946704865,0.016866028308868408,0.07593600451946259,9.160207748413086,0.041437629610300064,-3.7369258403778076
1403715275372143000,0.003187555819749832,0.023081839084625244,0.082685187458992,9.250036239624023,0.31723111867904663,-3.8086841106414795
1403715275377143000,-0.007778730243444443,0.03138815611600876,0.0832369327545166,9.0187406539917,0.28155457973480225,-3.6904594898223877
1403715275382143000,-0.015179498121142387,0.02869420498609543,0.08223117887973785,9.124626159667969,0.06851545721292496,-3.730074167251587
1403715275387143000,-0.008100450038909912,0.02635033428668976,0.08625330030918121,9.051856994628906,0.019573407247662544,-3.666073799133301
1403715275392143000,-0.0005121864378452301,0.029493622481822968,0.0840751975774765,8.977276802062988,0.08109340071678162,-3.6503496170043945
1403715275397143000,-0.004274476319551468,0.0229727104306221,0.07530637830495834,9.080798149108887,0.15376266837120056,-3.657930374145508
1403715275402143000,-0.0062929317355155945,0.01525522768497467,0.06995785981416702,8.983354568481445,-0.01908060722053051,-3.6180691719055176
1403715275407143000,-0.00046623870730400085,0.017020244151353836,0.06937655806541443,9.13599681854248,-0.028503116220235825,-3.776517868041992
1403715275412143000,0.005967635661363602,0.019597992300987244,0.08136013895273209,9.1873779296875,0.23880214989185333,-3.832233428955078
1403715275417143000,-0.003938127309083939,0.031821079552173615,0.07379523664712906,9.170426368713379,0.3435288369655609,-3.7226240634918213
1403715275422143000,-0.01733497530221939,0.02863888442516327,0.08074670284986496,9.14078426361084,0.21105359494686127,-3.7306172847747803
1403715275427143000,-0.018781524151563644,0.032568663358688354,0.07534387707710266,9.003945350646973,-0.0267585888504982,-3.6432459354400635
1403715275432143000,-0.008801281452178955,0.028950460255146027,0.07743089646100998,9.035038948059082,0.019005820155143738,-3.6904635429382324
1403715275437143000,-0.0036424770951271057,0.022309526801109314,0.07977313548326492,8.92860221862793,0.07427650690078735,-3.507827043533325
1403715275442143000,-0.004849541932344437,0.017059672623872757,0.07062018662691116,9.016101837158203,0.019511142745614052,-3.6812469959259033
1403715275447143000,0.00034071505069732666,0.013616107404232025,0.07345330715179443,8.99923038482666,-0.027978772297501564,-3.6731083393096924
1403715275452143000,0.00880049541592598,0.013815872371196747,0.07998750358819962,9.136632919311523,0.10461799800395966,-3.768392324447632
1403715275457143000,0.00027719512581825256,0.021943919360637665,0.08007469028234482,9.36232852935791,0.22243110835552216,-3.7999050617218018
1403715275462143000,-0.006947755813598633,0.03241880238056183,0.07848139852285385,9.009571075439453,0.329448401927948,-3.6592955589294434
1403715275467143000,-0.015448261052370071,0.026081643998622894,0.07936210930347443,9.085404396057129,0.13978560268878937,-3.722691297531128
1403715275472143000,-0.013288343325257301,0.02780325710773468,0.08814101666212082,8.957082748413086,0.06069781631231308,-3.6588032245635986
1403715275477143000,-0.009904926642775536,0.02816282957792282,0.08336441963911057,9.03356647491455,0.002392669441178441,-3.6499874591827393
1403715275482143000,-0.004197392612695694,0.015870746225118637,0.0847572386264801,9.103581428527832,-0.03780825436115265,-3.6014351844787598
1403715275487143000,-0.0008306242525577545,0.014498397707939148,0.07819429039955139,8.918108940124512,-0.06037948653101921,-3.641127586364746
1403715275492143000,0.007005397230386734,0.006291378289461136,0.07616014778614044,9.15192985534668,0.0017181870061904192,-3.712268829345703
1403715275497143000,0.010091226547956467,0.020328018814325333,0.081316277384758,9.226951599121094,0.2631557285785675,-3.7684359550476074
1403715275502143000,-0.001744203269481659,0.022477976977825165,0.07057901471853256,9.194164276123047,0.27247390151023865,-3.713979959487915
1403715275507143000,-0.011092152446508408,0.030620284378528595,0.0773942768573761,9.1260404586792,0.36157238483428955,-3.8178470134735107
1403715275512143000,-0.014980517327785492,0.03236909210681915,0.07387442886829376,8.915969848632812,0.16471917927265167,-3.6439409255981445
1403715275517143000,-0.010675525292754173,0.030945539474487305,0.07949467748403549,9.011868476867676,0.07619857043027878,-3.738374710083008
1403715275522143000,-0.007704883813858032,0.022990576922893524,0.08198849111795425,8.84860897064209,0.019710512831807137,-3.5791966915130615
1403715275527143000,-0.0035238489508628845,0.02097957581281662,0.07679848372936249,9.062575340270996,-0.05328059196472168,-3.689112663269043
1403715275532143000,0.001151788979768753,0.012951333075761795,0.08023307472467422,8.885452270507812,-0.05284658446907997,-3.625784397125244
1403715275537143000,0.008880142122507095,0.009169962257146835,0.07406295835971832,9.119729995727539,0.05589714273810387,-3.776491641998291
1403715275542143000,0.010099150240421295,0.022310912609100342,0.08544512093067169,9.224907875061035,0.2945145070552826,-3.7605817317962646
1403715275547143000,-0.001208726316690445,0.02506709098815918,0.07656929641962051,9.082058906555176,0.328996866941452,-3.7306041717529297
1403715275552143000,-0.014884725213050842,0.030640847980976105,0.0780477225780487,9.140295028686523,0.33852419257164,-3.7468454837799072
1403715275557143000,-0.017645210027694702,0.029691368341445923,0.08533982932567596,8.971899032592773,0.1565852016210556,-3.6515567302703857
1403715275562143000,-0.015292610973119736,0.02628430724143982,0.07877850532531738,9.0181245803833,-0.011328420601785183,-3.730315923690796
1403715275567143000,-0.005717039108276367,0.02028040960431099,0.08279486000537872,8.903925895690918,-0.028367672115564346,-3.6103241443634033
1403715275572143000,-8.525699377059937e-05,0.01502911001443863,0.08003438264131546,9.046599388122559,-0.045410942286252975,-3.6813154220581055
1403715275577143000,0.007929511368274689,0.012407947331666946,0.08028094470500946,9.021671295166016,-0.005676221568137407,-3.689065933227539
1403715275582143000,0.007685232907533646,0.011787090450525284,0.07682719081640244,9.04794979095459,0.08792591840028763,-3.7770791053771973
1403715275587143000,0.006668612360954285,0.019816815853118896,0.08011368662118912,9.29800796508789,0.26238325238227844,-3.800488233566284
1403715275592143000,-0.004706159234046936,0.025074586272239685,0.07467745244503021,9.130816459655762,0.2975419759750366,-3.7228176593780518
1403715275597143000,-0.01749279350042343,0.029119938611984253,0.07661516964435577,9.116460800170898,0.27501538395881653,-3.747009038925171
1403715275602143000,-0.014879938215017319,0.031089916825294495,0.07864529639482498,9.116843223571777,0.08483198285102844,-3.6986606121063232
1403715275607143000,-0.012410366907715797,0.014315564185380936,0.07679560035467148,8.914743423461914,0.005008073057979345,-3.6435043811798096
1403715275612143000,-0.005470234900712967,0.01682884991168976,0.08142813295125961,9.041268348693848,-0.03707041218876839,-3.6183390617370605
1403715275617143000,-0.0014681480824947357,0.013394229114055634,0.08012498915195465,8.991690635681152,-0.10093477368354797,-3.641458749771118
1403715275622143000,0.005235854536294937,0.011959914118051529,0.07623148709535599,9.04581069946289,-0.08602935075759888,-3.6809370517730713
1403715275627143000,0.012942977249622345,0.012720037251710892,0.07674870640039444,9.232916831970215,0.07114614546298981,-3.768073797225952
1403715275632143000,0.002789214253425598,0.02552596479654312,0.08129628747701645,9.129674911499023,0.35923516750335693,-3.7298784255981445
1403715275637143000,-0.00672714039683342,0.027738019824028015,0.07927831262350082,9.067111015319824,0.2984503507614136,-3.6990718841552734
1403715275642143000,-0.01367328129708767,0.0291459783911705,0.0765809416770935,9.078084945678711,0.2519764304161072,-3.7229654788970947
1403715275647143000,-0.01399952918291092,0.034934476017951965,0.08006484061479568,9.027257919311523,0.06851356476545334,-3.7301995754241943
1403715275652143000,-0.011082630604505539,0.0248824805021286,0.08063360303640366,8.87221622467041,0.005285879597067833,-3.523784875869751
1403715275657143000,-0.0036651529371738434,0.023744307458400726,0.08399844914674759,8.95960807800293,-0.004894168581813574,-3.586369752883911
1403715275662143000,0.004107300192117691,0.015008591115474701,0.07880496978759766,9.021074295043945,-0.1561536341905594,-3.6322813034057617
1403715275667143000,0.011255275458097458,0.007089667022228241,0.0728459358215332,9.166275978088379,-0.014855315908789635,-3.688375473022461
1403715275672143000,0.008860748261213303,0.018877610564231873,0.07406458258628845,9.160544395446777,0.22998319566249847,-3.7841789722442627
1403715275677143000,0.002652157098054886,0.02494151145219803,0.07848890870809555,9.121891975402832,0.3520815968513489,-3.6978039741516113
1403715275682143000,-0.007479462772607803,0.02679745852947235,0.07724107056856155,9.173040390014648,0.2982916831970215,-3.7539358139038086
1403715275687143000,-0.016709232702851295,0.02781093120574951,0.07529956102371216,9.197224617004395,0.20348617434501648,-3.714390754699707
1403715275692143000,-0.014726685360074043,0.03345101326704025,0.08074775338172913,8.930089950561523,0.02936946600675583,-3.6588125228881836
1403715275697143000,-0.011720651760697365,0.024341963231563568,0.07800085842609406,8.905546188354492,0.004477322101593018,-3.5790669918060303
1403715275702143000,-0.00272442027926445,0.017918426543474197,0.077995665371418,9.072091102600098,-0.10866129398345947,-3.632990837097168
1403715275707143000,0.008522123098373413,0.015631653368473053,0.07806897908449173,9.021673202514648,-0.07696188241243362,-3.680159568786621
1403715275712143000,0.011931225657463074,0.012406483292579651,0.0748308077454567,9.151744842529297,0.055913571268320084,-3.7838048934936523
1403715275717143000,0.010792020708322525,0.021766915917396545,0.08409491926431656,9.008934020996094,0.286594420671463,-3.745250701904297
1403715275722143000,-0.0020210370421409607,0.025151751935482025,0.07794509828090668,9.115253448486328,0.31309086084365845,-3.746039628982544
1403715275727143000,-0.012877773493528366,0.023934587836265564,0.0807843878865242,9.286449432373047,0.32204878330230713,-3.809553861618042
1403715275732143000,-0.018993938341736794,0.03156941384077072,0.08056078106164932,9.139452934265137,0.259424090385437,-3.667606830596924
1403715275737143000,-0.018633177503943443,0.02817016839981079,0.07870547473430634,8.898374557495117,0.029941106215119362,-3.6514556407928467
1403715275742143000,-0.012312106788158417,0.017172031104564667,0.08074048906564713,8.907339096069336,-0.051604680716991425,-3.6106252670288086
1403715275747143000,-0.0020144693553447723,0.014398176223039627,0.07941161841154099,9.135843276977539,-0.1967664510011673,-3.6881635189056396
1403715275752143000,0.005823932588100433,0.014132071286439896,0.08028582483530045,9.031182289123535,0.01683082804083824,-3.7367374897003174
1403715275757143000,0.008893609046936035,0.021862782537937164,0.07074546813964844,9.087677955627441,0.14312468469142914,-3.7769038677215576
1403715275762143000,0.008644726127386093,0.022584788501262665,0.07595303654670715,9.05673599243164,0.30438122153282166,-3.698556900024414
1403715275767143000,-0.004577811807394028,0.021873749792575836,0.07857998460531235,9.155685424804688,0.313456654548645,-3.738626718521118
1403715275772143000,-0.012883640825748444,0.02888062596321106,0.08127356320619583,9.276718139648438,0.30603674054145813,-3.7384703159332275
1403715275777143000,-0.018881037831306458,0.0280853733420372,0.0813365951180458,8.906371116638184,0.1649576872587204,-3.612353801727295
1403715275782143000,-0.016578396782279015,0.022536911070346832,0.08628922700881958,9.00438404083252,0.020516514778137207,-3.7457003593444824
1403715275787143000,-0.01556864008307457,0.014978509396314621,0.07745509594678879,8.985995292663574,-0.05948350951075554,-3.5466971397399902
1403715275792143000,-0.0036585070192813873,0.01625862345099449,0.07943037897348404,9.19144344329834,-0.09402153640985489,-3.704464912414551
1403715275797143000,0.00516076385974884,0.014457091689109802,0.07546097040176392,9.054771423339844,-0.09504574537277222,-3.744381904602051
1403715275802143000,0.009599529206752777,0.01922966167330742,0.07339600473642349,9.0730619430542,0.15086935460567474,-3.75323748588562
1403715275807143000,0.011991836130619049,0.02779369056224823,0.07856982946395874,9.1056547164917,0.27227264642715454,-3.7061662673950195
1403715275812143000,-0.005959600210189819,0.02440522611141205,0.08669330924749374,9.197175979614258,0.47322455048561096,-3.738781213760376
1403715275817143000,-0.016311243176460266,0.03711530566215515,0.08413702249526978,9.219941139221191,0.28270918130874634,-3.746051073074341
1403715275822143000,-0.02162616141140461,0.030257344245910645,0.076005719602108,8.98692512512207,0.05390094965696335,-3.6118338108062744
1403715275827143000,-0.013987366110086441,0.029827050864696503,0.07880594581365585,8.947284698486328,-0.01960606314241886,-3.7139008045196533
1403715275832143000,-0.00623953714966774,0.02096392959356308,0.07326735556125641,8.961380958557129,-0.05211307108402252,-3.5624938011169434
1403715275837143000,0.0039360411465168,0.021771177649497986,0.07540036737918854,9.216015815734863,-0.12554362416267395,-3.8233087062835693
1403715275842143000,0.012610092759132385,0.024592041969299316,0.07469472289085388,9.173982620239258,-0.07912177592515945,-3.759822130203247
1403715275847143000,0.013637352734804153,0.03541618585586548,0.0755104124546051,9.192329406738281,0.0709090605378151,-3.823945999145508
1403715275852143000,0.009720925241708755,0.035332292318344116,0.08594539016485214,8.985881805419922,0.4553503692150116,-3.691580295562744
1403715275857143000,-0.010124694555997849,0.0314212441444397,0.07668150961399078,9.303764343261719,0.3691868185997009,-3.825749635696411
1403715275862143000,-0.018392715603113174,0.037445321679115295,0.08265893906354904,8.979246139526367,0.2853163182735443,-3.612679958343506
1403715275867143000,-0.02189919352531433,0.02768600732088089,0.07931607216596603,8.922446250915527,-0.12852372229099274,-3.6272671222686768
1403715275872143000,-0.015604216605424881,0.01996542513370514,0.07811853289604187,9.00200080871582,-0.10750671476125717,-3.618176221847534
1403715275877143000,0.0037460029125213623,0.01917972043156624,0.08075478672981262,9.070457458496094,-0.14937126636505127,-3.64072847366333
1403715275882143000,0.010912317782640457,0.021372787654399872,0.07608448714017868,9.381922721862793,-0.1024533361196518,-3.8064157962799072
1403715275887143000,0.017099879682064056,0.034813202917575836,0.08207068592309952,9.072175979614258,0.19950440526008606,-3.721005916595459
1403715275892143000,0.005264490842819214,0.030838415026664734,0.07719765603542328,9.035052299499512,0.37516653537750244,-3.722808361053467
1403715275897143000,-0.010258428752422333,0.034759484231472015,0.07804903388023376,9.232056617736816,0.3844642639160156,-3.7862393856048584
1403715275902143000,-0.01996254175901413,0.028175517916679382,0.07459018379449844,8.907509803771973,0.26747995615005493,-3.652623176574707
1403715275907143000,-0.01786462962627411,0.023806393146514893,0.07738039642572403,9.130335807800293,-0.1453682780265808,-3.721773386001587
1403715275912143000,-0.009247971698641777,0.021195031702518463,0.07473913580179214,9.048111915588379,-0.2651265561580658,-3.665275812149048
1403715275917143000,0.007110431790351868,0.027340158820152283,0.07068881392478943,9.422836303710938,-0.07908132672309875,-3.885485887527466
1403715275922143000,0.01566118374466896,0.05234312266111374,0.07795629650354385,9.642256736755371,0.2539549469947815,-3.9170613288879395
1403715275927143000,-5.704164505004883e-05,0.08533871173858643,0.07112903147935867,9.22885513305664,0.39805591106414795,-4.007408142089844
1403715275932143000,-0.019964735954999924,0.07226152718067169,0.06428476423025131,8.627477645874023,0.22757817804813385,-3.5822813510894775
1403715275937143000,-0.022415895015001297,0.05175894498825073,0.0749853253364563,8.74448013305664,0.21102814376354218,-3.558793306350708
1403715275942143000,-0.016715195029973984,0.03640244901180267,0.07739418745040894,8.745101928710938,-0.12976209819316864,-3.6119143962860107
1403715275947143000,-0.0025218799710273743,0.024460941553115845,0.09353224188089371,9.085902214050293,0.15413369238376617,-3.7457494735717773
1403715275952143000,0.002674989402294159,0.0427972748875618,0.08935791999101639,9.096948623657227,0.09181750565767288,-3.6732876300811768
1403715275957143000,-0.0004577748477458954,0.03745768219232559,0.07752779126167297,8.953713417053223,0.0056638820096850395,-3.5465104579925537
1403715275962143000,0.0007217228412628174,0.02493666112422943,0.06769400089979172,8.878944396972656,0.08949542045593262,-3.373141288757324
1403715275967143000,0.004206810146570206,0.009535267949104309,0.07367490977048874,9.123030662536621,-0.12746483087539673,-3.5384578704833984
1403715275972143000,0.01088438555598259,0.01456090435385704,0.0831359326839447,9.226347923278809,0.18355712294578552,-3.6495699882507324
1403715275977143000,0.0023905597627162933,0.03247073292732239,0.08589815348386765,9.473516464233398,0.3910919725894928,-3.72816801071167
1403715275982143000,-0.014867804944515228,0.05029674619436264,0.07760071754455566,9.375804901123047,0.1318841427564621,-3.8141422271728516
1403715275987143000,-0.018265580758452415,0.03183010220527649,0.07270944863557816,8.581228256225586,0.06340731680393219,-3.4041717052459717
1403715275992143000,-0.005968458950519562,0.020734146237373352,0.0777478739619255,9.260371208190918,-0.1814637929201126,-3.5687882900238037
1403715275997143000,0.007460448890924454,0.032430246472358704,0.09315797686576843,8.945899963378906,0.11371961981058121,-3.6799161434173584
1403715276002143000,0.004156086593866348,0.022235766053199768,0.10559695959091187,9.282114028930664,0.5665212869644165,-3.8229477405548096
1403715276007143000,-0.025122424587607384,0.03889210522174835,0.08988775312900543,9.121192932128906,0.5222451686859131,-3.6899454593658447
1403715276012143000,-0.04075669124722481,-0.0025249943137168884,0.07704459130764008,8.447932243347168,-0.15979011356830597,-3.5636661052703857
1403715276017143000,-0.02914595976471901,-8.152052760124207e-05,0.06476882100105286,9.396289825439453,-0.31905144453048706,-3.711242437362671
1403715276022143000,0.005079876631498337,0.015199799090623856,0.07301360368728638,9.340669631958008,-0.5089353919029236,-3.6699020862579346
1403715276027143000,0.031102176755666733,0.04400808364152908,0.05683809518814087,9.113668441772461,-0.1722078174352646,-3.7112698554992676
1403715276032143000,0.030716869980096817,0.02426987886428833,0.04888521879911423,8.671072006225586,0.17373628914356232,-3.484056234359741
1403715276037143000,0.020767170935869217,0.012245722115039825,0.06510771811008453,8.769379615783691,0.6370148062705994,-3.6365678310394287
1403715276042143000,0.00236327201128006,0.002313431352376938,0.08044148981571198,8.79776382446289,0.8937903046607971,-3.6065115928649902
1403715276047143000,-0.028810173273086548,0.024660848081111908,0.085996612906456,9.404361724853516,0.47967833280563354,-3.8720545768737793
1403715276052143000,-0.0438738688826561,0.0184449665248394,0.08193475008010864,8.444136619567871,0.0005116939428262413,-3.286318063735962
1403715276057143000,-0.021909654140472412,-0.026508435606956482,0.09444864094257355,8.757023811340332,-0.21049170196056366,-3.3170223236083984
1403715276062143000,-0.0007804371416568756,-0.011562200263142586,0.09754936397075653,8.8305025100708,-0.1558215320110321,-3.480320930480957
1403715276067143000,0.009894020855426788,-0.033582791686058044,0.10643909126520157,9.352005004882812,0.109319768846035,-3.7803258895874023
1403715276072143000,0.007962111383676529,0.008362162858247757,0.07554417103528976,9.348280906677246,-0.001968338852748275,-3.773142099380493
1403715276077143000,0.0033379346132278442,0.00028651952743530273,0.06355461478233337,8.845088958740234,0.16726455092430115,-3.625521659851074
1403715276082143000,-0.003675319254398346,0.0054572224617004395,0.0765065997838974,9.413082122802734,0.2765534818172455,-3.8140690326690674
1403715276087143000,-0.0037536323070526123,0.014473013579845428,0.08781029284000397,9.182318687438965,0.30543240904808044,-3.8157739639282227
1403715276092143000,-0.008022524416446686,0.05344817042350769,0.06729200482368469,8.990686416625977,-0.1269242763519287,-3.7524921894073486
1403715276097143000,0.003967989236116409,0.012662660330533981,0.07692088931798935,8.672009468078613,-0.007339665200561285,-3.531299591064453
1403715276102143000,-0.00613018125295639,0.0030846185982227325,0.060518987476825714,9.220473289489746,0.13818053901195526,-3.9905571937561035
1403715276107143000,-0.01469951868057251,0.010079149156808853,0.08072390407323837,8.755484580993652,0.6017022132873535,-3.762925863265991
1403715276112143000,-0.027462342754006386,0.023601926863193512,0.07843439280986786,9.363428115844727,0.1670992076396942,-3.983409881591797
1403715276117143000,-0.019856106489896774,0.03349699079990387,0.08153662085533142,8.529580116271973,-0.4064096510410309,-3.2752890586853027
1403715276122143000,0.006232745945453644,-0.00906486064195633,0.08351994305849075,9.16973876953125,-0.312792032957077,-3.9920449256896973
1403715276127143000,0.017263595014810562,0.023958511650562286,0.08014727383852005,9.056796073913574,0.33345645666122437,-3.6590518951416016
1403715276132143000,0.010539926588535309,0.02045697346329689,0.09113488346338272,9.331687927246094,0.4805712401866913,-4.022571563720703
1403715276137143000,-0.007009785622358322,0.06076040863990784,0.08295997232198715,8.908697128295898,0.03190794959664345,-3.555701732635498
1403715276142143000,-0.00220358744263649,0.015220984816551208,0.08135094493627548,8.799931526184082,-0.08131861686706543,-3.4760608673095703
1403715276147143000,0.00043914467096328735,0.021851085126399994,0.08615472912788391,9.521835327148438,0.08596683293581009,-3.8313052654266357
1403715276152143000,-0.0007663406431674957,0.02414821833372116,0.09431704878807068,8.709007263183594,0.4330962896347046,-3.6442008018493652
1403715276157143000,-0.013680219650268555,0.046451494097709656,0.0776018425822258,9.698044776916504,0.20970265567302704,-4.044506549835205
1403715276162143000,-0.018482042476534843,0.03834553062915802,0.07433071732521057,8.587116241455078,0.1779816746711731,-3.2948858737945557
1403715276167143000,-0.018106279894709587,-0.0002325586974620819,0.05791287124156952,9.252540588378906,0.017749110236763954,-3.7456722259521484
1403715276172143000,-0.01034344732761383,0.015475913882255554,0.06841148436069489,8.857498168945312,0.05686135217547417,-3.5473873615264893
1403715276177143000,0.00010457634925842285,-0.0010154470801353455,0.07523063570261002,9.515277862548828,-0.04104746878147125,-3.9975974559783936
1403715276182143000,0.0018892250955104828,0.04459058493375778,0.062480755150318146,9.222002029418945,-0.018267521634697914,-3.783432722091675
1403715276187143000,0.0030335746705532074,0.012062035501003265,0.055850058794021606,8.801047325134277,0.22988174855709076,-3.4773457050323486
1403715276192143000,-0.004511557519435883,0.00952238216996193,0.061072394251823425,9.02023696899414,0.21034789085388184,-3.6430065631866455
1403715276197143000,-0.002116769552230835,-0.0032364055514335632,0.08137480169534683,9.007408142089844,0.21782761812210083,-3.683016300201416
1403715276202143000,-0.0014185644686222076,0.025665387511253357,0.09050115942955017,9.626326560974121,0.19918306171894073,-3.925389528274536
1403715276207143000,-0.0007648207247257233,0.03672054409980774,0.09338969737291336,8.83716869354248,-0.0014760121703147888,-3.5227091312408447
1403715276212143000,-0.008317466825246811,0.019639726728200912,0.09127986431121826,9.035887718200684,0.08192884176969528,-3.737236976623535
1403715276217143000,-0.015290256589651108,0.020408056676387787,0.07272812724113464,8.737796783447266,0.10839779675006866,-3.468409299850464
1403715276222143000,-0.0021639056503772736,0.00031773000955581665,0.09662625193595886,9.101717948913574,0.08151882141828537,-3.6586217880249023
1403715276227143000,0.0043695904314517975,0.033435918390750885,0.10514549911022186,9.630096435546875,0.016138585284352303,-3.789125919342041
1403715276232143000,0.0011742599308490753,0.03037947416305542,0.09229468554258347,8.756218910217285,0.1295880824327469,-3.5787277221679688
1403715276237143000,0.0047328174114227295,0.01739535480737686,0.08302254974842072,9.056524276733398,0.13853199779987335,-3.6336910724639893
1403715276242143000,0.0009725615382194519,0.023516565561294556,0.06826236099004745,8.788667678833008,0.0378209613263607,-3.6346442699432373
1403715276247143000,0.0022520124912261963,-0.0012542791664600372,0.06996040791273117,9.075682640075684,0.23431430757045746,-3.6502766609191895
1403715276252143000,-0.0009340494871139526,0.03333654999732971,0.08020909875631332,9.635736465454102,0.39286595582962036,-3.918022871017456
1403715276257143000,-0.017355704680085182,0.037302643060684204,0.0753355324268341,8.707014083862305,0.3720413148403168,-3.6358160972595215
1403715276262143000,-0.024910014122724533,0.007065892219543457,0.06306230276823044,8.629880905151367,0.18131864070892334,-3.5577800273895264
1403715276267143000,-0.018630588427186012,0.01780325174331665,0.06342730671167374,9.27882194519043,-0.18814747035503387,-3.672827959060669
1403715276272143000,-0.002251971513032913,0.0018095187842845917,0.06192871928215027,8.981376647949219,-0.10933083295822144,-3.649146318435669
1403715276277143000,0.001862499862909317,0.017929136753082275,0.06636717915534973,9.71131420135498,0.05394096300005913,-3.908341884613037
1403715276282143000,-0.0011025741696357727,0.056346334517002106,0.07610201835632324,8.948963165283203,0.2581885755062103,-3.5627634525299072
1403715276287143000,-0.00916849821805954,0.013255152851343155,0.07552631944417953,8.590204238891602,0.10109451413154602,-3.476905107498169
1403715276292143000,-0.009976360946893692,0.009183414280414581,0.08356732875108719,9.13800048828125,-0.02973531186580658,-3.6805477142333984
1403715276297143000,0.003912933170795441,-0.006490983068943024,0.09208707511425018,9.057687759399414,-0.03040481172502041,-3.6961758136749268
1403715276302143000,0.011676590889692307,0.019099391996860504,0.09485822916030884,9.677619934082031,0.13590073585510254,-4.0103888511657715
1403715276307143000,0.0018481425940990448,0.04931642860174179,0.08728659898042679,8.796745300292969,0.3084155023097992,-3.6511459350585938
1403715276312143000,-0.013285081833600998,0.012952171266078949,0.09287182986736298,9.003028869628906,0.33966702222824097,-3.6593620777130127
1403715276317143000,-0.018806081265211105,0.022993803024291992,0.08680243790149689,9.087661743164062,-0.059005968272686005,-3.626213550567627
1403715276322143000,-0.012364525347948074,-0.0031154751777648926,0.09231899678707123,8.659274101257324,-0.021844761446118355,-3.6112945079803467
1403715276327143000,0.0008582174777984619,-0.005890049040317535,0.09761529415845871,9.656325340270996,-0.0730571299791336,-3.861076831817627
1403715276332143000,0.012477260082960129,0.052962541580200195,0.08787358552217484,9.645713806152344,0.007927916012704372,-3.978912115097046
1403715276337143000,0.006915964186191559,0.03294287621974945,0.06816746294498444,8.721536636352539,0.13239437341690063,-3.4919283390045166
1403715276342143000,-0.004409022629261017,0.018748648464679718,0.05183012783527374,9.187173843383789,0.2262822538614273,-3.636011838912964
1403715276347143000,-0.00799839198589325,0.015923205763101578,0.06986614316701889,8.720208168029785,0.1564311683177948,-3.731086015701294
1403715276352143000,-0.006090614944696426,-0.004369355738162994,0.06990669667720795,9.438176155090332,0.0964319184422493,-3.856031656265259
1403715276357143000,-0.0027008242905139923,0.03337566554546356,0.07559134811162949,9.436716079711914,0.2871744930744171,-3.8806047439575195
1403715276362143000,-0.011148978024721146,0.041678838431835175,0.07561101764440536,8.715192794799805,0.23761439323425293,-3.714900255203247
1403715276367143000,-0.018625400960445404,0.030485138297080994,0.058001525700092316,9.131927490234375,-0.042455997318029404,-3.4767603874206543
1403715276372143000,-0.01284160278737545,0.01653880625963211,0.066347636282444,8.74975872039795,-0.035933539271354675,-3.5567100048065186
1403715276377143000,-0.006732303649187088,-0.0008297264575958252,0.06761032342910767,8.873851776123047,0.0018249358981847763,-3.7384228706359863
1403715276382143000,-0.002311617136001587,0.014561612159013748,0.0921449214220047,9.531468391418457,-0.009449781849980354,-3.854105234146118
1403715276387143000,0.0027964934706687927,0.035635627806186676,0.08996216207742691,9.204458236694336,0.13599291443824768,-3.7520692348480225
1403715276392143000,0.0018170997500419617,0.03347410261631012,0.08818357437849045,8.981770515441895,0.12349109351634979,-3.5545177459716797
1403715276397143000,0.0017012469470500946,0.03133702278137207,0.08939798176288605,8.949836730957031,0.0997195914387703,-3.484306812286377
1403715276402143000,-0.0011067092418670654,0.003959715366363525,0.07461433112621307,8.722301483154297,-0.043123796582221985,-3.5877015590667725
1403715276407143000,0.003434371203184128,-0.0024843141436576843,0.07798313349485397,9.0767822265625,0.12934498488903046,-3.7220938205718994
1403715276412143000,0.0054623521864414215,0.022271335124969482,0.08917378634214401,9.464622497558594,0.21712853014469147,-3.8928492069244385
1403715276417143000,-0.0010153912007808685,0.031364187598228455,0.08967696875333786,9.09989070892334,0.1705733686685562,-3.8467283248901367
1403715276422143000,-0.015919767320156097,0.03626128286123276,0.07949617505073547,9.049347877502441,0.26518428325653076,-3.595660924911499
1403715276427143000,-0.016414646059274673,0.0313669890165329,0.07410581409931183,9.028833389282227,0.14639224112033844,-3.596081495285034
1403715276432143000,-0.008301295340061188,0.011418946087360382,0.0762379989027977,8.672624588012695,-0.2816293239593506,-3.404454469680786
1403715276437143000,-0.0012475810945034027,0.0018522664904594421,0.05714522302150726,9.346670150756836,-0.23793740570545197,-3.8310587406158447
1403715276442143000,0.016813773661851883,0.0202818401157856,0.07257123291492462,9.206527709960938,0.14342878758907318,-3.838139533996582
1403715276447143000,0.01630276069045067,0.027944371104240417,0.08545587956905365,9.23993968963623,0.48004254698753357,-3.941770553588867
1403715276452143000,-0.006249736994504929,0.04312090575695038,0.07337737083435059,9.146806716918945,0.47530221939086914,-3.69899320602417
1403715276457143000,-0.027412712574005127,0.027256250381469727,0.0754951760172844,8.706511497497559,0.30785030126571655,-3.5824878215789795
1403715276462143000,-0.022173862904310226,0.017656564712524414,0.07682919502258301,8.891818046569824,-0.28982269763946533,-3.5247957706451416
1403715276467143000,-0.0035192184150218964,0.007753998041152954,0.07674869894981384,9.34528636932373,-0.3248646855354309,-3.7994518280029297
1403715276472143000,0.014635901898145676,0.016607467085123062,0.0811004564166069,9.228544235229492,0.05523575097322464,-3.8544697761535645
1403715276477143000,0.012599699199199677,0.04968833923339844,0.0861065611243248,9.89743709564209,0.38450178503990173,-4.1435627937316895
1403715276482143000,-0.005176849663257599,0.06339609622955322,0.07142702490091324,8.921453475952148,0.2988162636756897,-3.746964693069458
1403715276487143000,-0.015356693416833878,0.044497743248939514,0.06842339783906937,9.096904754638672,0.1519244909286499,-3.6770455837249756
1403715276492143000,-0.00448053702712059,0.04847472906112671,0.0695962905883789,9.177643775939941,-0.2439207285642624,-3.667043924331665
1403715276497143000,0.01756548136472702,0.0289609432220459,0.08854803442955017,8.987381935119629,-0.061991069465875626,-3.706360340118408
1403715276502143000,0.023950401693582535,0.04749999940395355,0.10113958269357681,9.226115226745605,0.5844090580940247,-3.8254544734954834
1403715276507143000,-0.0027267970144748688,0.04972065985202789,0.08548545837402344,8.95999526977539,0.743500828742981,-3.7481327056884766
1403715276512143000,-0.024830423295497894,0.03353975713253021,0.0826888456940651,9.090272903442383,0.19690139591693878,-3.7785465717315674
1403715276517143000,-0.027947857975959778,0.03427024185657501,0.06863538920879364,9.004720687866211,-0.21375980973243713,-3.5642619132995605
1403715276522143000,0.0005751587450504303,0.02683008462190628,0.07977798581123352,8.871768951416016,-0.3501243591308594,-3.387993097305298
1403715276527143000,0.02849128469824791,0.012992113828659058,0.08977407217025757,9.216429710388184,-0.19085977971553802,-3.5851221084594727
1403715276532143000,0.02373107150197029,0.037694573402404785,0.08007090538740158,9.16054630279541,0.39323747158050537,-3.5789966583251953
1403715276537143000,-0.008131265640258789,0.006517380475997925,0.06963706016540527,8.770054817199707,0.8550785779953003,-3.4795870780944824
1403715276542143000,-0.04281051829457283,0.0027243122458457947,0.057251617312431335,8.964279174804688,0.46926000714302063,-3.5410332679748535
1403715276547143000,-0.04389704763889313,-0.00032194703817367554,0.07695724070072174,8.687088966369629,0.003165613627061248,-3.316535472869873
1403715276552143000,-0.018658950924873352,-0.0033414065837860107,0.08624362200498581,9.470627784729004,-0.7214699983596802,-3.7164034843444824
1403715276557143000,0.010811414569616318,0.034979917109012604,0.0922524631023407,8.94389820098877,-0.4331362247467041,-3.5571227073669434
1403715276562143000,0.03119971975684166,0.008464790880680084,0.07324793934822083,8.705754280090332,-0.06702281534671783,-3.511984348297119
1403715276567143000,0.03637155517935753,0.018469199538230896,0.07226836681365967,9.057665824890137,0.3379954695701599,-3.6721906661987305
1403715276572143000,0.01938031241297722,0.011239118874073029,0.0757000744342804,8.853507995605469,0.5776023864746094,-3.6183395385742188
1403715276577143000,-0.013699784874916077,0.02557814121246338,0.07022617757320404,9.071483612060547,0.5824779272079468,-3.8724365234375
1403715276582143000,-0.02339284121990204,0.018274638801813126,0.08784043043851852,8.668131828308105,0.3478032350540161,-3.571286201477051
1403715276587143000,-0.027151286602020264,-0.006270743906497955,0.08365197479724884,8.82067584991455,-0.1036052331328392,-3.62519907951355
1403715276592143000,-0.014100108295679092,0.0029638968408107758,0.10003818571567535,9.031025886535645,0.10961712151765823,-3.6248152256011963
1403715276597143000,-0.01577632874250412,0.016199618577957153,0.08219659328460693,9.268976211547852,-0.012572133913636208,-3.727163314819336
1403715276602143000,-0.013960044831037521,0.020714513957500458,0.06339647620916367,9.09776782989502,-0.11792129278182983,-3.57712984085083
1403715276607143000,-0.00870751217007637,0.012389615178108215,0.06990669667720795,8.830134391784668,-0.15434816479682922,-3.538414478302002
1403715276612143000,0.006463725119829178,0.011468760669231415,0.07968287914991379,9.152511596679688,-0.018709376454353333,-3.718644142150879
1403715276617143000,0.01705307513475418,0.025147616863250732,0.08199088275432587,9.335749626159668,0.07168003171682358,-3.7423222064971924
1403715276622143000,0.012143861502408981,0.04563962668180466,0.06467251479625702,9.205405235290527,0.09836011379957199,-3.7915399074554443
1403715276627143000,0.0012578442692756653,0.03622443974018097,0.05736154317855835,9.070759773254395,0.2539358139038086,-3.6188440322875977
1403715276632143000,-0.006309565156698227,0.01802072674036026,0.08062250912189484,8.963988304138184,0.34067392349243164,-3.809683322906494
1403715276637143000,-0.015908244997262955,0.020669125020503998,0.0895538181066513,9.043673515319824,0.4274444580078125,-3.714493989944458
1403715276642143000,-0.018219726160168648,0.043641068041324615,0.08684804290533066,9.074009895324707,-0.07551180571317673,-3.8243231773376465
1403715276647143000,-0.008329343050718307,0.004324968904256821,0.07975295186042786,8.79860782623291,-0.25786685943603516,-3.546272039413452
1403715276652143000,-0.004163399338722229,-0.0005526505410671234,0.07185890525579453,9.436718940734863,0.061996109783649445,-3.9102745056152344
1403715276657143000,-0.007310129702091217,0.00812780112028122,0.0955151692032814,8.751259803771973,0.39958974719047546,-3.643188953399658
1403715276662143000,-0.011740967631340027,0.008537981659173965,0.0959244966506958,9.578718185424805,-0.0474349707365036,-3.838369369506836
1403715276667143000,-0.0036236830055713654,0.027187243103981018,0.086190365254879,8.758872985839844,-0.3216772675514221,-3.362536907196045
1403715276672143000,0.01680869236588478,-0.0015407316386699677,0.06695842742919922,9.648078918457031,-0.27804815769195557,-4.018709182739258
1403715276677143000,0.017680715769529343,0.03666697442531586,0.06990092992782593,9.252960205078125,0.3683391213417053,-3.839590311050415
1403715276682143000,0.0035006627440452576,0.024265259504318237,0.08044905215501785,9.046509742736816,0.6509591341018677,-3.8595309257507324
1403715276687143000,-0.013326659798622131,0.06424673646688461,0.07692023366689682,9.157720565795898,0.16739127039909363,-3.74680233001709
1403715276692143000,-0.014126013964414597,0.012051522731781006,0.07608626037836075,8.611063957214355,0.04791897535324097,-3.351106882095337
1403715276697143000,-0.009021038189530373,0.02037627249956131,0.06785959005355835,9.56438159942627,0.06070077419281006,-4.077691078186035
1403715276702143000,-0.01332833617925644,0.022351853549480438,0.06872797757387161,8.760187149047852,0.194478377699852,-3.691836357116699
1403715276707143000,-0.011365637183189392,0.04047125577926636,0.06957652419805527,9.465499877929688,0.1297314465045929,-3.9670987129211426
1403715276712143000,-0.006175946444272995,0.04717816412448883,0.07133899629116058,8.798444747924805,-0.0878145843744278,-3.262122631072998
1403715276717143000,0.004812348634004593,-0.00012098252773284912,0.08017931878566742,9.44882583618164,0.071055568754673,-3.9266536235809326
1403715276722143000,-0.0022881366312503815,0.03541196882724762,0.08618485927581787,8.8339204788208,0.4213595390319824,-3.675572633743286
1403715276727143000,-0.006040744483470917,0.04074572026729584,0.09090127050876617,9.18266487121582,0.23187583684921265,-3.707334518432617
1403715276732143000,-0.008966084569692612,0.045331090688705444,0.086434006690979,8.845611572265625,-0.008001333102583885,-3.3569703102111816
1403715276737143000,-0.006977815181016922,0.016680199652910233,0.0812956690788269,8.824493408203125,0.05348397418856621,-3.4517529010772705
1403715276742143000,0.002716958522796631,0.032089248299598694,0.09219501167535782,9.271599769592285,0.12020012736320496,-3.7746381759643555
1403715276747143000,0.01034286618232727,0.03741762787103653,0.0928017869591713,9.18239974975586,0.22411485016345978,-3.6568353176116943
1403715276752143000,0.007499676197767258,0.051902979612350464,0.07745669782161713,8.900042533874512,-0.028187671676278114,-3.5699069499969482
1403715276757143000,0.0007268637418746948,0.025630414485931396,0.06438125669956207,8.64479923248291,0.32519516348838806,-3.294414520263672
1403715276762143000,0.0009244531393051147,0.017948754131793976,0.08001475781202316,9.32563591003418,0.31173887848854065,-3.806908369064331
1403715276767143000,-0.010919006541371346,0.025617457926273346,0.08611015230417252,9.064983367919922,0.28067120909690857,-3.9107468128204346
1403715276772143000,-0.019816240295767784,0.03629244118928909,0.08320178091526031,8.900529861450195,0.10772598534822464,-3.4446778297424316
1403715276777143000,-0.021991660818457603,0.0020397379994392395,0.06598661839962006,8.697637557983398,-0.2500583529472351,-2.9508914947509766
1403715276782143000,0.0010001547634601593,-0.01297895796597004,0.08634819835424423,9.664196968078613,-0.09509868174791336,-3.700143575668335
1403715276787143000,0.0011236853897571564,0.02015279233455658,0.0882490873336792,9.391609191894531,0.14930447936058044,-3.9847772121429443
1403715276792143000,-0.01181386411190033,0.02101275324821472,0.07662549614906311,8.77351188659668,0.04428458213806152,-3.4110565185546875
1403715276797143000,-0.0050278715789318085,0.004028964787721634,0.06941918283700943,9.011924743652344,-0.21104446053504944,-3.385359287261963
1403715276802143000,0.009711109101772308,-0.007423602044582367,0.07421083748340607,9.428853988647461,0.007032122928649187,-3.5744822025299072
1403715276807143000,0.01255892589688301,0.031289830803871155,0.08608711510896683,9.613631248474121,0.6366972923278809,-4.1211676597595215
1403715276812143000,-0.0051930807530879974,0.040201470255851746,0.08758967369794846,8.49094295501709,0.32847854495048523,-3.5156238079071045
1403715276817143000,-0.015105770900845528,-0.004261799156665802,0.07114094495773315,8.74377727508545,0.03931504487991333,-3.762582302093506
1403715276822143000,-0.006977159529924393,0.010729596018791199,0.08091025054454803,9.704011917114258,0.15380385518074036,-3.811864137649536
1403715276827143000,-0.010458419099450111,0.03130883723497391,0.07601438462734222,9.475180625915527,0.36559146642684937,-4.005459308624268
1403715276832143000,-0.017390886321663857,0.052754782140254974,0.07329975068569183,8.346752166748047,-0.33326858282089233,-3.4343783855438232
1403715276837143000,0.004229012876749039,-0.006524384021759033,0.08070997148752213,8.8803071975708,-0.2694515287876129,-3.6185789108276367
1403715276842143000,0.018519144505262375,0.03138217329978943,0.0801527351140976,10.018599510192871,0.11026513576507568,-3.8968489170074463
1403715276847143000,-0.0028086528182029724,0.046364232897758484,0.07208365947008133,8.44703483581543,0.2919769585132599,-3.571916341781616
1403715276852143000,-0.020710645243525505,0.009407438337802887,0.0691046267747879,8.77022647857666,-0.012431468814611435,-3.508253812789917
1403715276857143000,0.0010535828769207,0.006634950637817383,0.10207174718379974,9.082844734191895,-0.15646500885486603,-3.465627670288086
1403715276862143000,0.0018904618918895721,0.03095105290412903,0.08081324398517609,9.702691078186035,0.07408283650875092,-3.954270601272583
1403715276867143000,-0.015496771782636642,0.036039985716342926,0.0673178881406784,8.64216136932373,0.17332495748996735,-3.5392963886260986
1403715276872143000,-0.01664647087454796,0.010489791631698608,0.06535070389509201,8.866570472717285,-0.0505354180932045,-3.492093086242676
1403715276877143000,0.006998810917139053,0.03018399327993393,0.10476768761873245,9.88287353515625,-0.3933393359184265,-3.889258861541748
1403715276882143000,-0.004707925021648407,0.08397719264030457,0.058354780077934265,8.702658653259277,0.23148305714130402,-3.936248779296875
1403715276887143000,-0.013527803122997284,0.03555351495742798,0.06771663576364517,8.475512504577637,0.09986408799886703,-3.4124062061309814
1403715276892143000,0.010801229625940323,0.006567232310771942,0.10231725871562958,9.281024932861328,-0.39416635036468506,-3.607924699783325
1403715276897143000,0.016593001782894135,0.07283902168273926,0.08382095396518707,9.576469421386719,-0.041166629642248154,-4.10459041595459
1403715276902143000,-0.004998650401830673,0.04017958045005798,0.06901665776968002,8.127598762512207,0.28720560669898987,-3.4126410484313965
1403715276907143000,-0.004248172044754028,0.0014198869466781616,0.08714236319065094,8.83372974395752,0.18864554166793823,-3.2786104679107666
1403715276912143000,0.01036568358540535,0.02620459347963333,0.12289735674858093,9.500981330871582,-0.00036812687176279724,-3.59840989112854
1403715276917143000,-0.005740944296121597,0.0451875776052475,0.07620648294687271,9.251777648925781,-0.014677103608846664,-3.8693974018096924
1403715276922143000,-0.024485841393470764,0.003059130162000656,0.057834044098854065,8.339510917663574,0.45504847168922424,-3.295290470123291
1403715276927143000,-0.013673663139343262,-0.009375479072332382,0.0904017835855484,9.471386909484863,0.14369270205497742,-3.6317784786224365
1403715276932143000,0.00820588693022728,0.05459524691104889,0.09359724074602127,9.61242389678955,-0.10350736975669861,-4.02391242980957
1403715276937143000,-0.010116716846823692,0.04855254292488098,0.03746066987514496,8.552236557006836,0.14098528027534485,-3.581423759460449
1403715276942143000,-0.002409718930721283,0.015317365527153015,0.0784812793135643,9.454975128173828,0.5991600155830383,-3.628570795059204
1403715276947143000,0.005963854491710663,0.06726173311471939,0.09359679371118546,9.735130310058594,-0.021308880299329758,-3.9138638973236084
1403715276952143000,-0.00549137219786644,0.06345310807228088,0.062212198972702026,8.604288101196289,0.03519725054502487,-3.770369052886963
1403715276957143000,-0.006348747760057449,0.010949231684207916,0.06305351853370667,9.162330627441406,0.05691750347614288,-3.937221050262451
1403715276962143000,-0.0026452504098415375,0.05784445255994797,0.08187738806009293,9.580487251281738,0.12267681956291199,-3.6640892028808594
1403715276967143000,-0.004142720252275467,0.04142069071531296,0.08073974400758743,8.435171127319336,-0.3209073841571808,-3.6172852516174316
1403715276972143000,-0.0125543512403965,-0.0014703646302223206,0.04683353006839752,8.709805488586426,0.06607834249734879,-3.6146371364593506
1403715276977143000,-0.004038956016302109,0.009542878717184067,0.08530312031507492,9.656529426574707,0.5707194805145264,-3.855043649673462
1403715276982143000,-0.010732768103480339,0.04927933216094971,0.08977454155683517,8.614798545837402,0.3420133888721466,-3.4924278259277344
1403715276987143000,-0.022258250042796135,0.0032360106706619263,0.07068372517824173,8.892476081848145,0.4256955683231354,-3.6691248416900635
1403715276992143000,0.0011243894696235657,0.01840347796678543,0.0973191186785698,9.798771858215332,0.34440794587135315,-3.837812900543213
1403715276997143000,0.004914510995149612,0.06327716261148453,0.08930220454931259,8.973315238952637,0.269515722990036,-3.690018892288208
1403715277002143000,0.004617519676685333,0.01991291344165802,0.07454964518547058,8.517711639404297,0.3318927586078644,-3.2809221744537354
1403715277007143000,0.017568763345479965,0.013743951916694641,0.1079835370182991,9.522660255432129,0.5976558923721313,-3.7614216804504395
1403715277012143000,0.006648793816566467,0.05396203696727753,0.09407616406679153,9.181418418884277,0.29957765340805054,-3.69674015045166
1403715277017143000,-0.009609181433916092,0.008035097271203995,0.07301708310842514,8.16697883605957,0.10271064192056656,-3.3258728981018066
1403715277022143000,-0.005130622535943985,-0.03113865666091442,0.0761679857969284,9.35124397277832,0.259517103433609,-3.586421251296997
1403715277027143000,-0.004414450377225876,0.025790557265281677,0.09182808548212051,9.630640983581543,0.15884418785572052,-3.946099042892456
1403715277032143000,-0.025096936151385307,0.01854657754302025,0.04199328273534775,8.428390502929688,0.009430469013750553,-3.1979904174804688
1403715277037143000,-0.015312591567635536,-0.05304181948304176,0.0457785427570343,8.799680709838867,-0.18783974647521973,-3.6667654514312744
1403715277042143000,0.014801610261201859,0.015862584114074707,0.08276912569999695,9.752666473388672,-0.11810335516929626,-3.83327579498291
1403715277047143000,0.008021749556064606,0.03001409024000168,0.0645037591457367,8.30056095123291,0.2843795120716095,-3.5879058837890625
1403715277052143000,-0.010432444512844086,-0.028768083080649376,0.0844290629029274,8.852145195007324,0.3476655185222626,-3.579435110092163
1403715277057143000,0.0002517513930797577,0.05166658014059067,0.11791113764047623,10.197761535644531,0.18692971765995026,-4.201455593109131
1403715277062143000,-0.007956158369779587,0.07701299339532852,0.10594021528959274,8.951379776000977,-0.10859399288892746,-3.7987656593322754
1403715277067143000,-0.013795549049973488,0.01674697920680046,0.08595792949199677,8.251599311828613,0.38050952553749084,-3.4634833335876465
1403715277072143000,0.00012877583503723145,0.033995792269706726,0.11381182074546814,9.801084518432617,0.04097352176904678,-3.969672918319702
1403715277077143000,0.0014502741396427155,0.06652884185314178,0.09388645738363266,8.450181007385254,-0.3735693097114563,-3.623866558074951
1403715277082143000,0.007808521389961243,-0.013894939795136452,0.051375411450862885,8.443934440612793,0.07563332468271255,-3.5280299186706543
1403715277087143000,0.02418571338057518,0.0023485831916332245,0.09803009033203125,9.523396492004395,0.3735443949699402,-3.8618316650390625
1403715277092143000,-3.4283846616744995e-05,0.05214430391788483,0.06492019444704056,8.66692066192627,0.22788305580615997,-3.7459096908569336
1403715277097143000,-0.025204148143529892,-0.006153993308544159,0.03893610090017319,8.648364067077637,0.33174511790275574,-3.2979772090911865
1403715277102143000,-0.006356138736009598,0.005861762911081314,0.08775660395622253,9.730978965759277,0.15461944043636322,-3.5628983974456787
1403715277107143000,-0.015412118285894394,0.06603316962718964,0.05908507853746414,9.50433349609375,-0.1313837766647339,-4.04282808303833
1403715277112143000,-0.013976534828543663,0.027415871620178223,0.0370740070939064,8.807084083557129,-0.08483072370290756,-3.468414545059204
1403715277117143000,-0.0005653202533721924,0.022571615874767303,0.08163426071405411,9.390953063964844,0.4955574870109558,-3.462841272354126
1403715277122143000,-0.003977783024311066,0.07823415845632553,0.09137190133333206,9.104934692382812,0.044259119778871536,-3.9083638191223145
1403715277127143000,-0.01801283471286297,0.01927196979522705,0.059506967663764954,8.479694366455078,-0.18581491708755493,-3.5312721729278564
1403715277132143000,-0.004835650324821472,-0.0008249543607234955,0.08161351084709167,9.468029975891113,0.17997676134109497,-3.6495587825775146
1403715277137143000,0.010386083275079727,0.05789019167423248,0.10144481062889099,9.288399696350098,-0.12555216252803802,-3.8593297004699707
1403715277142143000,0.001333344727754593,0.02035316824913025,0.06227432191371918,8.264337539672852,-0.19802521169185638,-3.6017873287200928
1403715277147143000,0.00419563427567482,-0.019138311967253685,0.07131591439247131,9.522417068481445,0.3680171072483063,-3.618938446044922
1403715277152143000,0.008638843894004822,0.015267539769411087,0.09107255190610886,9.050954818725586,0.12497882544994354,-3.957610845565796
1403715277157143000,-0.006589662283658981,-0.012138037011027336,0.060843825340270996,8.835683822631836,-0.05325879529118538,-4.234194278717041
1403715277162143000,-0.01184089295566082,0.010158773511648178,0.08061876147985458,9.680001258850098,0.7329407930374146,-4.008729934692383
1403715277167143000,-0.019050700590014458,0.048358187079429626,0.09588851034641266,8.78248405456543,0.04041818156838417,-3.779207229614258
1403715277172143000,-0.016512658447027206,0.01590277999639511,0.05804276466369629,8.768775939941406,-0.43986281752586365,-4.2366743087768555
1403715277177143000,0.007963448762893677,0.0023662038147449493,0.0823628306388855,9.293120384216309,0.3386525511741638,-4.018363952636719
1403715277182143000,0.01387452706694603,0.05548880994319916,0.10881754755973816,8.592437744140625,0.05309717357158661,-3.7403323650360107
1403715277187143000,-0.002242688089609146,-0.007047034800052643,0.07217291742563248,8.181265830993652,0.2765328586101532,-4.010873794555664
1403715277192143000,0.0067262910306453705,-0.011560842394828796,0.10989101231098175,9.476917266845703,0.7293915748596191,-4.2863688468933105
1403715277197143000,-0.013911718502640724,0.06134527176618576,0.11047128587961197,8.834219932556152,-0.1663932502269745,-3.5899276733398438
1403715277202143000,-0.013251813128590584,-0.018602654337882996,0.08569469302892685,8.479744911193848,-0.04664694890379906,-4.3150835037231445
1403715277207143000,0.0197795070707798,0.02401307225227356,0.09207311272621155,9.706819534301758,0.14489012956619263,-4.150091171264648
1403715277212143000,0.0048506781458854675,0.04687110334634781,0.0841570496559143,8.412217140197754,-0.18534217774868011,-3.346348524093628
1403715277217143000,0.002589922398328781,-0.026110395789146423,0.05808774381875992,8.913739204406738,0.30748075246810913,-3.715785264968872
1403715277222143000,0.014263767749071121,0.025221392512321472,0.09347281605005264,9.972726821899414,0.659978449344635,-3.842609405517578
1403715277227143000,-0.028563814237713814,0.04761778563261032,0.051530227065086365,7.949199676513672,0.19145898520946503,-3.1790077686309814
1403715277232143000,-0.03345487266778946,-0.044322770088911057,0.04814223200082779,8.569748878479004,0.090237557888031,-3.6906449794769287
1403715277237143000,-0.015550937503576279,0.003793291747570038,0.08959582448005676,10.380661010742188,0.4206101894378662,-3.96925950050354
1403715277242143000,-0.03968401998281479,0.045130111277103424,0.046412743628025055,8.256772994995117,-0.10440471768379211,-3.3114569187164307
1403715277247143000,-0.025653250515460968,-0.034922465682029724,0.0554959774017334,9.097976684570312,-0.3476477265357971,-3.6379661560058594
1403715277252143000,0.01143774762749672,0.04488334059715271,0.1131867915391922,10.595205307006836,0.02812330797314644,-3.7015442848205566
1403715277257143000,-0.004031125456094742,0.08727075159549713,0.07868228852748871,7.459617614746094,-0.14128245413303375,-3.1787843704223633
1403715277262143000,0.008162502199411392,-0.009038690477609634,0.07773716002702713,9.361030578613281,0.24509043991565704,-3.8564159870147705
1403715277267143000,0.02674465999007225,0.0878133773803711,0.11081509292125702,9.72522258758545,0.3215125501155853,-4.3534111976623535
1403715277272143000,-0.0029934123158454895,0.021213240921497345,0.06117372214794159,7.183592319488525,0.005416960921138525,-3.412452220916748
1403715277277143000,-0.0009622015058994293,-0.047094568610191345,0.08171308785676956,9.128952026367188,0.4086616635322571,-4.098525047302246
1403715277282143000,-0.0066590867936611176,0.05472447723150253,0.10688184201717377,9.595096588134766,0.2957615852355957,-3.783116102218628
1403715277287143000,-0.028870029374957085,-0.020453639328479767,0.0710570365190506,7.8678507804870605,-0.03188588097691536,-3.393834114074707
1403715277292143000,-0.013840299099683762,-0.049866873770952225,0.08226046711206436,9.974102020263672,0.19764447212219238,-3.9977688789367676
1403715277297143000,-0.011110551655292511,0.0710194855928421,0.10451103001832962,9.715927124023438,0.24429766833782196,-3.8917129039764404
1403715277302143000,-0.020181749016046524,0.00843244418501854,0.07333868741989136,8.116095542907715,-0.11711875349283218,-3.4147109985351562
1403715277307143000,-0.0053262896835803986,-0.017992015928030014,0.08123650401830673,9.989262580871582,-0.19408437609672546,-4.1864705085754395
1403715277312143000,0.010074026882648468,0.09125950932502747,0.09823258966207504,8.770110130310059,-0.04644911363720894,-3.647583246231079
1403715277317143000,0.01469511166214943,0.00011280924081802368,0.07298867404460907,8.196928024291992,-0.23489803075790405,-3.558535575866699
1403715277322143000,0.027271222323179245,0.022495172917842865,0.07326195389032364,10.434263229370117,0.3279934227466583,-3.900805711746216
1403715277327143000,0.01054835319519043,0.08102427423000336,0.06993710249662399,8.985395431518555,0.24275371432304382,-3.7608776092529297
1403715277332143000,-0.009480210021138191,-0.03283752501010895,0.04221394658088684,8.059865951538086,0.10297141969203949,-3.467507839202881
1403715277337143000,-0.012168455868959427,0.0029713958501815796,0.058310337364673615,10.283397674560547,0.7844250798225403,-4.303913116455078
1403715277342143000,-0.036390941590070724,0.0666479542851448,0.05924220383167267,8.54395866394043,0.2789456844329834,-3.6041815280914307
1403715277347143000,-0.045906465500593185,-0.05051533505320549,0.04785684496164322,8.279176712036133,-0.036602456122636795,-3.3398985862731934
1403715277352143000,-0.01813730038702488,0.019034408032894135,0.07104190438985825,10.551077842712402,0.14120502769947052,-4.109225749969482
1403715277357143000,-0.009251128882169724,0.05648358166217804,0.08652549237012863,8.312261581420898,-0.4370708465576172,-3.3117384910583496
1403715277362143000,0.006147168576717377,-0.041241422295570374,0.09355940669775009,9.165975570678711,-0.07144508510828018,-3.779045343399048
1403715277367143000,0.026775654405355453,0.0908799022436142,0.11139696091413498,9.934139251708984,0.11900442093610764,-3.952469825744629
1403715277372143000,0.025581281632184982,0.044705525040626526,0.09810499846935272,8.038264274597168,-0.3218941390514374,-3.4621689319610596
1403715277377143000,0.042192768305540085,-0.01262153685092926,0.12007585167884827,9.348729133605957,0.41330304741859436,-3.723341703414917
1403715277382143000,0.02600334957242012,0.11275890469551086,0.12023235857486725,9.26744556427002,0.5765542387962341,-3.854266405105591
1403715277387143000,-0.008909210562705994,0.01584077626466751,0.07925347238779068,7.432363510131836,0.40289321541786194,-3.350040912628174
1403715277392143000,-0.01430068351328373,-0.03237161412835121,0.08610393851995468,9.954618453979492,0.8295159935951233,-3.7660958766937256
1403715277397143000,-0.03636512905359268,0.08468079566955566,0.07875484228134155,9.128928184509277,0.0984434261918068,-3.8400988578796387
1403715277402143000,-0.04778299480676651,-0.02446107193827629,0.02321448177099228,7.507009029388428,-0.1663375049829483,-3.207811117172241
1403715277407143000,-0.022486738860607147,-0.02378654293715954,0.049366503953933716,10.175591468811035,0.34729957580566406,-3.7827107906341553
1403715277412143000,-0.02169347181916237,0.09138810634613037,0.05575798451900482,8.923869132995605,-0.346874475479126,-3.5981040000915527
1403715277417143000,-0.004606530070304871,-0.023213369771838188,0.04974507540464401,8.814969062805176,0.05267258733510971,-3.388923168182373
1403715277422143000,0.019364532083272934,0.04231177270412445,0.09699690341949463,10.759413719177246,0.21826601028442383,-3.9195802211761475
1403715277427143000,0.007755652070045471,0.09920039772987366,0.08791272342205048,7.5139970779418945,-0.08389844000339508,-3.668891668319702
1403715277432143000,0.019849471747875214,-0.039938122034072876,0.1085919439792633,9.086418151855469,0.49712318181991577,-3.8643531799316406
1403715277437143000,0.007694918662309647,0.11769033968448639,0.10984089970588684,10.291682243347168,0.2243906706571579,-3.953890323638916
1403715277442143000,-0.003040209412574768,0.04798521101474762,0.08554499596357346,7.136294364929199,-0.22020190954208374,-2.7578494548797607
1403715277447143000,0.0015524476766586304,-0.06476841866970062,0.10079281032085419,9.85214900970459,0.49486851692199707,-3.425243377685547
1403715277452143000,-0.020927205681800842,0.07774439454078674,0.08492902666330338,9.533858299255371,0.20697584748268127,-3.472571849822998
1403715277457143000,-0.027868274599313736,-0.019043803215026855,0.05511944741010666,8.243998527526855,-0.3709411025047302,-3.208683490753174
1403715277462143000,-0.0022008083760738373,-0.032713599503040314,0.07329604774713516,10.424345016479492,0.36412063241004944,-3.6296441555023193
1403715277467143000,-0.006522912532091141,0.07822071015834808,0.079313725233078,9.413705825805664,-0.6096110939979553,-3.1654343605041504
1403715277472143000,0.009349256753921509,-0.04069077968597412,0.06508809328079224,8.743191719055176,0.05993969365954399,-3.282595634460449
1403715277477143000,0.020024266093969345,0.029431283473968506,0.077914759516716,10.43526554107666,0.5226538181304932,-3.491053342819214
1403715277482143000,-0.010886535048484802,0.05672020465135574,0.0585516020655632,8.480083465576172,0.25034651160240173,-3.3056063652038574
1403715277487143000,-0.009836703538894653,-0.04313283413648605,0.06636673212051392,9.644545555114746,0.49245351552963257,-3.858811855316162
1403715277492143000,-0.02364901266992092,0.05305185914039612,0.07715511322021484,9.716414451599121,0.11068537831306458,-3.6192164421081543
1403715277497143000,-0.01736433058977127,0.015146061778068542,0.08351745456457138,7.913125038146973,-0.1313505321741104,-3.4633336067199707
1403715277502143000,-0.006274718791246414,-0.011080935597419739,0.08585648983716965,9.88688850402832,0.25511232018470764,-4.109922409057617
1403715277507143000,-0.007847100496292114,0.0402698814868927,0.10189402103424072,9.970565795898438,-0.20783613622188568,-4.123252868652344
1403715277512143000,0.00296705961227417,-0.0018407665193080902,0.10476792603731155,7.905878067016602,0.008567478507757187,-3.6582813262939453
1403715277517143000,0.003912530839443207,0.02509176731109619,0.07968930155038834,8.654624938964844,0.5043478608131409,-3.445333957672119
1403715277522143000,0.0020098499953746796,0.032271720468997955,0.06539253145456314,9.021349906921387,-0.28292518854141235,-3.5668675899505615
1403715277527143000,0.021698813885450363,-0.0415366068482399,0.08081258088350296,9.651727676391602,0.38390979170799255,-3.900848388671875
1403715277532143000,0.00359334796667099,0.008907347917556763,0.07831355929374695,10.297273635864258,0.21007810533046722,-4.343417167663574
1403715277537143000,-0.003773573786020279,0.050711147487163544,0.06281174719333649,8.071529388427734,0.46800437569618225,-3.398688554763794
1403715277542143000,-0.014998039230704308,0.04292934387922287,0.05334705114364624,8.774873733520508,0.8055635094642639,-3.3555004596710205
1403715277547143000,-0.043170467019081116,0.0794396847486496,0.04168276861310005,10.325338363647461,-0.38999781012535095,-4.093394756317139
1403715277552143000,-0.01292315125465393,0.03167060762643814,0.07266648858785629,8.538187026977539,-0.19519644975662231,-3.6768136024475098
1403715277557143000,-0.004313971847295761,0.04782593250274658,0.07518351823091507,8.387667655944824,0.1597563773393631,-3.4871156215667725
1403715277562143000,0.000867839902639389,0.09367068111896515,0.059549376368522644,8.49360179901123,-0.29954493045806885,-3.274810314178467
