#timestamp [ns],w_RS_S_x [rad s^-1],w_RS_S_y [rad s^-1],w_RS_S_z [rad s^-1],a_RS_S_x [m s^-2],a_RS_S_y [m s^-2],a_RS_S_z [m s^-2]
1403638127270097000,-0.010471975511965976,0.01117010721276371,0.06562437987498679,8.956740333333332,0.08172208333333333,-3.930832208333333
1403638127275097000,-0.012566370614359173,0.0153588974175501,0.059341194567807204,9.095667875,0.04903325,-3.947176625
1403638127280097000,-0.01117010721276371,0.0153588974175501,0.059341194567807204,9.07115125,-0.04086104166666667,-3.955348833333333
1403638127285097000,-0.011868238913561441,0.021642082724729686,0.04817108735504349,9.201906583333333,-0.08989429166666667,-3.9962098749999995
1403638127290097000,-0.01117010721276371,0.02722713633111154,0.050963614158234416,9.005773583333333,-0.16344416666666667,-3.947176625
1403638127295097000,-0.006283185307179587,0.03420845333908886,0.05305800926062762,8.964912541666667,-0.17978858333333333,-3.930832208333333
1403638127300097000,-0.006981317007977318,0.030019663134302467,0.05864306286700947,8.7279185,-0.196133,-3.87362675
1403638127305097000,-0.006981317007977318,0.019547687622336492,0.0614355896702004,8.77695175,-0.17978858333333333,-3.87362675
1403638127310097000,-0.013962634015954637,0.01117010721276371,0.06771877497737998,8.695229666666666,-0.24516625,-3.8491101249999997
1403638127315097000,-0.014660765716752367,0.010471975511965976,0.07330382858376185,8.842329416666665,-0.26151066666666667,-3.898143375
1403638127320097000,-0.014660765716752367,0.00767944870877505,0.08447393579652555,8.858673833333333,-0.4004382083333333,-3.8654545416666664
1403638127325097000,-0.008377580409572781,0.013962634015954637,0.09285151620609833,9.087495666666666,-0.392266,-3.92266
1403638127330097000,0.0020943951023931952,0.016755160819145562,0.10471975511965977,8.964912541666667,-0.43312704166666666,-3.97169325
1403638127335097000,0.017453292519943295,0.024434609527920613,0.11030480872604163,9.103840083333333,-0.34323275000000003,-3.97169325
1403638127340097000,0.01815142422074103,0.028623399732707,0.10471975511965977,8.891362666666666,-0.269682875,-3.930832208333333
1403638127345097000,0.020943951023931952,0.021642082724729686,0.10192722831646883,8.948568125,-0.04903325,-3.97169325
1403638127350097000,0.0153588974175501,0.016057029118347832,0.1054178868204575,8.825985,0.04903325,-3.955348833333333
1403638127355097000,0.010471975511965976,0.014660765716752367,0.10821041362364843,8.858673833333333,0.0980665,-3.9635210416666666
1403638127360097000,0.0020943951023931952,0.00767944870877505,0.1054178868204575,8.77695175,0.0980665,-3.92266
1403638127365097000,0.0,0.003490658503988659,0.10471975511965977,8.997601374999999,0.13892754166666665,-3.906315583333333
1403638127370097000,-0.004886921905584123,0.0020943951023931952,0.09704030641088471,8.981256958333333,0.06537766666666667,-3.9144877916666663
1403638127375097000,-0.009075712110370514,0.0013962634015954637,0.08587019919812101,9.1201845,0.08172208333333333,-3.92266
1403638127380097000,-0.009075712110370514,0.004886921905584123,0.0747000919853573,9.030290208333332,0.016344416666666667,-3.857282333333333
1403638127385097000,-0.004886921905584123,0.005585053606381855,0.06632251157578452,9.087495666666666,0.016344416666666667,-3.8654545416666664
1403638127390097000,-0.0041887902047863905,0.013264502315156905,0.060039326268604934,9.030290208333332,-0.016344416666666667,-3.906315583333333
1403638127395097000,-0.003490658503988659,0.014660765716752367,0.057246799465414,8.989429166666666,-0.016344416666666667,-3.9635210416666666
1403638127400097000,0.0006981317007977319,0.019547687622336492,0.04817108735504349,8.97308475,0.04903325,-3.97169325
1403638127405097000,-0.0027925268031909274,0.023736477827122883,0.04537856055185257,9.062979041666667,0.13075533333333333,-4.069759749999999
1403638127410097000,-0.005585053606381855,0.0307177948351002,0.05166174585903216,8.997601374999999,0.11441091666666667,-4.086104166666667
1403638127415097000,-0.010583288967609406,0.02989107556641102,0.05204963684082031,8.956113815307617,0.0898989662528038,-4.136409759521484
1403638127420097000,-0.013395078480243683,0.0326957106590271,0.059800513088703156,8.825905799865723,0.01621934026479721,-4.021615982055664
1403638127425097000,-0.015446890145540237,0.027115540578961372,0.059038396924734116,8.890857696533203,-0.05758156254887581,-3.9966421127319336
1403638127430097000,-0.018894191831350327,0.03122895397245884,0.06101420521736145,8.82557487487793,-0.1390381157398224,-4.012967109680176
1403638127435097000,-0.011245131492614746,0.03402218967676163,0.07367558032274246,8.947749137878418,-0.18788616359233856,-4.029353141784668
1403638127440097000,-0.00355694442987442,0.0417562872171402,0.07645891606807709,8.955671310424805,-0.2692412734031677,-4.053526878356934
1403638127445097000,0.0020515918731689453,0.045944228768348694,0.08197139948606491,9.078103065490723,-0.24407809972763062,-4.020678997039795
1403638127450097000,0.004847623407840729,0.05293576419353485,0.07995730638504028,9.102818489074707,-0.16231808066368103,-3.9961726665496826
1403638127455097000,0.011091277003288269,0.06060410290956497,0.08679267764091492,9.01326847076416,-0.09672629833221436,-3.8981494903564453
1403638127460097000,0.011086829006671906,0.06621435284614563,0.090298131108284,8.801349639892578,-0.10457990318536758,-3.8080813884735107
1403638127465097000,0.00480286031961441,0.049443721771240234,0.09447905421257019,8.809978485107422,-0.04766077175736427,-3.7922303676605225
1403638127470097000,-0.006377123296260834,0.0416865199804306,0.09227737784385681,8.85113525390625,0.000806604337412864,-3.7845680713653564
1403638127475097000,-0.019695274531841278,0.035313405096530914,0.0917171910405159,8.89183235168457,-0.08941023051738739,-3.7682626247406006
1403638127480097000,-0.02316250652074814,0.026228023692965508,0.08832025527954102,8.818441390991211,-0.22085808217525482,-3.693809986114502
1403638127485097000,-0.017530471086502075,0.010909348726272583,0.08895966410636902,8.851046562194824,-0.31980475783348083,-3.6519534587860107
1403638127490097000,-0.014713361859321594,0.008191630244255066,0.08060065656900406,8.916056632995605,-0.3854212760925293,-3.6678459644317627
1403638127495097000,-0.003532819449901581,0.0032715462148189545,0.08058387041091919,8.907735824584961,-0.43428754806518555,-3.7169785499572754
1403638127500097000,0.012460224330425262,0.013141700997948647,0.07292385399341583,9.037693977355957,-0.3442336320877075,-3.832123041152954
1403638127505097000,0.017320580780506134,0.01469791866838932,0.07645535469055176,8.956137657165527,-0.229648619890213,-3.8652477264404297
1403638127510097000,0.018788062036037445,0.009056556969881058,0.0708613470196724,9.045831680297852,-0.033193882554769516,-4.029770851135254
1403638127515097000,0.015990443527698517,0.016654180362820625,0.0791676938533783,8.997214317321777,0.024213245138525963,-4.087316036224365
1403638127520097000,0.010986454784870148,0.013143198564648628,0.08265669643878937,8.89941120147705,0.09741147607564926,-4.095763206481934
1403638127525097000,0.011712603271007538,0.011045509949326515,0.08684840053319931,8.842363357543945,0.015373892150819302,-4.01387882232666
1403638127530097000,0.009693525731563568,0.003356652334332466,0.07495823502540588,8.801918983459473,0.08813497424125671,-3.883058786392212
1403638127535097000,0.0005767717957496643,-0.0065300604328513145,0.07427031546831131,8.915820121765137,0.1535765379667282,-4.006608963012695
1403638127540097000,-0.01196347177028656,0.0032457560300827026,0.07637297362089157,9.013384819030762,0.19400013983249664,-4.007061004638672
1403638127545097000,-0.021000295877456665,0.0004948005080223083,0.08616836369037628,8.964395523071289,0.05496774613857269,-3.965498924255371
1403638127550097000,-0.02309887856245041,0.008266085758805275,0.08476415276527405,9.070394515991211,-0.1490861028432846,-3.8579044342041016
1403638127555097000,-0.015333771705627441,0.0012439321726560593,0.08609262853860855,8.915583610534668,-0.336344838142395,-3.7743210792541504
1403638127560097000,6.161630153656006e-06,0.013204971328377724,0.07144016772508621,9.192380905151367,-0.3679238557815552,-3.864423990249634
1403638127565097000,0.012478016316890717,0.018842356279492378,0.060347434133291245,9.020682334899902,-0.285244882106781,-3.8645641803741455
1403638127570097000,0.01452549546957016,0.027200592681765556,0.052723199129104614,8.93114948272705,-0.06438290327787399,-3.9555752277374268
1403638127575097000,0.012444071471691132,0.018851013854146004,0.06390746682882309,8.752530097961426,-0.023501195013523102,-3.955568790435791
1403638127580097000,0.004047013819217682,0.013825731351971626,0.07297716289758682,8.720797538757324,0.008850670419633389,-3.9637413024902344
1403638127585097000,-0.0008340999484062195,0.0019183680415153503,0.08127787709236145,8.753297805786133,-0.08938945829868317,-3.979942798614502
1403638127590097000,-0.004316650331020355,0.004670368507504463,0.07698997855186462,8.924057006835938,-0.04135105013847351,-4.053851127624512
1403638127595097000,-0.007120274007320404,0.0004773195832967758,0.08540578931570053,8.8993558883667,-0.14019016921520233,-3.996469736099243
1403638127600097000,-0.0008339807391166687,0.0067963507026433945,0.079220250248909,9.094505310058594,-0.14015719294548035,-4.037654876708984
1403638127605097000,0.0006377920508384705,0.008179133757948875,0.08276274055242538,8.988649368286133,-0.1645440310239792,-3.963897705078125
1403638127610097000,0.00902567058801651,0.017990531399846077,0.08420605957508087,9.069767951965332,-0.1889825016260147,-3.9636170864105225
1403638127615097000,0.014656409621238708,0.020050102844834328,0.08963769674301147,8.906693458557129,-0.09861926734447479,-3.939289093017578
1403638127620097000,0.02018141746520996,0.02776981331408024,0.08394074440002441,9.021235466003418,-0.016372380778193474,-3.9720640182495117
1403638127625097000,0.015321269631385803,0.027099484577775,0.07833496481180191,8.866601943969727,0.04124196246266365,-3.9479079246520996
1403638127630097000,0.008276432752609253,0.03057871200144291,0.07067379355430603,8.940220832824707,0.1644967645406723,-4.038639068603516
1403638127635097000,-0.002212338149547577,0.02425202913582325,0.06806564331054688,8.826228141784668,0.18894000351428986,-3.96514630317688
1403638127640097000,-0.009259402751922607,0.022078515961766243,0.061176300048828125,8.972892761230469,0.2377690225839615,-3.9897758960723877
1403638127645097000,-0.01405692845582962,0.01785365678369999,0.0625014454126358,8.8670072555542,0.08191995322704315,-3.8910973072052
1403638127650097000,-0.018957067281007767,0.013004431501030922,0.054064057767391205,9.054193496704102,-0.024795033037662506,-3.9396278858184814
1403638127655097000,-0.016827210783958435,0.01584545709192753,0.05193483829498291,8.963960647583008,-0.20486611127853394,-3.94744873046875
1403638127660097000,-0.014031223952770233,0.018691102042794228,0.044327449053525925,9.028846740722656,-0.27852046489715576,-3.9307117462158203
1403638127665097000,-0.005627572536468506,0.029190266504883766,0.05145769938826561,8.866029739379883,-0.2865731418132782,-3.881246328353882
1403638127670097000,-0.0007141157984733582,0.030651601031422615,0.05848120525479317,8.972371101379395,-0.18003931641578674,-3.955003261566162
1403638127675097000,0.002060405910015106,0.03766017407178879,0.06954890489578247,8.907343864440918,-0.20420363545417786,-3.955004930496216
1403638127680097000,-0.009828753769397736,0.0355357751250267,0.07219637185335159,8.973017692565918,-0.12243771553039551,-3.9556937217712402
1403638127685097000,-0.010574586689472198,0.037571534514427185,0.08473505079746246,8.793707847595215,-0.2932669520378113,-3.946943998336792
1403638127690097000,-0.006420530378818512,0.035538338124752045,0.09380054473876953,8.924047470092773,-0.31780001521110535,-3.9305241107940674
1403638127695097000,0.0012425854802131653,0.033427461981773376,0.10363078862428665,8.736634254455566,-0.3587105870246887,-3.8892822265625
1403638127700097000,0.00829150527715683,0.023621464148163795,0.10086831450462341,8.858681678771973,-0.2775075137615204,-3.9062118530273438
1403638127705097000,0.015238583087921143,0.02005099691450596,0.10428602248430252,8.744732856750488,-0.18012653291225433,-3.881714105606079
1403638127710097000,0.015226386487483978,0.008825315162539482,0.09933091700077057,8.79362678527832,-0.0911768451333046,-3.8167552947998047
1403638127715097000,0.004833497107028961,0.0011096298694610596,0.09371694922447205,8.834687232971191,-0.06744919717311859,-3.7678000926971436
1403638127720097000,0.004189260303974152,0.00042119063436985016,0.09369903057813644,9.030243873596191,0.055430810898542404,-3.8829965591430664
1403638127725097000,0.0006337687373161316,0.009567350149154663,0.09163051843643188,9.103254318237305,0.031250860542058945,-3.891247034072876
1403638127730097000,-0.0049748495221138,0.020096207037568092,0.08959054201841354,9.258277893066406,0.0803333967924118,-3.907947301864624
1403638127735097000,-0.0042303577065467834,0.025733692571520805,0.0875759944319725,9.046102523803711,0.0159353818744421,-3.8909807205200195
1403638127740097000,-0.0008432716131210327,0.022934729233384132,0.07843543589115143,9.103080749511719,-0.00871062558144331,-3.923567295074463
1403638127745097000,-0.0008217617869377136,0.02709379978477955,0.07077781856060028,8.915502548217773,-6.505697820102796e-05,-3.9399051666259766
1403638127750097000,-0.004231564700603485,0.022188162431120872,0.06526284664869308,8.882859230041504,0.032696790993213654,-3.989332437515259
1403638127755097000,-0.002160176634788513,0.02016160450875759,0.059682268649339676,8.720126152038574,-0.04959539696574211,-3.956118583679199
1403638127760097000,-0.0029151663184165955,0.01454857923090458,0.05837606266140938,8.818047523498535,-0.00044911951408721507,-4.038097381591797
1403638127765097000,-0.0035298913717269897,0.010309016332030296,0.059755437076091766,8.78533935546875,-0.03328113630414009,-4.037837028503418
1403638127770097000,-0.0042023733258247375,0.006016690284013748,0.06658448278903961,8.964598655700684,-0.017025433480739594,-4.046117305755615
1403638127775097000,-0.007785297930240631,0.00882856734097004,0.07431388646364212,9.029542922973633,-0.03317577391862869,-4.037984371185303
1403638127780097000,-0.0063964203000068665,0.010951273143291473,0.07778944820165634,9.12686538696289,-0.11504257470369339,-4.037595748901367
1403638127785097000,-0.00774846225976944,0.021456407383084297,0.07846073806285858,9.012834548950195,-0.1555626392364502,-3.947478771209717
1403638127790097000,-0.004979826509952545,0.027135463431477547,0.08693534135818481,9.004739761352539,-0.24498717486858368,-3.9473140239715576
1403638127795097000,-0.002842523157596588,0.03417958319187164,0.08969229459762573,8.890671730041504,-0.2696326673030853,-3.9143009185791016
1403638127800097000,0.0006038621068000793,0.03134088218212128,0.09100808203220367,8.97245979309082,-0.24489879608154297,-3.914263963699341
1403638127805097000,-9.908527135848999e-05,0.032005444169044495,0.09031019359827042,8.850686073303223,-0.19629570841789246,-3.881754159927368
1403638127810097000,0.0012957900762557983,0.024271389469504356,0.09164174646139145,8.826586723327637,-0.17169399559497833,-3.8734917640686035
1403638127815097000,0.0034446269273757935,0.025012658908963203,0.09241552650928497,8.736879348754883,-0.18785962462425232,-3.8896477222442627
1403638127820097000,0.005494736135005951,0.018022680655121803,0.09941218048334122,8.891706466674805,-0.16336140036582947,-3.914485454559326
1403638127825097000,0.0061987414956092834,0.021482067182660103,0.09232103079557419,8.850770950317383,-0.04903828725218773,-3.898491382598877
1403638127830097000,0.0047996267676353455,0.013727834448218346,0.09582794457674026,8.875055313110352,0.03271007910370827,-3.948057174682617
1403638127835097000,0.0026706531643867493,0.011591065675020218,0.09448856860399246,8.972877502441406,0.07334068417549133,-3.964707374572754
1403638127840097000,0.001971133053302765,0.015079634264111519,0.08886000514030457,9.13564395904541,0.057039786130189896,-3.989333152770996
1403638127845097000,-0.004964612424373627,0.026288503780961037,0.08200512826442719,9.070222854614258,-0.0004962876555509865,-3.989337921142578
1403638127850097000,-0.0049527958035469055,0.02774147130548954,0.08617731928825378,9.078544616699219,-0.03319767862558365,-3.964648962020874
1403638127855097000,-0.004949934780597687,0.03200959414243698,0.08263210952281952,8.9970064163208,-0.05784229934215546,-3.9725918769836426
1403638127860097000,-0.004275679588317871,0.028484748676419258,0.08482664078474045,8.989076614379883,-0.08244337141513824,-3.9399702548980713
1403638127865097000,-0.0056217387318611145,0.03264046460390091,0.07916687428951263,8.924112319946289,-0.07396438717842102,-3.915356397628784
1403638127870097000,-0.003544740378856659,0.02497442252933979,0.07907763123512268,8.769082069396973,-0.1883191466331482,-3.8492321968078613
1403638127875097000,0.0005996003746986389,0.020847762003540993,0.06946270912885666,8.793205261230469,-0.1799163967370987,-3.8653693199157715
1403638127880097000,-9.725242853164673e-05,0.014516467228531837,0.07502451539039612,8.850574493408203,-0.13869287073612213,-3.8900818824768066
1403638127885097000,0.0013229474425315857,0.010983560234308243,0.07221419364213943,8.972871780395508,-0.1147804856300354,-3.890188694000244
1403638127890097000,0.002678021788597107,0.010259371250867844,0.08272451162338257,9.070572853088379,-0.10669286549091339,-3.890324592590332
1403638127895097000,0.0005673542618751526,0.0179696474224329,0.08193635940551758,9.070246696472168,-0.06589965522289276,-3.906683921813965
1403638127900097000,-0.002876102924346924,0.021468395367264748,0.08814647048711777,9.070258140563965,-0.08249364048242569,-3.9396352767944336
1403638127905097000,-0.0014919638633728027,0.027794981375336647,0.08265950530767441,9.021425247192383,-0.07426608353853226,-3.972400665283203
1403638127910097000,0.001292407512664795,0.026425065472722054,0.0854593962430954,8.923417091369629,-0.08268888294696808,-4.046114444732666
1403638127915097000,0.008985951542854309,0.03204379230737686,0.08057866245508194,8.947933197021484,-0.06645939499139786,-4.0051727294921875
1403638127920097000,0.011836819350719452,0.020085951313376427,0.07851189374923706,8.744607925415039,-0.0417945459485054,-3.9068126678466797
1403638127925097000,0.0061791762709617615,0.017281929031014442,0.07147491723299026,9.087185859680176,0.08112108707427979,-3.9810826778411865
1403638127930097000,-0.0056634023785591125,0.017967550083994865,0.06933455169200897,8.924160957336426,0.07294011861085892,-3.866269588470459
1403638127935097000,-0.018239732831716537,0.021399134770035744,0.067998506128788,8.988946914672852,0.0654650628566742,-3.956787109375
1403638127940097000,-0.022399358451366425,0.021448684856295586,0.07642090320587158,8.793479919433594,-0.08130531013011932,-3.8579745292663574
1403638127945097000,-0.02307707816362381,0.015202509239315987,0.07712318003177643,8.8262357711792,-0.22024215757846832,-3.8324344158172607
1403638127950097000,-0.011930830776691437,0.005399169400334358,0.07854586839675903,8.956165313720703,-0.3588242828845978,-3.922210216522217
1403638127955097000,-0.0029004812240600586,0.011676182970404625,0.0708736702799797,8.996785163879395,-0.34269267320632935,-3.93829345703125
1403638127960097000,0.006164953112602234,0.014527915045619011,0.06457186490297318,8.88243293762207,-0.3344995677471161,-3.8891849517822266
1403638127965097000,0.010403729975223541,0.017409974709153175,0.06319500505924225,8.980500221252441,-0.130478635430336,-3.9226582050323486
1403638127970097000,0.00831354409456253,0.01808137260377407,0.06737637519836426,8.7855224609375,-0.02474801056087017,-3.8819057941436768
1403638127975097000,0.0027082040905952454,0.015210257843136787,0.06734085083007812,8.956488609313965,0.11376779526472092,-4.046601295471191
1403638127980097000,-0.004970841109752655,0.013758087530732155,0.07224254310131073,8.907648086547852,0.09734999388456345,-4.046896934509277
1403638127985097000,-0.007096648216247559,0.012390213087201118,0.07357917726039886,8.988981246948242,0.0314582996070385,-3.980903387069702
1403638127990097000,-0.016152195632457733,0.009601956233382225,0.07287459075450897,8.907456398010254,-0.06647779047489166,-3.9642417430877686
1403638127995097000,-0.016139432787895203,0.012397440150380135,0.07084483653306961,8.96473503112793,-0.06613856554031372,-3.9395864009857178
1403638128000097000,-0.01262655109167099,0.015922127291560173,0.07225348055362701,8.874492645263672,-0.12343543767929077,-3.9067273139953613
1403638128005097000,-0.011968009173870087,0.022215744480490685,0.07297326624393463,9.037609100341797,-0.12342485040426254,-3.915193557739258
1403638128010097000,-0.00909212976694107,0.024981612339615822,0.07163052260875702,8.980718612670898,-0.1553872525691986,-3.9474852085113525
1403638128015097000,-3.569573163986206e-05,0.027800166979432106,0.0680164247751236,9.078425407409668,-0.12249568849802017,-3.9803099632263184
1403638128020097000,0.00482497364282608,0.026402054354548454,0.06029486656188965,8.882917404174805,-0.08952990919351578,-3.898275852203369
1403638128025097000,0.0006457194685935974,0.018712380900979042,0.05895369127392769,8.931807518005371,0.00037800223799422383,-3.8820385932922363
1403638128030097000,-0.004921086132526398,0.016604362055659294,0.05691457539796829,8.752565383911133,0.0004095449985470623,-3.8901445865631104
1403638128035097000,-0.01201581209897995,0.008846038952469826,0.058323975652456284,8.875171661376953,0.06574413180351257,-3.9236252307891846
1403638128040097000,-0.01691247895359993,0.010964106768369675,0.06672999262809753,8.940443992614746,-0.04054977372288704,-3.9481542110443115
1403638128045097000,-0.018924802541732788,0.01098538562655449,0.07359279692173004,9.103462219238281,-0.09028441458940506,-3.9317922592163086
1403638128050097000,-0.01475941389799118,0.01029067300260067,0.07428662478923798,9.013182640075684,-0.303131103515625,-3.9060444831848145
1403638128055097000,-0.008498847484588623,0.009608270600438118,0.07575281709432602,9.094592094421387,-0.344255268573761,-3.9385414123535156
1403638128060097000,-0.004941426217556,0.016633497551083565,0.0736686959862709,8.931614875793457,-0.31969231367111206,-3.86458683013916
1403638128065097000,0.0006596371531486511,0.018098024651408195,0.07161710411310196,8.939800262451172,-0.2297239750623703,-3.9060187339782715
1403638128070097000,0.0027628466486930847,0.019497951492667198,0.07722008973360062,8.82614803314209,-0.1314837783575058,-3.8983142375946045
1403638128075097000,0.004148639738559723,0.018068844452500343,0.08891487866640091,8.83446979522705,-0.025035474449396133,-3.9480347633361816
1403638128080097000,-0.0021590664982795715,0.015887344256043434,0.09235098958015442,8.907722473144531,0.01647328957915306,-4.079398155212402
1403638128085097000,-0.0085035040974617,0.012343676760792732,0.0965462177991867,8.956952095031738,0.00034251660690642893,-4.038295269012451
1403638128090097000,-0.011301510035991669,0.01726672239601612,0.09303887188434601,8.964876174926758,-0.024161841720342636,-4.013507843017578
1403638128095097000,-0.013378456234931946,0.0172878447920084,0.09454955160617828,8.956449508666992,-0.130559504032135,-4.021495819091797
1403638128100097000,-0.00844874233007431,0.023593952879309654,0.08697538077831268,8.825797080993652,-0.1635449230670929,-3.9639883041381836
1403638128105097000,0.0006397292017936707,0.0166140366345644,0.0882478579878807,8.874799728393555,-0.11507134139537811,-3.8989248275756836
1403638128110097000,0.0013459175825119019,0.015186192467808723,0.08543933928012848,8.882960319519043,-0.09920017421245575,-3.8988661766052246
1403638128115097000,-3.5353004932403564e-05,0.0032366905361413956,0.08820346742868423,8.95627498626709,-0.09130425751209259,-3.8661179542541504
1403638128120097000,-0.004233740270137787,0.006015339866280556,0.085359588265419,9.021673202514648,-0.05037783458828926,-3.8989593982696533
1403638128125097000,-0.005656279623508453,0.008889054879546165,0.09168486297130585,8.989241600036621,-0.20500144362449646,-3.865471839904785
1403638128130097000,-7.009506225585938e-05,0.01104188896715641,0.08893928676843643,8.972864151000977,-0.18805231153964996,-3.8487789630889893
1403638128135097000,0.002723120152950287,0.00826994888484478,0.088252492249012,8.874978065490723,-0.1794765144586563,-3.889784574508667
1403638128140097000,0.004757381975650787,0.006123965606093407,0.08338307589292526,8.980735778808594,-0.08167995512485504,-3.99674916267395
1403638128145097000,0.001954592764377594,0.011002397164702415,0.09104394167661667,8.948116302490234,-0.08159744739532471,-4.046110153198242
1403638128150097000,0.0019334033131599426,0.018727680668234825,0.08892840147018433,9.08667278289795,-0.0411958172917366,-4.103752136230469
1403638128155097000,-0.0007988288998603821,0.025063710287213326,0.09449641406536102,8.866598129272461,-0.10679607093334198,-4.070487022399902
1403638128160097000,0.002046845853328705,0.025746403262019157,0.09308881312608719,8.833956718444824,-0.05806054547429085,-4.07875394821167
1403638128165097000,-0.0006921663880348206,0.022864246740937233,0.0945071429014206,8.703974723815918,-0.07461955398321152,-4.021528244018555
1403638128170097000,0.0027053728699684143,0.019336143508553505,0.0896715372800827,8.86667251586914,-0.07486291229724884,-4.078949928283691
1403638128175097000,0.001353725790977478,0.015100443735718727,0.09240266680717468,8.79356861114502,-0.090486079454422,-3.9726643562316895
1403638128180097000,0.0020169541239738464,0.013017715886235237,0.0895523875951767,8.923710823059082,0.023994198068976402,-4.013947010040283
1403638128185097000,0.0020500347018241882,0.010939473286271095,0.0888713002204895,8.907450675964355,-0.02479729615151882,-3.8825716972351074
1403638128190097000,0.002681456506252289,0.010268520563840866,0.08049700409173965,9.094679832458496,-0.04894789308309555,-3.8738763332366943
1403638128195097000,0.004092417657375336,0.013751203194260597,0.07841801643371582,9.004837989807129,-0.04059066250920296,-3.8412184715270996
1403638128200097000,0.0012820437550544739,0.014436202123761177,0.06870289146900177,9.11101245880127,0.040840085595846176,-3.8332414627075195
1403638128205097000,0.0020001009106636047,0.020739546045660973,0.06731072068214417,9.004952430725098,0.008384756743907928,-3.866065263748169
1403638128210097000,-0.002207323908805847,0.020775603130459785,0.06311579048633575,9.1030912399292,0.07314515113830566,-3.88279390335083
1403638128215097000,-0.007790669798851013,0.027108052745461464,0.061757251620292664,8.98915958404541,0.03194020316004753,-3.882540225982666
1403638128220097000,-0.009173654019832611,0.03901366889476776,0.06176719442009926,9.08676815032959,0.05684446915984154,-3.9809019565582275
1403638128225097000,-0.014037512242794037,0.04043798893690109,0.06386947631835938,8.809656143188477,-0.0983588919043541,-3.939269781112671
1403638128230097000,-0.010536648333072662,0.030629033222794533,0.06387615948915482,8.834287643432617,-0.18032437562942505,-3.979936361312866
1403638128235097000,-0.011190168559551239,0.02638796903192997,0.06394423544406891,8.679783821105957,-0.24500147998332977,-3.9306318759918213
1403638128240097000,-0.00847606360912323,0.019337916746735573,0.06603197753429413,8.84237289428711,-0.2366703301668167,-3.988018035888672
1403638128245097000,-0.003563307225704193,0.017936507239937782,0.07022027671337128,8.793217658996582,-0.25311052799224854,-3.963507890701294
1403638128250097000,0.00479772686958313,0.012417091056704521,0.07229195535182953,8.88270378112793,-0.23638121783733368,-3.955213785171509
1403638128255097000,0.006225608289241791,0.012428836897015572,0.07289915531873703,8.95609188079834,-0.18740984797477722,-3.9552929401397705
1403638128260097000,0.007614560425281525,0.010228155180811882,0.07703546434640884,8.980558395385742,-0.04076443985104561,-3.9476194381713867
1403638128265097000,0.00829373300075531,0.015811724588274956,0.07777300477027893,8.97238540649414,0.03279908746480942,-3.939936637878418
1403638128270097000,-0.0022178366780281067,0.020762065425515175,0.07988869398832321,8.996994972229004,0.02436847612261772,-3.9319064617156982
1403638128275097000,-0.003576122224330902,0.024285728111863136,0.07849481701850891,8.956291198730469,0.04041330888867378,-3.907465696334839
1403638128280097000,-0.0042658597230911255,0.030643271282315254,0.07987818866968155,9.086827278137207,-0.041309867054224014,-3.9482498168945312
1403638128285097000,-0.003602951765060425,0.03906481713056564,0.0743231400847435,8.972532272338867,-0.12328439950942993,-3.9641988277435303
1403638128290097000,-0.0049277618527412415,0.029942402616143227,0.07154189795255661,9.005014419555664,-0.11507093906402588,-3.9888486862182617
1403638128295097000,-0.005633838474750519,0.03407692909240723,0.07225542515516281,8.891021728515625,-0.09851697087287903,-3.9886367321014404
1403638128300097000,-0.004937425255775452,0.02982220984995365,0.07924464344978333,8.671405792236328,-0.13105615973472595,-3.9310686588287354
1403638128305097000,-0.002130553126335144,0.020747622475028038,0.07712535560131073,8.720526695251465,-0.06561796367168427,-3.955857038497925
1403638128310097000,0.0006864145398139954,0.0130783561617136,0.08266378939151764,8.81821346282959,-0.032571058720350266,-3.988776206970215
1403638128315097000,-0.002168416976928711,0.017255159094929695,0.07639458775520325,8.931679725646973,-0.08932466059923172,-4.02147102355957
1403638128320097000,0.0019934847950935364,0.014405714347958565,0.07220584154129028,8.980488777160645,-0.08130231499671936,-3.996961832046509
1403638128325097000,-0.0014887824654579163,0.02352297492325306,0.07086333632469177,8.99697208404541,0.00820944644510746,-3.980654001235962
1403638128330097000,0.0005770847201347351,0.027107087895274162,0.07711834460496902,9.021102905273438,-0.04060439020395279,-3.9641079902648926
1403638128335097000,-0.0007653459906578064,0.03264470398426056,0.07222455739974976,9.086421966552734,0.00793249811977148,-3.988950252532959
1403638128340097000,-0.004275687038898468,0.0361311137676239,0.07153762131929398,8.923447608947754,-0.033573124557733536,-3.931619167327881
1403638128345097000,-0.009172506630420685,0.03061157651245594,0.06098705902695656,8.964290618896484,-0.050415363162755966,-3.8906784057617188
1403638128350097000,-0.00914793461561203,0.02149142511188984,0.06941568851470947,8.834268569946289,-0.08275572955608368,-3.8577778339385986
1403638128355097000,-0.011235170066356659,0.029167527332901955,0.06881677359342575,8.981005668640137,-0.11545215547084808,-3.890427350997925
1403638128360097000,-0.007032960653305054,0.02359224297106266,0.07360009849071503,8.858821868896484,-0.20520472526550293,-3.808046579360962
1403638128365097000,-0.0042540282011032104,0.02081112004816532,0.06873965263366699,9.038008689880371,-0.1799905002117157,-3.824376344680786
1403638128370097000,-0.01056332141160965,0.01872018165886402,0.0722566768527031,8.874919891357422,-0.22030560672283173,-3.856834888458252
1403638128375097000,-0.00918007642030716,0.0193613413721323,0.0714934766292572,9.030091285705566,-0.162904754281044,-3.8736400604248047
1403638128380097000,-0.007764540612697601,0.0200601015239954,0.07781987637281418,8.899544715881348,-0.16268683969974518,-3.8327784538269043
1403638128385097000,-0.0015138760209083557,0.02155967988073826,0.08058333396911621,8.939969062805176,-0.12256745994091034,-3.8901405334472656
1403638128390097000,-5.9626996517181396e-05,0.02435801737010479,0.08474951237440109,8.866729736328125,-0.10608435422182083,-3.9147322177886963
1403638128395097000,-0.0007983893156051636,0.02219817228615284,0.08201809227466583,8.997279167175293,-0.08171529322862625,-4.013352870941162
1403638128400097000,-0.0008310750126838684,0.026403946802020073,0.08687971532344818,8.866986274719238,-0.14780905842781067,-3.9887471199035645
1403638128405097000,-0.0008066222071647644,0.026423649862408638,0.09031416475772858,8.948387145996094,-0.09061765670776367,-4.038059711456299
1403638128410097000,-1.0795891284942627e-05,0.026392506435513496,0.09238546341657639,8.777426719665527,-0.10705498605966568,-3.923269510269165
1403638128415097000,0.0062356144189834595,0.017296457663178444,0.09379757940769196,8.817926406860352,-0.07479121536016464,-3.9642767906188965
1403638128420097000,0.002732090651988983,0.015177542343735695,0.08894316107034683,8.83434009552002,-0.049812693148851395,-3.9317657947540283
1403638128425097000,-0.0007828995585441589,0.009591570124030113,0.08895180374383926,8.940277099609375,-0.03336145356297493,-3.931796073913574
1403638128430097000,-0.004244446754455566,0.008113274350762367,0.08963591605424881,8.842198371887207,-0.0823587030172348,-3.8908493518829346
1403638128435097000,-0.006364546716213226,0.004639413207769394,0.09024132788181305,8.972809791564941,-0.08217769861221313,-3.874253511428833
1403638128440097000,-0.002852022647857666,0.011669516563415527,0.09028385579586029,9.046202659606934,-0.09810497611761093,-3.8822648525238037
1403638128445097000,0.003412403166294098,0.017293015494942665,0.08475169539451599,9.12733268737793,-0.0901007428765297,-3.914933204650879
1403638128450097000,0.003396265208721161,0.027108950540423393,0.0770651176571846,8.980611801147461,-0.0902407169342041,-3.890256643295288
1403638128455097000,-0.004284031689167023,0.023664163425564766,0.07362477481365204,8.980770111083984,-0.05748525261878967,-3.9150567054748535
1403638128460097000,-0.009845264256000519,0.027139434590935707,0.07360672950744629,8.883095741271973,-0.008519981987774372,-3.9807848930358887
1403638128465097000,-0.00988597422838211,0.01941010169684887,0.07987409830093384,8.842507362365723,-0.08228273689746857,-4.005119323730469
1403638128470097000,-0.01334836333990097,0.02218431420624256,0.08272141963243484,8.850953102111816,-0.07429821044206619,-3.9970853328704834
1403638128475097000,-0.00909598171710968,0.015913771465420723,0.09524081647396088,8.801936149597168,-0.22962482273578644,-3.9308221340179443
1403638128480097000,-0.002173587679862976,0.011683790013194084,0.09032148867845535,8.809816360473633,-0.30294904112815857,-3.913963794708252
1403638128485097000,0.0033556371927261353,0.012386338785290718,0.08679185062646866,8.899575233459473,-0.26165246963500977,-3.8814451694488525
1403638128490097000,0.006222881376743317,0.013098882511258125,0.07775881141424179,8.915360450744629,-0.1636400669813156,-3.947348117828369
1403638128495097000,0.007605947554111481,0.00890602357685566,0.08060204237699509,8.980245590209961,-0.1307595670223236,-3.963995933532715
1403638128500097000,0.007556058466434479,0.01867283321917057,0.08483276516199112,8.99687385559082,0.03261851891875267,-3.997056722640991
1403638128505097000,0.003405161201953888,0.020775774493813515,0.0910223126411438,8.956398010253906,0.04893285408616066,-3.997190475463867
1403638128510097000,-0.0028496235609054565,0.02847812883555889,0.08389803767204285,8.964665412902832,0.08144571632146835,-3.972686529159546
1403638128515097000,-0.007755450904369354,0.02357935719192028,0.08252929151058197,8.826153755187988,0.05682745575904846,-3.931889057159424
1403638128520097000,-0.007089957594871521,0.02636498399078846,0.07355749607086182,8.931926727294922,0.015577240847051144,-3.9401049613952637
1403638128525097000,-0.009148754179477692,0.020019588991999626,0.0687616616487503,8.875041961669922,-0.06584175676107407,-3.8744163513183594
1403638128530097000,-0.008472375571727753,0.01586327888071537,0.06608039885759354,9.013555526733398,-0.12312792986631393,-3.90700101852417
1403638128535097000,-0.005644097924232483,0.01450737752020359,0.07087734341621399,8.939952850341797,-0.15577353537082672,-3.9148764610290527
1403638128540097000,-0.004258237779140472,0.020783470943570137,0.06939011812210083,9.005044937133789,-0.13081468641757965,-3.9555108547210693
1403638128545097000,-0.002832360565662384,0.024293972179293633,0.07428960502147675,8.923550605773926,-0.14703911542892456,-3.898029088973999
1403638128550097000,-0.00704009085893631,0.022917574271559715,0.07145467400550842,9.013408660888672,-0.12256559729576111,-3.947150468826294
1403638128555097000,-0.004277609288692474,0.022193020209670067,0.07501563429832458,8.850310325622559,-0.15467384457588196,-3.963528871536255
1403638128560097000,0.0005781278014183044,0.020052233710885048,0.07582279294729233,8.972620010375977,-0.09769973903894424,-3.9640541076660156
1403638128565097000,0.001998819410800934,0.023541951552033424,0.0764598697423935,8.850489616394043,-0.1550683230161667,-3.8983638286590576
1403638128570097000,-0.0021654292941093445,0.018739046528935432,0.08059651404619217,8.98917007446289,-0.08999837189912796,-3.8986687660217285
1403638128575097000,0.0005907267332077026,0.021523060277104378,0.0777503028512001,8.858736991882324,-0.06573887169361115,-3.88222599029541
1403638128580097000,-0.00013705343008041382,0.017280662432312965,0.07834964990615845,8.923847198486328,-0.02542099729180336,-3.8989248275756836
1403638128585097000,-0.0063683465123176575,0.017255542799830437,0.0791950523853302,8.866789817810059,-0.12361147999763489,-3.890415906906128
1403638128590097000,-3.062933683395386e-05,0.011702695861458778,0.08620315790176392,9.04621410369873,-0.05843424052000046,-3.923356771469116
1403638128595097000,-0.0007725581526756287,0.019396888092160225,0.08691277354955673,8.972597122192383,-0.16462074220180511,-3.922856569290161
1403638128600097000,0.0026866570115089417,0.023609822615981102,0.08897364139556885,9.02950668334961,-0.12327311933040619,-3.964063882827759
1403638128605097000,0.0013846680521965027,0.029934046790003777,0.081192247569561,8.891130447387695,-0.098171167075634,-3.8902573585510254
1403638128610097000,-9.74312424659729e-05,0.025057760998606682,0.07699991762638092,8.94005012512207,-0.024779407307505608,-3.9478559494018555
1403638128615097000,-0.002196989953517914,0.028450122103095055,0.07362551987171173,8.858709335327148,0.00863607693463564,-3.9726576805114746
1403638128620097000,-0.004267781972885132,0.025601448491215706,0.07852581143379211,8.866964340209961,0.008751660585403442,-3.9646637439727783
1403638128625097000,-0.00634804368019104,0.02213498391211033,0.07436075806617737,8.809981346130371,0.016401076689362526,-3.9319891929626465
1403638128630097000,-0.009175069630146027,0.018001781776547432,0.07573067396879196,8.891386985778809,-0.08977582305669785,-3.9559309482574463
1403638128635097000,-0.011930935084819794,0.018702873960137367,0.0644996240735054,8.9319486618042,-0.16352903842926025,-3.922821283340454
1403638128640097000,-0.011231109499931335,0.011658461764454842,0.06452013552188873,8.834020614624023,-0.12337366491556168,-3.865696907043457
1403638128645097000,-0.012638010084629059,0.00748005136847496,0.06741443276405334,8.866581916809082,-0.19671668112277985,-3.8900094032287598
1403638128650097000,-0.01260935515165329,0.0026006046682596207,0.07436094433069229,8.96441650390625,-0.21311673521995544,-3.9390153884887695
1403638128655097000,-0.00844186544418335,0.010284310206770897,0.07997148483991623,8.96450424194336,-0.2865414023399353,-3.906177043914795
1403638128660097000,-0.0021820068359375,0.011707577854394913,0.08830270171165466,8.874953269958496,-0.27012401819229126,-3.8570263385772705
1403638128665097000,-0.002160117030143738,0.013208428397774696,0.08677615970373154,8.923978805541992,-0.1717938333749771,-3.8816471099853516
1403638128670097000,-0.0042639002203941345,0.006195055320858955,0.09798967838287354,8.948431968688965,-0.20449300110340118,-3.914445400238037
1403638128675097000,-0.005710802972316742,0.007511252537369728,0.09870249032974243,9.103524208068848,-0.15569525957107544,-3.9397213459014893
1403638128680097000,-0.009902961552143097,0.005386577919125557,0.10492942482233047,8.940826416015625,-0.17201076447963715,-3.8495707511901855
1403638128685097000,-0.010541118681430817,0.001941712573170662,0.10501658916473389,8.940630912780762,-0.16424992680549622,-3.8249351978302
1403638128690097000,-0.016797423362731934,-0.0064333099871873856,0.11191392689943314,8.86732006072998,-0.2050822377204895,-3.8739147186279297
1403638128695097000,-0.016163654625415802,-0.017680436372756958,0.11462081223726273,8.941001892089844,-0.18935561180114746,-3.8496203422546387
1403638128700097000,-0.011255420744419098,-0.01771773211658001,0.11813508719205856,8.900242805480957,-0.18146052956581116,-3.8332931995391846
1403638128705097000,-0.011259794235229492,-0.01135881058871746,0.11877801269292831,9.103768348693848,-0.08299174904823303,-3.948291778564453
1403638128710097000,-0.004934780299663544,-0.00221250019967556,0.11258950084447861,8.989270210266113,-0.09894031286239624,-3.9560532569885254
1403638128715097000,-0.0028615668416023254,0.004117526113986969,0.1029064804315567,9.168658256530762,-0.0012908444041386247,-4.030452251434326
1403638128720097000,-0.0007767602801322937,0.013872014358639717,0.09586358070373535,8.932117462158203,0.11383489519357681,-4.038645267486572
1403638128725097000,-0.007057778537273407,0.015222208574414253,0.09302699565887451,8.972555160522461,0.28514766693115234,-4.112682342529297
1403638128730097000,-0.011234305799007416,0.01798504777252674,0.0937575250864029,8.809847831726074,0.2035011500120163,-4.088136196136475
1403638128735097000,-0.013347119092941284,0.018689272925257683,0.08327294886112213,8.891474723815918,0.19535253942012787,-4.063784599304199
1403638128740097000,-0.01963113248348236,0.01796192117035389,0.07703977078199387,8.81008529663086,0.12189853191375732,-3.989792823791504
1403638128745097000,-0.025158442556858063,0.006037009879946709,0.06595178693532944,8.842318534851074,0.06457865238189697,-3.989413022994995
1403638128750097000,-0.029346562922000885,0.0024972762912511826,0.06457620114088058,8.744447708129883,-0.09058030694723129,-3.9316108226776123
1403638128755097000,-0.030781425535678864,-0.003804042935371399,0.06809428334236145,8.972761154174805,-0.21302339434623718,-3.9310550689697266
1403638128760097000,-0.02792978286743164,0.0032051876187324524,0.07225830852985382,8.899385452270508,-0.2777882218360901,-3.8895723819732666
1403638128765097000,-0.01816444844007492,0.005407894030213356,0.07361693680286407,8.972411155700684,-0.28583016991615295,-3.922044038772583
1403638128770097000,-0.00703110545873642,0.02018229477107525,0.07852902263402939,9.061864852905273,-0.26855048537254333,-4.0285468101501465
1403638128775097000,0.0027246028184890747,0.033469632267951965,0.07778437435626984,8.988086700439453,-0.21120701730251312,-4.077764987945557
1403638128780097000,0.010407142341136932,0.03901941329240799,0.07571542263031006,8.817066192626953,-0.16177141666412354,-4.126977920532227
1403638128785097000,0.009695194661617279,0.03482220321893692,0.07083769142627716,8.712010383605957,0.05803053453564644,-4.0785417556762695
1403638128790097000,-0.0007998272776603699,0.02775021828711033,0.06450205296278,8.728694915771484,0.26155659556388855,-4.079345703125
1403638128795097000,-0.013357244431972504,0.024148931726813316,0.06736685335636139,8.826478004455566,0.24493004381656647,-4.063604831695557
1403638128800097000,-0.02453741431236267,0.024844421073794365,0.05898600071668625,8.810150146484375,0.0891893208026886,-3.997741222381592
1403638128805097000,-0.037052251398563385,0.007404806092381477,0.05609234422445297,8.785536766052246,-0.07452113181352615,-3.890876293182373
1403638128810097000,-0.03909473866224289,0.00040866993367671967,0.05970865488052368,8.834138870239258,-0.28673648834228516,-3.86537504196167
1403638128815097000,-0.03003775328397751,-0.0017560813575983047,0.06815840303897858,8.907110214233398,-0.4739744961261749,-3.938265562057495
1403638128820097000,-0.02377547323703766,0.0018173102289438248,0.07098069787025452,8.9805908203125,-0.4573395550251007,-3.9218194484710693
1403638128825097000,-0.02370445430278778,-0.00016403384506702423,0.0800536572933197,8.932032585144043,-0.473377525806427,-3.8479862213134766
1403638128830097000,-0.018153339624404907,0.0020232200622558594,0.09173944592475891,9.013754844665527,-0.4482543468475342,-3.807082176208496
1403638128835097000,-0.012687861919403076,0.011808952316641808,0.11477960646152496,9.070992469787598,-0.48821115493774414,-3.9298934936523438
1403638128840097000,-0.0077783092856407166,0.018113257363438606,0.12663903832435608,8.973520278930664,-0.4316588342189789,-3.8486318588256836
1403638128845097000,-0.0007584467530250549,0.013959283009171486,0.14186489582061768,8.875802993774414,-0.32588082551956177,-3.9228312969207764
1403638128850097000,0.005422823131084442,0.020221317186951637,0.14673060178756714,8.876172065734863,-0.1392463594675064,-3.8825786113739014
1403638128855097000,0.016533471643924713,0.008946040645241737,0.14460840821266174,8.778266906738281,-0.08298036456108093,-3.947909355163574
1403638128860097000,0.017274729907512665,0.011756176128983498,0.11668578535318375,9.217658996582031,0.11233807355165482,-4.162126541137695
1403638128865097000,0.011077232658863068,0.015243234112858772,0.0985681340098381,8.850607872009277,0.323323130607605,-4.072097301483154
1403638128870097000,0.006893731653690338,0.016526663675904274,0.08186905086040497,8.955822944641113,0.494242787361145,-4.1708807945251465
1403638128875097000,0.003427065908908844,0.024869540706276894,0.0707520917057991,8.931679725646973,0.4703153073787689,-4.170436382293701
1403638128880097000,-3.02046537399292e-05,0.025575919076800346,0.0456710010766983,8.906998634338379,0.4460507333278656,-4.112914562225342
1403638128885097000,-0.013950861990451813,0.02345697022974491,0.024692773818969727,8.882186889648438,0.38211119174957275,-4.154045581817627
1403638128890097000,-0.020951084792613983,0.03110361285507679,0.012175403535366058,8.939654350280762,0.3018004298210144,-4.0471086502075195
1403638128895097000,-0.026589281857013702,0.028375910595059395,0.007499344646930695,8.849466323852539,0.025409679859876633,-4.021498203277588
1403638128900097000,-0.02452312782406807,0.033349692821502686,0.0075431689620018005,8.923087120056152,-0.08816663175821304,-3.9558465480804443
1403638128905097000,-0.013255804777145386,0.029912034049630165,0.01730799302458763,8.76846694946289,-0.21790704131126404,-3.823646306991577
1403638128910097000,-0.0028685256838798523,0.020123952999711037,0.02490943670272827,9.02878475189209,-0.275584876537323,-3.790480852127075
1403638128915097000,-0.004290491342544556,0.0193308237940073,0.022760357707738876,8.971661567687988,-0.23507821559906006,-3.782238721847534
1403638128920097000,-0.007841326296329498,0.02360435016453266,0.0234685055911541,9.200491905212402,-0.210935577750206,-3.8481521606445312
1403638128925097000,-0.012724675238132477,0.03696991503238678,0.03746747970581055,9.069993019104004,-0.3175559341907501,-3.9052212238311768
1403638128930097000,-0.006418369710445404,0.039084143936634064,0.052149295806884766,8.87433910369873,-0.37576472759246826,-3.8804099559783936
1403638128935097000,-0.000749640166759491,0.04330828785896301,0.06822282075881958,8.760431289672852,-0.3677147328853607,-3.9539761543273926
1403638128940097000,0.003416784107685089,0.04183157533407211,0.07787152379751205,8.744731903076172,-0.34349504113197327,-4.019806861877441
1403638128945097000,0.013796105980873108,0.039651475846767426,0.07985460758209229,8.78511905670166,-0.32710373401641846,-4.1675310134887695
1403638128950097000,0.012396953999996185,0.040416181087493896,0.08197427541017532,8.833972930908203,-0.27817949652671814,-4.184606552124023
1403638128955097000,0.010421819984912872,0.04108629375696182,0.07919909805059433,8.647130966186523,-0.17996808886528015,-4.045669078826904
1403638128960097000,0.011870458722114563,0.023576954379677773,0.08833056688308716,8.728432655334473,-0.08147843182086945,-4.005202293395996
1403638128965097000,0.011113174259662628,0.016502955928444862,0.08701564371585846,8.850525856018066,-0.024332113564014435,-4.038040637969971
1403638128970097000,0.0006355792284011841,0.005246207118034363,0.08894206583499908,8.997118949890137,0.024617532268166542,-3.9650039672851562
1403638128975097000,-0.00632835179567337,0.012192988768219948,0.07976195216178894,9.094805717468262,0.13953766226768494,-3.891954183578491
1403638128980097000,-0.011239685118198395,0.011577531695365906,0.07486741244792938,9.021499633789062,0.06650393456220627,-3.8095712661743164
1403638128985097000,-0.014094255864620209,0.010276434943079948,0.06587051600217819,9.078276634216309,0.0335601307451725,-3.842050552368164
1403638128990097000,-0.018890313804149628,0.017311280593276024,0.06255758553743362,9.037826538085938,-0.09780145436525345,-3.817145347595215
1403638128995097000,-0.013352178037166595,0.024282747879624367,0.05776325613260269,9.013404846191406,-0.11482758074998856,-3.7758378982543945
1403638129000097000,-0.007062964141368866,0.025078633800148964,0.0702751949429512,8.605960845947266,-0.20509523153305054,-3.594966173171997
1403638129005097000,0.0027339383959770203,0.0006578806787729263,0.08404801785945892,8.533608436584473,-0.19828641414642334,-3.4720585346221924
1403638129010097000,0.01109369844198227,-0.008423810824751854,0.09440764784812927,8.957429885864258,-0.32116013765335083,-3.7011258602142334
1403638129015097000,0.017240993678569794,0.01681271381676197,0.08817976713180542,9.780362129211426,-0.19833654165267944,-4.0793561935424805
1403638129020097000,0.01375570148229599,0.0483364462852478,0.07574823498725891,9.787435531616211,-0.09924497455358505,-4.2761735916137695
1403638129025097000,0.006109833717346191,0.07994388788938522,0.05420897156000137,9.64868450164795,-0.14828428626060486,-4.22620153427124
1403638129030097000,0.006168238818645477,0.07283902913331985,0.034735336899757385,8.922816276550293,-0.23766566812992096,-3.9455442428588867
1403638129035097000,0.01101788878440857,0.04323768615722656,0.00809851661324501,8.979894638061523,-0.139401376247406,-4.035994529724121
1403638129040097000,0.007506169378757477,0.03957781940698624,-0.014308109879493713,9.126348495483398,-0.05699677765369415,-4.323668479919434
1403638129045097000,-0.0009076669812202454,0.03399523347616196,-0.04079766571521759,9.232257843017578,0.15514293313026428,-4.316756725311279
1403638129050097000,-0.018355075269937515,0.03267592191696167,-0.05187581479549408,9.14317512512207,0.13894996047019958,-4.177623271942139
1403638129055097000,-0.0294732004404068,0.024318048730492592,-0.06226956844329834,9.086971282958984,0.040516700595617294,-3.9878060817718506
1403638129060097000,-0.040540438145399094,0.01587139256298542,-0.0699148178100586,9.070120811462402,-0.16273117065429688,-3.986307382583618
1403638129065097000,-0.04335232079029083,0.012275030836462975,-0.08388988673686981,9.248529434204102,-0.39929434657096863,-4.043358325958252
1403638129070097000,-0.04124509170651436,0.015111377462744713,-0.09427905082702637,8.986772537231445,-0.39058080315589905,-3.945024013519287
1403638129075097000,-0.041344571858644485,0.0069415271282196045,-0.0844096839427948,9.085182189941406,-0.31647035479545593,-3.9617919921875
1403638129080097000,-0.045496925711631775,0.009122287854552269,-0.07319125533103943,8.89031982421875,-0.29199284315109253,-3.994929313659668
1403638129085097000,-0.04759404808282852,-0.002030240371823311,-0.06281875818967819,8.9473295211792,-0.24281737208366394,-4.044527530670166
1403638129090097000,-0.046888262033462524,0.004858208820223808,-0.05445028096437454,9.012182235717773,-0.258726567029953,-4.150562763214111
1403638129095097000,-0.04129940643906593,0.010359808802604675,-0.041886962950229645,9.012421607971191,-0.3087271451950073,-4.149979591369629
1403638129100097000,-0.028720475733280182,0.018791520968079567,-0.03976765275001526,9.004926681518555,-0.22773028910160065,-4.133825778961182
1403638129105097000,-0.02590646967291832,0.028661640360951424,-0.03210246562957764,9.005624771118164,-0.01584082655608654,-4.1024956703186035
1403638129110097000,-0.028727639466524124,0.028697991743683815,-0.029451116919517517,9.004838943481445,0.2691672444343567,-4.10359525680542
1403638129115097000,-0.03851238638162613,0.03352269530296326,-0.009893417358398438,9.117911338806152,0.366923987865448,-4.161416530609131
1403638129120097000,-0.048317767679691315,0.050187647342681885,0.0027723461389541626,9.126355171203613,0.39868035912513733,-4.177716255187988
1403638129125097000,-0.055207863450050354,0.05575951933860779,0.020796872675418854,9.143847465515137,0.33300361037254333,-4.01411771774292
1403638129130097000,-0.05514819175004959,0.06547657400369644,0.022107429802417755,9.152545928955078,0.3905620872974396,-3.940723180770874
1403638129135097000,-0.060043469071388245,0.06252725422382355,0.022073403000831604,9.135917663574219,0.40763214230537415,-3.924792528152466
1403638129140097000,-0.06362570077180862,0.07152031362056732,0.008846327662467957,9.331250190734863,0.5058929920196533,-4.007095813751221
1403638129145097000,-0.06779368966817856,0.08345071971416473,0.005516428500413895,9.290860176086426,0.4004063606262207,-3.9988842010498047
1403638129150097000,-0.06294844299554825,0.09492424875497818,0.0006859041750431061,9.38902473449707,0.15622517466545105,-4.022411823272705
1403638129155097000,-0.05379221588373184,0.10765555500984192,0.008254483342170715,9.3483247756958,-0.11271227896213531,-3.9885594844818115
1403638129160097000,-0.03140009567141533,0.11662015318870544,0.029147494584321976,9.119194030761719,-0.14554207026958466,-3.922750234603882
1403638129165097000,-0.009100101888179779,0.11719493567943573,0.06189505383372307,8.988394737243652,-0.23492226004600525,-3.922529697418213
1403638129170097000,0.008251763880252838,0.10940273106098175,0.09393042325973511,9.119656562805176,-0.16200414299964905,-3.9554858207702637
1403638129175097000,0.024337507784366608,0.10934574902057648,0.12735474109649658,8.899768829345703,-0.007014398463070393,-3.923523187637329
1403638129180097000,0.03824617713689804,0.10095277428627014,0.17609918117523193,9.226799011230469,-0.03241794556379318,-4.022601127624512
1403638129185097000,0.0605800524353981,0.12126094102859497,0.21093586087226868,9.292311668395996,-0.22056835889816284,-4.046036243438721
1403638129190097000,0.08648303896188736,0.13185454905033112,0.2415313720703125,9.4389066696167,-0.11471334844827652,-4.120268821716309
1403638129195097000,0.11025399714708328,0.15134838223457336,0.2692650556564331,9.300834655761719,0.06446883827447891,-4.0713419914245605
1403638129200097000,0.12359588593244553,0.16739727556705475,0.2949277460575104,9.440455436706543,0.391352117061615,-4.064404010772705
1403638129205097000,0.1298932135105133,0.18554523587226868,0.3221944272518158,9.505802154541016,0.5713818669319153,-4.12297248840332
1403638129210097000,0.13342180848121643,0.20721255242824554,0.355663925409317,9.645329475402832,0.6278200745582581,-4.148341655731201
1403638129215097000,0.13415169715881348,0.2316470593214035,0.37984925508499146,9.449163436889648,0.5633646249771118,-4.041504859924316
1403638129220097000,0.13146016001701355,0.2386098951101303,0.40982940793037415,9.539730072021484,0.5553901195526123,-3.975672483444214
1403638129225097000,0.13144874572753906,0.2545869052410126,0.442620187997818,9.515453338623047,0.5717754364013672,-4.032748699188232
1403638129230097000,0.12927725911140442,0.26221221685409546,0.4753764867782593,9.638777732849121,0.4737885892391205,-4.139401912689209
1403638129235097000,0.12859314680099487,0.2838015556335449,0.5118408203125,9.631302833557129,0.3434387147426605,-4.139163970947266
1403638129240097000,0.13148346543312073,0.3061826229095459,0.5475009679794312,9.639860153198242,0.18851175904273987,-4.154728412628174
1403638129245097000,0.1406213939189911,0.32583698630332947,0.5796403884887695,9.665302276611328,-0.024476392194628716,-4.145155429840088
1403638129250097000,0.14767885208129883,0.33696991205215454,0.6113604307174683,9.756373405456543,-0.14030224084854126,-4.235083103179932
1403638129255097000,0.15612366795539856,0.3648451268672943,0.641283392906189,9.755926132202148,-0.026346178725361824,-4.3098273277282715
1403638129260097000,0.16248631477355957,0.3843185007572174,0.6774766445159912,9.830172538757324,-0.010900293476879597,-4.301969051361084
1403638129265097000,0.16321054100990295,0.41219285130500793,0.6985328197479248,9.904881477355957,-0.011889802291989326,-4.310371398925781
1403638129270097000,0.1598227322101593,0.4325055480003357,0.7194230556488037,9.773956298828125,-0.04454023018479347,-4.252662658691406
1403638129275097000,0.15706446766853333,0.45762723684310913,0.7403664588928223,9.840433120727539,-0.021220039576292038,-4.220253944396973
1403638129280097000,0.1557369828224182,0.4785386919975281,0.7578487396240234,9.75859260559082,-0.06256020814180374,-4.129549503326416
1403638129285097000,0.15159747004508972,0.4953123927116394,0.773082971572876,9.733863830566406,0.010214676149189472,-4.13802433013916
1403638129290097000,0.14540988206863403,0.5155438184738159,0.7911961078643799,9.644164085388184,0.019193999469280243,-4.080807685852051
1403638129295097000,0.1377412974834442,0.5420940518379211,0.7965892553329468,9.504802703857422,0.05320354178547859,-3.9825479984283447
1403638129300097000,0.1272728443145752,0.5441837906837463,0.80281662940979,9.283364295959473,0.013160713016986847,-3.850949287414551
1403638129305097000,0.1174979880452156,0.5455083847045898,0.8019715547561646,9.300395011901855,0.05425138771533966,-3.7852799892425537
1403638129310097000,0.1084623709321022,0.5434063673019409,0.8090726137161255,9.030232429504395,-0.18905974924564362,-3.6932640075683594
1403638129315097000,0.10286521166563034,0.5398306250572205,0.816982626914978,9.105123519897461,-0.3289048373699188,-3.692483901977539
1403638129320097000,0.10152580589056015,0.5399949550628662,0.8311619758605957,8.811027526855469,-0.5565803647041321,-3.5752313137054443
1403638129325097000,0.10783285647630692,0.5282562971115112,0.8397262096405029,8.779632568359375,-0.7777401208877563,-3.5403892993927
1403638129330097000,0.11486438661813736,0.5171069502830505,0.8448617458343506,8.543412208557129,-1.0224937200546265,-3.4391348361968994
1403638129335097000,0.12118334323167801,0.4974401593208313,0.8421448469161987,8.634515762329102,-1.1630456447601318,-3.4460256099700928
1403638129340097000,0.12821286916732788,0.4821404814720154,0.8401429653167725,8.64390754699707,-1.3436282873153687,-3.379143238067627
1403638129345097000,0.133095383644104,0.459051251411438,0.8362622261047363,9.004414558410645,-1.4363007545471191,-3.4536807537078857
1403638129350097000,0.14357596635818481,0.4451305866241455,0.8325972557067871,8.948626518249512,-1.5257583856582642,-3.314277172088623
1403638129355097000,0.1498558521270752,0.4311892092227936,0.8281209468841553,9.038896560668945,-1.4124839305877686,-3.307791233062744
1403638129360097000,0.15183961391448975,0.4172977805137634,0.8214548826217651,8.826691627502441,-1.354594349861145,-3.2009682655334473
1403638129365097000,0.14957520365715027,0.38524267077445984,0.809148907661438,8.859575271606445,-1.2417081594467163,-3.152682065963745
1403638129370097000,0.14237523078918457,0.3593294620513916,0.7788800001144409,8.784619331359863,-1.1353540420532227,-3.1448183059692383
1403638129375097000,0.13520097732543945,0.32787999510765076,0.7430036067962646,8.857110977172852,-0.9559480547904968,-3.1298556327819824
1403638129380097000,0.11830545216798782,0.29995161294937134,0.6963019371032715,8.74032974243164,-0.8905479907989502,-3.211261749267578
1403638129385097000,0.10277772694826126,0.26514336466789246,0.6493706703186035,8.593010902404785,-0.8242586851119995,-3.0882930755615234
1403638129390097000,0.09071504324674606,0.22746263444423676,0.6032247543334961,8.535514831542969,-0.831758975982666,-3.022308349609375
1403638129395097000,0.07518575340509415,0.18412916362285614,0.5501797199249268,8.461668968200684,-0.9786078333854675,-3.0130503177642822
1403638129400097000,0.054158397018909454,0.12471611797809601,0.5020366907119751,8.485949516296387,-1.052030324935913,-2.964775323867798
1403638129405097000,0.04079955071210861,0.08356909453868866,0.45681482553482056,8.493867874145508,-1.1577130556106567,-2.8834388256073
1403638129410097000,0.02602381259202957,0.04241103678941727,0.40882083773612976,8.501225471496582,-1.3123483657836914,-2.9165093898773193
1403638129415097000,0.013385243713855743,-0.004284530878067017,0.3608984351158142,8.500185012817383,-1.4670487642288208,-2.941178321838379
1403638129420097000,0.005042083561420441,-0.04250819981098175,0.31499212980270386,8.47491455078125,-1.5974832773208618,-2.9249093532562256
1403638129425097000,0.009773187339305878,-0.0843183845281601,0.2816828191280365,8.555843353271484,-1.8419005870819092,-2.94942307472229
1403638129430097000,0.01047535240650177,-0.12058832496404648,0.2274112105369568,8.578958511352539,-1.908617377281189,-2.8599493503570557
1403638129435097000,0.009850569069385529,-0.15684381127357483,0.17933034896850586,8.602432250976562,-1.8612183332443237,-2.942580223083496
1403638129440097000,0.009955190122127533,-0.1825013905763626,0.13614046573638916,8.683158874511719,-1.8068705797195435,-2.8535542488098145
1403638129445097000,0.011967204511165619,-0.2131643146276474,0.08528809994459152,8.567381858825684,-1.8817214965820312,-2.861531972885132
1403638129450097000,0.015639297664165497,-0.2516455352306366,0.028154566884040833,8.688910484313965,-1.7456220388412476,-2.88620662689209
1403638129455097000,0.015743054449558258,-0.28657665848731995,-0.006716445088386536,8.614938735961914,-1.6575403213500977,-2.8770735263824463
1403638129460097000,0.006680212914943695,-0.31261852383613586,-0.057761162519454956,8.851669311523438,-1.5187199115753174,-3.024264335632324
1403638129465097000,-0.0010166838765144348,-0.33153384923934937,-0.10102413594722748,8.883825302124023,-1.5193017721176147,-3.0317037105560303
1403638129470097000,-0.007300980389118195,-0.35956642031669617,-0.1486004889011383,8.907893180847168,-1.5690422058105469,-3.088594675064087
1403638129475097000,-0.01005447655916214,-0.386208176612854,-0.19067952036857605,8.784358978271484,-1.5599192380905151,-3.1211395263671875
1403638129480097000,-0.01905239373445511,-0.41294240951538086,-0.2295476794242859,8.808431625366211,-1.4691566228866577,-3.2112338542938232
1403638129485097000,-0.02534937486052513,-0.43757009506225586,-0.25673046708106995,8.636016845703125,-1.4685020446777344,-3.260831117630005
1403638129490097000,-0.024736225605010986,-0.4586476683616638,-0.2835468351840973,8.881000518798828,-1.4423201084136963,-3.3671772480010986
1403638129495097000,-0.02685045450925827,-0.4740317463874817,-0.3136216700077057,8.863808631896973,-1.532596468925476,-3.375164747238159
1403638129500097000,-0.030912667512893677,-0.48048847913742065,-0.34510716795921326,8.977706909179688,-1.4326659440994263,-3.473844528198242
1403638129505097000,-0.030191216617822647,-0.4783293306827545,-0.38523557782173157,8.911266326904297,-1.4986265897750854,-3.432753324508667
1403638129510097000,-0.033076345920562744,-0.48114699125289917,-0.4130147397518158,9.115523338317871,-1.424637794494629,-3.4729957580566406
1403638129515097000,-0.032386988401412964,-0.4720282256603241,-0.43472790718078613,9.245515823364258,-1.4488238096237183,-3.5554616451263428
1403638129520097000,-0.03022848814725876,-0.4672592282295227,-0.45243701338768005,9.491633415222168,-1.415177583694458,-3.612738609313965
1403638129525097000,-0.03166067600250244,-0.4531658887863159,-0.4699699580669403,9.450353622436523,-1.514978051185608,-3.5885372161865234
1403638129530097000,-0.030250288546085358,-0.4461391568183899,-0.483969122171402,9.47481918334961,-1.4574130773544312,-3.638012647628784
1403638129535097000,-0.02252790331840515,-0.44052475690841675,-0.4993380606174469,9.408833503723145,-1.391545295715332,-3.6544198989868164
1403638129540097000,-0.01904619112610817,-0.4350506365299225,-0.5110043287277222,9.507257461547852,-1.2842031717300415,-3.6952879428863525
1403638129545097000,-0.019002482295036316,-0.4281157851219177,-0.5240479707717896,9.540040969848633,-1.1018649339675903,-3.7445855140686035
1403638129550097000,-0.021076280623674393,-0.4211390018463135,-0.525853157043457,9.523659706115723,-0.8783494234085083,-3.785309314727783
1403638129555097000,-0.02400105446577072,-0.408538818359375,-0.539688229560852,9.523238182067871,-0.7623550891876221,-3.801633834838867
1403638129560097000,-0.03107251599431038,-0.39878588914871216,-0.5416996479034424,9.588436126708984,-0.555794358253479,-3.858725070953369
1403638129565097000,-0.04155596345663071,-0.37770891189575195,-0.547777533531189,9.521868705749512,-0.4235405921936035,-3.8997151851654053
1403638129570097000,-0.04789523780345917,-0.36015063524246216,-0.5482848882675171,9.41496753692627,-0.34094205498695374,-3.899703025817871
1403638129575097000,-0.060550615191459656,-0.3397454023361206,-0.5613834857940674,9.4308443069458,-0.3489662706851959,-3.9660069942474365
1403638129580097000,-0.07243970036506653,-0.32361161708831787,-0.5618220567703247,9.29134750366211,-0.32479792833328247,-3.991213321685791
1403638129585097000,-0.07731769233942032,-0.3102876842021942,-0.5582723617553711,9.315930366516113,-0.3902139961719513,-4.016550540924072
1403638129590097000,-0.08006802946329117,-0.2940788269042969,-0.5457314252853394,9.226070404052734,-0.5875322818756104,-4.017589092254639
1403638129595097000,-0.07999896258115768,-0.27724790573120117,-0.5339348316192627,9.258660316467285,-0.620262622833252,-3.9927194118499756
1403638129600097000,-0.07925350219011307,-0.27022939920425415,-0.5102192163467407,9.210043907165527,-0.6777804493904114,-3.9764769077301025
1403638129605097000,-0.07512592524290085,-0.2535090744495392,-0.4871841371059418,9.464332580566406,-0.7178656458854675,-4.050072193145752
1403638129610097000,-0.06952917575836182,-0.2353314310312271,-0.45425477623939514,9.51362133026123,-0.7091380953788757,-4.0825910568237305
1403638129615097000,-0.06461232155561447,-0.19750653207302094,-0.4333065450191498,9.718141555786133,-0.6100516319274902,-4.188845634460449
1403638129620097000,-0.05340548977255821,-0.16449519991874695,-0.4019047021865845,9.546753883361816,-0.6437616944313049,-4.131278991699219
1403638129625097000,-0.04577440023422241,-0.13996605575084686,-0.3872416913509369,9.637264251708984,-0.5132021307945251,-4.1717209815979
1403638129630097000,-0.04296411573886871,-0.11274678260087967,-0.3598940074443817,9.449533462524414,-0.30088216066360474,-4.138890743255615
1403638129635097000,-0.045768506824970245,-0.08698964864015579,-0.3325415551662445,9.499157905578613,-0.08880573511123657,-4.204711437225342
1403638129640097000,-0.053477007895708084,-0.05974023789167404,-0.30811241269111633,9.417818069458008,0.008952965028584003,-4.262790203094482
1403638129645097000,-0.05904027819633484,-0.02826393023133278,-0.2830445170402527,9.492135047912598,0.1060277670621872,-4.205834865570068
1403638129650097000,-0.06384553015232086,0.002488812431693077,-0.255801260471344,9.263704299926758,0.11417222768068314,-4.14086389541626
1403638129655097000,-0.06799253076314926,0.01917244680225849,-0.22792980074882507,9.305052757263184,0.05701262131333351,-4.1411895751953125
1403638129660097000,-0.07073347270488739,0.03932632505893707,-0.1978430449962616,9.174642562866211,0.07360156625509262,-4.125378131866455
1403638129665097000,-0.07630033791065216,0.057453081011772156,-0.16508948802947998,9.240330696105957,-0.007421679794788361,-4.150679588317871
1403638129670097000,-0.07345980405807495,0.08462556451559067,-0.13446372747421265,9.094017028808594,-0.2028665840625763,-4.085607051849365
1403638129675097000,-0.06646457314491272,0.1000695675611496,-0.10510683059692383,9.192270278930664,-0.2920342981815338,-4.134797096252441
1403638129680097000,-0.05663887783885002,0.12384872138500214,-0.0702514797449112,9.143379211425781,-0.35667264461517334,-4.126926422119141
1403638129685097000,-0.04475453123450279,0.14050854742527008,-0.031979985535144806,9.216841697692871,-0.3732006847858429,-4.110777378082275
1403638129690097000,-0.037812791764736176,0.15784835815429688,-0.004091333597898483,9.192550659179688,-0.4714384377002716,-4.094280242919922
1403638129695097000,-0.024585705250501633,0.16902776062488556,0.02717028371989727,9.314847946166992,-0.48842525482177734,-4.086302280426025
1403638129700097000,-0.015504591166973114,0.18931634724140167,0.04799497500061989,9.380041122436523,-0.49702656269073486,-4.004903793334961
1403638129705097000,-0.009206399321556091,0.19347752630710602,0.06959862262010574,9.39631462097168,-0.4817582666873932,-3.9724788665771484
1403638129710097000,0.000588737428188324,0.210161492228508,0.08768633008003235,9.34743595123291,-0.3354113698005676,-3.973095655441284
1403638129715097000,0.006143949925899506,0.21504870057106018,0.1098635345697403,9.265908241271973,-0.31938764452934265,-3.948319673538208
1403638129720097000,0.01033928245306015,0.22194810211658478,0.12935975193977356,9.152097702026367,-0.36070770025253296,-3.964463710784912
1403638129725097000,0.013161145150661469,0.2127768099308014,0.14818498492240906,9.07105827331543,-0.4342115521430969,-3.980355978012085
1403638129730097000,0.02083062380552292,0.20293402671813965,0.1598953753709793,9.038862228393555,-0.344088077545166,-3.9397342205047607
1403638129735097000,0.027087070047855377,0.18259035050868988,0.17170745134353638,8.973560333251953,-0.401172012090683,-3.94762921333313
1403638129740097000,0.02989465743303299,0.1643584817647934,0.1730743646621704,9.055182456970215,-0.3848891854286194,-3.9642584323883057
1403638129745097000,0.031989000737667084,0.13853512704372406,0.18000131845474243,9.014446258544922,-0.4904526174068451,-3.9226856231689453
1403638129750097000,0.03820851445198059,0.12107895314693451,0.17305415868759155,9.128239631652832,-0.49838918447494507,-3.9310739040374756
1403638129755097000,0.040304236114025116,0.09314527362585068,0.16465911269187927,9.119722366333008,-0.5310705304145813,-3.8979525566101074
1403638129760097000,0.04168818145990372,0.06453323364257812,0.15276861190795898,9.315401077270508,-0.5564800500869751,-3.865325450897217
1403638129765097000,0.047239549458026886,0.037304677069187164,0.14788907766342163,9.314953804016113,-0.6220501065254211,-3.8813652992248535
1403638129770097000,0.048603303730487823,0.01369534246623516,0.14022944867610931,9.592483520507812,-0.5985682010650635,-3.914497137069702
1403638129775097000,0.04374264180660248,-0.01069945003837347,0.1263238787651062,9.486217498779297,-0.6483256816864014,-3.856677532196045
1403638129780097000,0.04377462714910507,-0.03505955636501312,0.11514907330274582,9.55161190032959,-0.5919002890586853,-3.8571925163269043
1403638129785097000,0.03885249048471451,-0.06299115717411041,0.09985820204019547,9.420890808105469,-0.5845124125480652,-3.8567686080932617
1403638129790097000,0.03815062344074249,-0.08605069667100906,0.08316881954669952,9.510469436645508,-0.5197022557258606,-3.930659770965576
1403638129795097000,0.037524476647377014,-0.10421237349510193,0.06997298449277878,9.330354690551758,-0.5435440540313721,-3.9796769618988037
1403638129800097000,0.041673265397548676,-0.12643921375274658,0.053250618278980255,9.387231826782227,-0.5763716101646423,-4.044828414916992
1403638129805097000,0.04449973255395889,-0.1501612365245819,0.026105189695954323,9.27267837524414,-0.6334043145179749,-4.019601821899414
1403638129810097000,0.048722781240940094,-0.18302613496780396,0.006654601544141769,9.329627990722656,-0.6248444318771362,-4.035908222198486
1403638129815097000,0.045949243009090424,-0.2033870965242386,-0.00868777185678482,9.248067855834961,-0.5832422375679016,-3.994880437850952
1403638129820097000,0.050802744925022125,-0.22854073345661163,-0.017744630575180054,9.362190246582031,-0.5747610330581665,-4.019346714019775
1403638129825097000,0.050156764686107635,-0.24599197506904602,-0.020458951592445374,9.394674301147461,-0.6396023631095886,-4.002910137176514
1403638129830097000,0.04733560234308243,-0.2676320970058441,-0.02892330288887024,9.623512268066406,-0.647121787071228,-4.060181617736816
1403638129835097000,0.050155214965343475,-0.2718246281147003,-0.037943318486213684,9.696732521057129,-0.6548256874084473,-4.12560510635376
1403638129840097000,0.04804389923810959,-0.2759483754634857,-0.0476139634847641,9.811163902282715,-0.7034326791763306,-4.149879455566406
1403638129845097000,0.04523637145757675,-0.2646665871143341,-0.055352553725242615,9.868364334106445,-0.6128244996070862,-4.198833465576172
1403638129850097000,0.05156823247671127,-0.2631354033946991,-0.05736871808767319,9.86020278930664,-0.6294307708740234,-4.198573589324951
1403638129855097000,0.05016075819730759,-0.2540835738182068,-0.06426677107810974,9.778319358825684,-0.5807217359542847,-4.2314229011535645
1403638129860097000,0.053650833666324615,-0.2512798011302948,-0.062251120805740356,9.78638744354248,-0.5721639394760132,-4.256179332733154
1403638129865097000,0.052283428609371185,-0.2492312639951706,-0.06218565255403519,9.769906997680664,-0.5071407556533813,-4.289000034332275
1403638129870097000,0.05151238292455673,-0.24859432876110077,-0.06152116507291794,9.81064510345459,-0.4741935431957245,-4.321857929229736
1403638129875097000,0.05710247904062271,-0.2374141663312912,-0.06366391479969025,9.933351516723633,-0.3923655152320862,-4.37902307510376
1403638129880097000,0.05013153702020645,-0.23258395493030548,-0.06777411699295044,9.97404956817627,-0.2532637119293213,-4.4200544357299805
1403638129885097000,0.04379778355360031,-0.21793143451213837,-0.06979276239871979,10.022786140441895,-0.16289545595645905,-4.477466583251953
1403638129890097000,0.044470421969890594,-0.2032427191734314,-0.0711403340101242,10.038886070251465,-0.21160633862018585,-4.501990795135498
1403638129895097000,0.038159556686878204,-0.18507565557956696,-0.08311605453491211,10.10440444946289,-0.17093582451343536,-4.501806735992432
1403638129900097000,0.03261002153158188,-0.16689305007457733,-0.08525994420051575,10.030447006225586,-0.2032267302274704,-4.485392093658447
1403638129905097000,0.03053293377161026,-0.15004609525203705,-0.0859135091304779,10.087878227233887,-0.1624757945537567,-4.48549222946167
1403638129910097000,0.02558741718530655,-0.13402293622493744,-0.08938181400299072,10.038553237915039,-0.17847754061222076,-4.518178462982178
1403638129915097000,0.028355590999126434,-0.11238336563110352,-0.08860909938812256,10.087494850158691,-0.12135226279497147,-4.559287071228027
1403638129920097000,0.024275384843349457,-0.09491929411888123,-0.08443930745124817,9.891197204589844,-0.21938177943229675,-4.4934916496276855
1403638129925097000,0.027725376188755035,-0.07248420268297195,-0.08316656947135925,10.005940437316895,-0.21111157536506653,-4.49341344833374
1403638129930097000,0.027038700878620148,-0.04871916025876999,-0.07048508524894714,9.817702293395996,-0.24407561123371124,-4.419574737548828
1403638129935097000,0.03120487928390503,-0.028461001813411713,-0.045361414551734924,9.882969856262207,-0.18722504377365112,-4.4447102546691895
1403638129940097000,0.03400655835866928,0.002299971878528595,-0.02937459945678711,9.89964485168457,-0.24452480673789978,-4.387710094451904
1403638129945097000,0.03259032964706421,0.03171708434820175,-0.017472684383392334,10.055240631103516,-0.2124490886926651,-4.330924034118652
1403638129950097000,0.034738071262836456,0.06451033800840378,0.0068712495267391205,10.030587196350098,-0.2858002185821533,-4.282219409942627
1403638129955097000,0.04096698760986328,0.10013444721698761,0.02914186380803585,10.088133811950684,-0.2860279381275177,-4.340032577514648
1403638129960097000,0.0430867075920105,0.1392051726579666,0.059248365461826324,9.908782958984375,-0.2857702672481537,-4.323976993560791
1403638129965097000,0.04803944379091263,0.1713172048330307,0.0905320793390274,9.942123413085938,-0.2939687669277191,-4.34906005859375
1403638129970097000,0.054327525198459625,0.19776587188243866,0.12246271967887878,9.738587379455566,-0.22828815877437592,-4.357501029968262
1403638129975097000,0.061265744268894196,0.21729011833667755,0.149073988199234,9.714571952819824,-0.21151766180992126,-4.431638240814209
1403638129980097000,0.06272507458925247,0.24160800874233246,0.17690347135066986,9.559975624084473,-0.1458389163017273,-4.415911674499512
1403638129985097000,0.06485848873853683,0.250625342130661,0.20398519933223724,9.535942077636719,-0.03948155418038368,-4.457589149475098
1403638129990097000,0.068331278860569,0.27080103754997253,0.23617488145828247,9.438457489013672,-0.0639575868844986,-4.433064937591553
1403638129995097000,0.07254142314195633,0.2826114594936371,0.2591398060321808,9.50428295135498,0.0014915645588189363,-4.474671840667725
1403638130000097000,0.06845284253358841,0.2992798984050751,0.2778432369232178,9.553705215454102,0.0258598942309618,-4.426111221313477
1403638130005097000,0.0719575360417366,0.317426860332489,0.29395169019699097,9.66043758392334,-0.007554641459137201,-4.426246643066406
1403638130010097000,0.06850413233041763,0.34611424803733826,0.2994335889816284,9.73440170288086,-0.007684098556637764,-4.393904209136963
1403638130015097000,0.07064128667116165,0.36923062801361084,0.3056531250476837,9.734450340270996,0.0333806574344635,-4.344780445098877
1403638130020097000,0.06375355273485184,0.3908732831478119,0.29799818992614746,9.701519012451172,0.14738377928733826,-4.263339042663574
1403638130025097000,0.05320862680673599,0.4041714668273926,0.304923951625824,9.545950889587402,0.0824098140001297,-4.180811405181885
1403638130030097000,0.04691164940595627,0.41316747665405273,0.30280259251594543,9.456009864807129,0.08249261975288391,-4.131632328033447
1403638130035097000,0.043337516486644745,0.4138152599334717,0.3110634982585907,9.202435493469238,-0.08868879824876785,-4.0648064613342285
1403638130040097000,0.04611211270093918,0.4082221984863281,0.3207691013813019,9.096611022949219,-0.21923048794269562,-4.055688381195068
1403638130045097000,0.04610111564397812,0.38579392433166504,0.33123546838760376,8.991049766540527,-0.33348560333251953,-4.005152702331543
1403638130050097000,0.050949133932590485,0.3710327744483948,0.32916930317878723,9.081318855285645,-0.4076071083545685,-3.9963395595550537
1403638130055097000,0.059254370629787445,0.3535013794898987,0.33346977829933167,9.024284362792969,-0.5791394114494324,-3.9374608993530273
1403638130060097000,0.06973684579133987,0.34375494718551636,0.3313753604888916,9.212515830993652,-0.603997528553009,-3.9867920875549316
1403638130065097000,0.08096367865800858,0.3382880687713623,0.3299490511417389,9.2042236328125,-0.7017057538032532,-3.9285502433776855
1403638130070097000,0.08792930096387863,0.33556103706359863,0.3229312598705292,9.285833358764648,-0.6448049545288086,-3.953831195831299
1403638130075097000,0.094833604991436,0.3356423079967499,0.3137209117412567,9.187651634216309,-0.6687623858451843,-3.8387832641601562
1403638130080097000,0.10317375510931015,0.33715906739234924,0.2983836531639099,9.252930641174316,-0.6202675104141235,-3.814579486846924
1403638130085097000,0.10802274197340012,0.32884249091148376,0.28796273469924927,9.072903633117676,-0.6280526518821716,-3.765035629272461
1403638130090097000,0.11360826343297958,0.3176603615283966,0.2703939974308014,8.99944019317627,-0.5382789969444275,-3.7243688106536865
1403638130095097000,0.11007557064294815,0.30579057335853577,0.2564902603626251,8.852482795715332,-0.5713109970092773,-3.707740068435669
1403638130100097000,0.11487976461648941,0.27641719579696655,0.24050059914588928,8.89312744140625,-0.5881904363632202,-3.707517147064209
1403638130105097000,0.11205493658781052,0.25188004970550537,0.221620112657547,8.737688064575195,-0.653684139251709,-3.690532922744751
1403638130110097000,0.11206013709306717,0.22179903090000153,0.20915932953357697,8.859996795654297,-0.6788451075553894,-3.682330846786499
1403638130115097000,0.11138666421175003,0.19310520589351654,0.19944635033607483,8.778043746948242,-0.7682292461395264,-3.624116897583008
1403638130120097000,0.11338423937559128,0.16169090569019318,0.18962323665618896,8.997729301452637,-0.7933244705200195,-3.673576593399048
1403638130125097000,0.12032999843358994,0.14500729739665985,0.17855408787727356,8.972920417785645,-0.8179028630256653,-3.5996909141540527
1403638130130097000,0.1217375174164772,0.12058745324611664,0.16109740734100342,9.070438385009766,-0.7362200617790222,-3.5922744274139404
1403638130135097000,0.12247159332036972,0.1024579405784607,0.14154790341854095,9.029243469238281,-0.6546206474304199,-3.6089518070220947
1403638130140097000,0.12033367902040482,0.08305202424526215,0.12281736731529236,9.045388221740723,-0.6472741961479187,-3.5924952030181885
1403638130145097000,0.10983019322156906,0.07612133771181107,0.0998077467083931,9.061590194702148,-0.5741831064224243,-3.5847082138061523
1403638130150097000,0.10912530869245529,0.06508292257785797,0.07337680459022522,9.10174560546875,-0.6723324060440063,-3.616905689239502
1403638130155097000,0.1119256392121315,0.04980996251106262,0.056785017251968384,9.019762992858887,-0.7139574885368347,-3.6164605617523193
1403638130160097000,0.11404328793287277,0.029615597799420357,0.036541953682899475,9.060275077819824,-0.7551010251045227,-3.6080715656280518
1403638130165097000,0.11548808962106705,0.019829513505101204,0.008656203746795654,9.157865524291992,-0.7635186314582825,-3.6651885509490967
1403638130170097000,0.11897682398557663,0.011424029245972633,-0.0066198185086250305,9.173656463623047,-0.6980235576629639,-3.763458013534546
1403638130175097000,0.11897427588701248,0.008001232519745827,-0.021287530660629272,9.173596382141113,-0.624212384223938,-3.7472643852233887
1403638130180097000,0.11627648025751114,-0.0024571139365434647,-0.03233577311038971,9.067625999450684,-0.5583106875419617,-3.7225069999694824
1403638130185097000,0.11354563385248184,-0.014407006092369556,-0.04128951579332352,9.15742301940918,-0.45192769169807434,-3.722651243209839
1403638130190097000,0.10719204694032669,-0.022850168868899345,-0.049081042408943176,9.075799942016602,-0.4432756304740906,-3.6980090141296387
1403638130195097000,0.10716656595468521,-0.021394159644842148,-0.05882421135902405,9.222576141357422,-0.41051626205444336,-3.714728832244873
1403638130200097000,0.10580270737409592,-0.017805898562073708,-0.058693841099739075,9.222296714782715,-0.49153244495391846,-3.7061538696289062
1403638130205097000,0.10577533394098282,-0.010057413950562477,-0.06086041033267975,9.30390453338623,-0.4670445919036865,-3.714376449584961
1403638130210097000,0.10163529962301254,-0.010055790655314922,-0.053780414164066315,9.16524887084961,-0.5240868926048279,-3.7059240341186523
1403638130215097000,0.10019201785326004,-0.006593808531761169,-0.04466502368450165,9.304304122924805,-0.5162221193313599,-3.7387077808380127
1403638130220097000,0.10223788768053055,0.008039770647883415,-0.017578333616256714,9.271449089050293,-0.613958477973938,-3.7466771602630615
1403638130225097000,0.10710226744413376,0.020646443590521812,0.005467277020215988,9.402156829833984,-0.7036558389663696,-3.7795655727386475
1403638130230097000,0.11480570584535599,0.029733380302786827,0.029162373393774033,9.263782501220703,-0.7765064835548401,-3.7546095848083496
1403638130235097000,0.12590977549552917,0.046500250697135925,0.04996804893016815,9.3700532913208,-0.7354230880737305,-3.812350273132324
1403638130240097000,0.13354066014289856,0.06526122242212296,0.06883968412876129,9.288692474365234,-0.6614205837249756,-3.7880618572235107
1403638130245097000,0.13637131452560425,0.07914740592241287,0.08279415965080261,9.501455307006836,-0.482119619846344,-3.8710453510284424
1403638130250097000,0.1391945779323578,0.10774700343608856,0.10643357783555984,9.412217140197754,-0.36757582426071167,-3.8878886699676514
1403638130255097000,0.1413026750087738,0.13708242774009705,0.13351605832576752,9.53537654876709,-0.270077109336853,-3.9133493900299072
1403638130260097000,0.13505062460899353,0.16844244301319122,0.15015117824077606,9.413283348083496,-0.20472994446754456,-3.848100185394287
1403638130265097000,0.1260477900505066,0.19356654584407806,0.16544757783412933,9.470903396606445,-0.025519348680973053,-3.8654685020446777
1403638130270097000,0.11417549103498459,0.2144308239221573,0.18005995452404022,9.364830017089844,-0.01786467619240284,-3.8658432960510254
1403638130275097000,0.10091286152601242,0.22963716089725494,0.1940399408340454,9.373189926147461,-0.05857895687222481,-3.8907039165496826
1403638130280097000,0.08980371803045273,0.2392932027578354,0.21712027490139008,9.169571876525879,-0.17259573936462402,-3.808147668838501
1403638130285097000,0.08143924921751022,0.24344776570796967,0.23582597076892853,9.211060523986816,-0.25402218103408813,-3.766695261001587
1403638130290097000,0.07862219959497452,0.25034597516059875,0.25943052768707275,9.154304504394531,-0.2939986288547516,-3.71714448928833
1403638130295097000,0.07724232226610184,0.25656214356422424,0.2880368232727051,9.20373821258545,-0.37551072239875793,-3.65104603767395
1403638130300097000,0.07654642313718796,0.26356250047683716,0.3081134855747223,9.21242904663086,-0.49742043018341064,-3.592972755432129
1403638130305097000,0.07444917410612106,0.26640045642852783,0.3331919312477112,9.213151931762695,-0.5459154844284058,-3.5678627490997314
1403638130310097000,0.0716470256447792,0.27901777625083923,0.3591272532939911,9.17290210723877,-0.6683037281036377,-3.583404541015625
1403638130315097000,0.07864021509885788,0.29372406005859375,0.38417524099349976,9.13281536102295,-0.7665902972221375,-3.566016912460327
1403638130320097000,0.08072710782289505,0.3008153438568115,0.4037540555000305,9.043474197387695,-0.8323623538017273,-3.540483236312866
1403638130325097000,0.09469083696603775,0.3008941411972046,0.4176310896873474,8.921565055847168,-0.9064127802848816,-3.4654297828674316
1403638130330097000,0.10167764872312546,0.2959596812725067,0.418123334646225,8.922085762023926,-0.9479734301567078,-3.448761463165283
1403638130335097000,0.1134696677327156,0.2896554470062256,0.42244112491607666,8.99608325958252,-1.0465147495269775,-3.4075465202331543
1403638130340097000,0.12680700421333313,0.28758567571640015,0.4203949272632599,9.232661247253418,-0.9743558764457703,-3.458139419555664
1403638130345097000,0.1352255642414093,0.29042115807533264,0.4224548935890198,9.248674392700195,-0.8847547173500061,-3.5161068439483643
1403638130350097000,0.13740819692611694,0.2931820750236511,0.41614192724227905,9.321985244750977,-0.6970142126083374,-3.57486891746521
1403638130355097000,0.13317826390266418,0.2854532301425934,0.40892496705055237,9.027575492858887,-0.6555842161178589,-3.49206280708313
1403638130360097000,0.12823089957237244,0.26860976219177246,0.3899640738964081,9.010843276977539,-0.5653777718544006,-3.5337166786193848
1403638130365097000,0.12047197669744492,0.253157377243042,0.3627919852733612,8.77340030670166,-0.47497323155403137,-3.468346118927002
1403638130370097000,0.11279476433992386,0.22791127860546112,0.3369832932949066,8.773063659667969,-0.393629789352417,-3.4777255058288574
1403638130375097000,0.0995200052857399,0.20838813483715057,0.31267571449279785,8.51983642578125,-0.4098842144012451,-3.412315607070923
1403638130380097000,0.08828224986791611,0.18540646135807037,0.28763696551322937,8.560583114624023,-0.4754604697227478,-3.412168502807617
1403638130385097000,0.08333665877580643,0.15333537757396698,0.2597414255142212,8.405293464660645,-0.7613089680671692,-3.312088966369629
1403638130390097000,0.07979203015565872,0.12610599398612976,0.23950600624084473,8.551505088806152,-0.9738150835037231,-3.2539329528808594
1403638130395097000,0.08180073648691177,0.10604642331600189,0.22009316086769104,8.542594909667969,-1.3234249353408813,-3.1215550899505615
1403638130400097000,0.09286237508058548,0.0881289392709732,0.20490919053554535,8.818643569946289,-1.518926978111267,-3.097062110900879
1403638130405097000,0.1066373810172081,0.07860740274190903,0.1973905861377716,8.882997512817383,-1.6888885498046875,-3.0725977420806885
1403638130410097000,0.12331532686948776,0.07463835179805756,0.19186946749687195,9.053766250610352,-1.7460598945617676,-3.0813522338867188
1403638130415097000,0.13730862736701965,0.07890303432941437,0.18764805793762207,9.013091087341309,-1.648595929145813,-3.0570294857025146
1403638130420097000,0.14636462926864624,0.07753010839223862,0.1778079718351364,9.094980239868164,-1.4950447082519531,-3.0900120735168457
1403638130425097000,0.15538492798805237,0.07335247099399567,0.16799378395080566,8.907669067382812,-1.430346965789795,-3.1464943885803223
1403638130430097000,0.1596188247203827,0.0683867484331131,0.1492183804512024,8.940445899963379,-1.2687605619430542,-3.2616357803344727
1403638130435097000,0.15966802835464478,0.06699811667203903,0.1242004781961441,8.809534072875977,-1.1796005964279175,-3.2863082885742188
1403638130440097000,0.16468283534049988,0.0529957115650177,0.09425164759159088,8.759893417358398,-1.0175507068634033,-3.3932013511657715
1403638130445097000,0.15995454788208008,0.039688386023044586,0.05455406755208969,8.677826881408691,-0.8142847418785095,-3.4594297409057617
1403638130450097000,0.1502819061279297,0.019325831905007362,0.023897375911474228,8.710137367248535,-0.6600157022476196,-3.5172674655914307
1403638130455097000,0.1413339376449585,0.005206571891903877,-0.01930166780948639,8.77444839477539,-0.6188727021217346,-3.55014967918396
1403638130460097000,0.12115628272294998,-0.01579233631491661,-0.05618967115879059,8.782036781311035,-0.6506055593490601,-3.5335042476654053
1403638130465097000,0.10793951898813248,-0.03252875432372093,-0.0923047661781311,8.805910110473633,-0.7154617309570312,-3.4759390354156494
1403638130470097000,0.09265714138746262,-0.059115663170814514,-0.12226846814155579,8.805436134338379,-0.7230219841003418,-3.3856098651885986
1403638130475097000,0.07305086404085159,-0.08573061972856522,-0.1557457447052002,8.936026573181152,-0.6978659629821777,-3.3443171977996826
1403638130480097000,0.046497032046318054,-0.10318197309970856,-0.17809046804904938,9.132265090942383,-0.8039423823356628,-3.343966484069824
1403638130485097000,0.03247477859258652,-0.1010056659579277,-0.20475897192955017,9.279057502746582,-0.8857114911079407,-3.310880184173584
1403638130490097000,0.028927765786647797,-0.09457339346408844,-0.2278299331665039,9.34401798248291,-1.0007737874984741,-3.310431957244873
1403638130495097000,0.030995793640613556,-0.07968815416097641,-0.24949681758880615,9.523580551147461,-1.10819673538208,-3.342872381210327
1403638130500097000,0.022767744958400726,-0.0816766619682312,-0.2584923207759857,9.065502166748047,-1.13367760181427,-3.277141571044922
1403638130505097000,0.0129600390791893,-0.0936400517821312,-0.26449054479599,8.78016185760498,-0.8391593098640442,-3.3265721797943115
1403638130510097000,0.004547595977783203,-0.09857527166604996,-0.23705387115478516,8.610136985778809,-0.7163806557655334,-3.400560140609741
1403638130515097000,0.002430044114589691,-0.10062413662672043,-0.21838679909706116,8.880263328552246,-0.9792304039001465,-3.539792537689209
1403638130520097000,0.00808195024728775,-0.10753654688596725,-0.2192857563495636,8.724601745605469,-1.3153666257858276,-3.4827067852020264
1403638130525097000,0.008941948413848877,-0.11595823615789413,-0.23933067917823792,8.552979469299316,-0.8727013468742371,-3.4170353412628174
1403638130530097000,0.015209995210170746,-0.12725479900836945,-0.21260732412338257,8.439105987548828,-0.5435903668403625,-3.359652280807495
1403638130535097000,0.003916151821613312,-0.12464585155248642,-0.1936432421207428,9.01920223236084,-0.5510294437408447,-3.5401699542999268
1403638130540097000,-0.013537779450416565,-0.10847372561693192,-0.19017988443374634,9.035252571105957,-0.7799791097640991,-3.548781633377075
1403638130545097000,-0.008563436567783356,-0.08873206377029419,-0.170067697763443,9.010610580444336,-0.7381644248962402,-3.3937766551971436
1403638130550097000,0.0018986612558364868,-0.07110998779535294,-0.14226430654525757,8.904155731201172,-0.8101570010185242,-3.2215492725372314
1403638130555097000,-0.0016110911965370178,-0.05782793462276459,-0.13310563564300537,9.296475410461426,-0.6796150207519531,-3.3527956008911133
1403638130560097000,-0.00857553631067276,-0.032083332538604736,-0.12249849736690521,9.443881034851074,-0.5164126753807068,-3.47707462310791
1403638130565097000,-0.019159749150276184,-2.720952033996582e-05,-0.09891282021999359,9.4443941116333,-0.5082190632820129,-3.453596830368042
1403638130570097000,-0.02481164038181305,0.026564406231045723,-0.08621963858604431,9.289039611816406,-0.5727741718292236,-3.2896249294281006
1403638130575097000,-0.03230869397521019,0.039829909801483154,-0.05881127715110779,9.380017280578613,-0.4915252923965454,-3.4452097415924072
1403638130580097000,-0.03786947950720787,0.0739983469247818,-0.02424481511116028,9.519587516784668,-0.5983728766441345,-3.626263380050659
1403638130585097000,-0.03659147769212723,0.11654028296470642,0.0006437785923480988,9.559870719909668,-0.6070523858070374,-3.6107120513916016
1403638130590097000,-0.03449125587940216,0.14648862183094025,0.016087111085653305,9.363192558288574,-0.5088424682617188,-3.5042593479156494
1403638130595097000,-0.03438998758792877,0.16810613870620728,0.03268216922879219,9.23324203491211,-0.3861270248889923,-3.545016288757324
1403638130600097000,-0.02809160202741623,0.188167542219162,0.04326341673731804,9.071296691894531,-0.36080923676490784,-3.6355113983154297
1403638130605097000,-0.023901302367448807,0.20259740948677063,0.04976174235343933,9.030494689941406,-0.4018629491329193,-3.611443519592285
1403638130610097000,-0.01905934512615204,0.2193107157945633,0.052171334624290466,8.923503875732422,-0.37774455547332764,-3.5211191177368164
1403638130615097000,-0.0148538276553154,0.217912957072258,0.06445735692977905,8.972472190856934,-0.3361903131008148,-3.5699589252471924
1403638130620097000,-0.01204642653465271,0.23243920505046844,0.07090038061141968,9.152544021606445,-0.22107559442520142,-3.611797571182251
1403638130625097000,-0.009249307215213776,0.2413986772298813,0.08338584750890732,9.111721992492676,-0.19637241959571838,-3.5465621948242188
1403638130630097000,-0.007870353758335114,0.25254589319229126,0.09448119252920151,9.094609260559082,-0.12310569733381271,-3.4566028118133545
1403638130635097000,-0.012788698077201843,0.253257691860199,0.12101627886295319,8.939085006713867,-0.1800232231616974,-3.2999675273895264
1403638130640097000,-0.01697312295436859,0.2496425360441208,0.13832658529281616,9.08668327331543,-0.21983681619167328,-3.316743850708008
1403638130645097000,-0.017646998167037964,0.2503308355808258,0.1618712693452835,9.144570350646973,-0.37456822395324707,-3.2921619415283203
1403638130650097000,-0.019040659070014954,0.25807684659957886,0.1778697669506073,9.37358283996582,-0.4095132052898407,-3.325317144393921
1403638130655097000,-0.01693374663591385,0.2630649507045746,0.20502346754074097,9.32461166381836,-0.4252576529979706,-3.3002474308013916
1403638130660097000,-0.007897473871707916,0.27704325318336487,0.2336147427558899,9.366092681884766,-0.5298832058906555,-3.3241381645202637
1403638130665097000,-0.002403832972049713,0.282739520072937,0.2642260789871216,9.138787269592285,-0.733539342880249,-3.2568697929382324
1403638130670097000,0.011565841734409332,0.28988444805145264,0.29694294929504395,9.140125274658203,-0.8164916038513184,-3.2887039184570312
1403638130675097000,0.030450329184532166,0.2969667911529541,0.3317689001560211,8.953084945678711,-0.8567637801170349,-3.254666805267334
1403638130680097000,0.04504695534706116,0.29911768436431885,0.3657906949520111,9.060205459594727,-0.8409512042999268,-3.25477933883667
1403638130685097000,0.060394324362277985,0.3075096905231476,0.3950057029724121,8.799700736999512,-0.8490085601806641,-3.1716649532318115
1403638130690097000,0.0722891315817833,0.311064213514328,0.4220776855945587,8.735311508178711,-0.7185869812965393,-3.05656361579895
1403638130695097000,0.08342842012643814,0.31532013416290283,0.4478134512901306,8.572626113891602,-0.7189818620681763,-2.9406301975250244
1403638130700097000,0.09049192816019058,0.31316787004470825,0.4722506105899811,8.736827850341797,-0.745100736618042,-2.9407331943511963
1403638130705097000,0.09542695432901382,0.31664907932281494,0.49106624722480774,8.680058479309082,-0.8186428546905518,-2.9074175357818604
1403638130710097000,0.10311462730169296,0.32371944189071655,0.5084327459335327,8.917823791503906,-0.843724250793457,-2.9407174587249756
1403638130715097000,0.1108068898320198,0.33850282430648804,0.5208590030670166,8.795414924621582,-0.8276119828224182,-2.8417770862579346
1403638130720097000,0.11367786675691605,0.330827921628952,0.5334374904632568,8.738218307495117,-0.8279491662979126,-2.8906891345977783
1403638130725097000,0.11787385493516922,0.33353549242019653,0.5432556867599487,8.632649421691895,-0.8847020268440247,-2.86538028717041
1403638130730097000,0.12343315035104752,0.31597238779067993,0.5544661283493042,8.421152114868164,-1.0150963068008423,-2.855576753616333
1403638130735097000,0.13317832350730896,0.295564204454422,0.5641767978668213,8.438355445861816,-1.0562881231307983,-2.8393635749816895
1403638130740097000,0.14017856121063232,0.2724033296108246,0.5732953548431396,8.519739151000977,-1.0407299995422363,-2.9703803062438965
1403638130745097000,0.15269166231155396,0.2513624429702759,0.5690881013870239,8.397010803222656,-1.0977774858474731,-2.9698641300201416
1403638130750097000,0.1630954146385193,0.22758981585502625,0.5661972761154175,8.389026641845703,-1.1060173511505127,-2.8880555629730225
1403638130755097000,0.17067351937294006,0.20944857597351074,0.5486245155334473,8.372005462646484,-0.9924587607383728,-2.822824001312256
1403638130760097000,0.16855713725090027,0.18573905527591705,0.5303968191146851,8.534238815307617,-0.8708531856536865,-2.832404136657715
1403638130765097000,0.16427871584892273,0.17795653641223907,0.5045485496520996,8.761650085449219,-0.7163553237915039,-2.875732898712158
1403638130770097000,0.15446576476097107,0.1703271120786667,0.4773207902908325,8.76924991607666,-0.7490888833999634,-2.8680248260498047
1403638130775097000,0.14321184158325195,0.1719072014093399,0.43687132000923157,8.727631568908691,-0.8225162029266357,-2.802457332611084
1403638130780097000,0.13479918241500854,0.16153590381145477,0.40001407265663147,8.555671691894531,-0.8874343037605286,-2.7934110164642334
1403638130785097000,0.13122820854187012,0.15109935402870178,0.36169883608818054,8.644673347473145,-0.8464922308921814,-2.835120677947998
1403638130790097000,0.12490355223417282,0.13290108740329742,0.3255994915962219,8.51333236694336,-0.9439839720726013,-2.8837966918945312
1403638130795097000,0.11651351302862167,0.12031805515289307,0.2831854224205017,8.569589614868164,-0.9355762600898743,-2.91763973236084
1403638130800097000,0.11090358346700668,0.10086837410926819,0.25116872787475586,8.348711967468262,-1.0246316194534302,-2.908709764480591
1403638130805097000,0.10809887200593948,0.08900053799152374,0.22617024183273315,8.331964492797852,-1.0154428482055664,-2.958036184310913
1403638130810097000,0.1018785759806633,0.07580399513244629,0.20881664752960205,8.046196937561035,-0.9740017056465149,-2.916780710220337
1403638130815097000,0.10053170472383499,0.06183318793773651,0.18860486149787903,8.05379867553711,-0.8361892700195312,-2.958181142807007
1403638130820097000,0.093547023832798,0.04789382964372635,0.17263495922088623,7.898643970489502,-0.8687024116516113,-2.941568613052368
1403638130825097000,0.0914258286356926,0.03742344677448273,0.15114422142505646,8.003931999206543,-0.8441795110702515,-2.958590507507324
1403638130830097000,0.08939189463853836,0.036799997091293335,0.13730788230895996,7.840429782867432,-0.9339550733566284,-2.860353469848633
1403638130835097000,0.09077880531549454,0.03410997986793518,0.13040533661842346,7.896621227264404,-0.9670541286468506,-2.8030102252960205
1403638130840097000,0.09222839027643204,0.039820946753025055,0.12759757041931152,7.741176128387451,-0.9428006410598755,-2.7373595237731934
1403638130845097000,0.09152615815401077,0.04194624722003937,0.13109157979488373,7.830962181091309,-0.8864446878433228,-2.721111297607422
1403638130850097000,0.0908234491944313,0.05451769381761551,0.13389496505260468,7.757931709289551,-0.9671245217323303,-2.729069471359253
1403638130855097000,0.08872170001268387,0.06224093586206436,0.14157839119434357,7.8804545402526855,-1.0151950120925903,-2.769822597503662
1403638130860097000,0.09082937985658646,0.07486839592456818,0.14234521985054016,7.766208648681641,-1.0963152647018433,-2.728628396987915
1403638130865097000,0.09779875725507736,0.08113482594490051,0.14721697568893433,7.807116508483887,-1.0066325664520264,-2.7693262100219727
1403638130870097000,0.1047401949763298,0.08386075496673584,0.15209922194480896,7.652754306793213,-0.9816917181015015,-2.7280542850494385
1403638130875097000,0.10545390099287033,0.0858398973941803,0.15703149139881134,7.807703495025635,-0.8108803033828735,-2.7284634113311768
1403638130880097000,0.0984949842095375,0.09477593004703522,0.15771621465682983,7.865086078643799,-0.6313056945800781,-2.794780731201172
1403638130885097000,0.08176758140325546,0.10792019963264465,0.15417668223381042,8.003344535827637,-0.4762432277202606,-2.812415361404419
1403638130890097000,0.05878705531358719,0.12534655630588531,0.1486302763223648,8.051801681518555,-0.4438073933124542,-2.7640469074249268
1403638130895097000,0.03445505350828171,0.14631931483745575,0.15220099687576294,8.059679985046387,-0.4111131727695465,-2.739828586578369
1403638130900097000,0.008692748844623566,0.17567569017410278,0.14810965955257416,8.124573707580566,-0.41892552375793457,-2.731978178024292
1403638130905097000,-0.0156877301633358,0.19878293573856354,0.1439640074968338,8.116161346435547,-0.5087410807609558,-2.666721820831299
1403638130910097000,-0.04351352900266647,0.23518843948841095,0.13707123696804047,8.148656845092773,-0.6463237404823303,-2.691920280456543
1403638130915097000,-0.05956821143627167,0.26116928458213806,0.1356375813484192,8.197491645812988,-0.7922108769416809,-2.6427485942840576
1403638130920097000,-0.07002142816781998,0.29752117395401,0.1350100338459015,8.140402793884277,-0.8236708641052246,-2.6508893966674805
1403638130925097000,-0.07556765526533127,0.3248215317726135,0.14131277799606323,7.936699390411377,-0.830776035785675,-2.5527515411376953
1403638130930097000,-0.0804200991988182,0.351384699344635,0.14194676280021667,7.903958320617676,-0.7732011079788208,-2.4951343536376953
1403638130935097000,-0.09228859841823578,0.36605551838874817,0.14541755616664886,7.667836666107178,-0.8376768827438354,-2.4544055461883545
1403638130940097000,-0.10626357793807983,0.3827139139175415,0.14125613868236542,7.708356857299805,-0.8047279715538025,-2.5041091442108154
1403638130945097000,-0.10837341845035553,0.4044748544692993,0.14460700750350952,7.586182594299316,-0.8695265054702759,-2.3652379512786865
1403638130950097000,-0.11324989795684814,0.4177209734916687,0.14185437560081482,7.691125392913818,-0.8049067854881287,-2.357041597366333
1403638130955097000,-0.11462435126304626,0.4338066875934601,0.14598798751831055,7.560131549835205,-0.7726569175720215,-2.2588300704956055
1403638130960097000,-0.12294275313615799,0.4505680799484253,0.1438981294631958,7.576019763946533,-0.7323440313339233,-2.242467164993286
1403638130965097000,-0.12854740023612976,0.4603731036186218,0.15708434581756592,7.405757427215576,-0.8301804661750793,-2.136807680130005
1403638130970097000,-0.13266779482364655,0.46408700942993164,0.1514207124710083,7.520738124847412,-1.001672387123108,-2.1126983165740967
1403638130975097000,-0.12905901670455933,0.46214616298675537,0.1540176272392273,7.44939661026001,-1.2616212368011475,-2.0566844940185547
1403638130980097000,-0.1213352307677269,0.457412451505661,0.15819908678531647,7.580260753631592,-1.3516786098480225,-2.0161867141723633
1403638130985097000,-0.11785849183797836,0.4518917202949524,0.16504724323749542,7.4512104988098145,-1.4244444370269775,-1.9106285572052002
1403638130990097000,-0.11087045073509216,0.4402197003364563,0.16996140778064728,7.581650257110596,-1.4579776525497437,-1.8698022365570068
1403638130995097000,-0.10039783269166946,0.43131697177886963,0.1760891079902649,7.566284656524658,-1.5717049837112427,-1.7733399868011475
1403638131000097000,-0.09064634889364243,0.42301416397094727,0.1850031465291977,7.696366786956787,-1.5650124549865723,-1.749022364616394
1403638131005097000,-0.08152545988559723,0.42248183488845825,0.19473493099212646,7.655983924865723,-1.5743699073791504,-1.6683752536773682
1403638131010097000,-0.07606279104948044,0.41268420219421387,0.195482075214386,7.696140289306641,-1.4701924324035645,-1.6995800733566284
1403638131015097000,-0.07266788929700851,0.3993280529975891,0.19541768729686737,7.557784080505371,-1.4306573867797852,-1.682978630065918
1403638131020097000,-0.06569210439920425,0.37475305795669556,0.19065514206886292,7.557422637939453,-1.384291648864746,-1.6826015710830688
1403638131025097000,-0.06215580552816391,0.35639557242393494,0.1788252592086792,7.532656192779541,-1.4014456272125244,-1.7395446300506592
1403638131030097000,-0.06564861536026001,0.33259081840515137,0.16360658407211304,7.702447414398193,-1.3056697845458984,-1.7959312200546265
1403638131035097000,-0.06639540195465088,0.3213386535644531,0.14490969479084015,7.66906213760376,-1.1763670444488525,-1.7712756395339966
1403638131040097000,-0.06644337624311447,0.29682639241218567,0.1288938820362091,7.595118999481201,-1.0225597620010376,-1.7062135934829712
1403638131045097000,-0.07550714164972305,0.275709331035614,0.1102038323879242,7.456298828125,-0.8834972381591797,-1.7057756185531616
1403638131050097000,-0.08581114560365677,0.24498753249645233,0.09349890053272247,7.35825777053833,-0.8345479369163513,-1.6089924573898315
1403638131055097000,-0.09765943884849548,0.21907971799373627,0.06709520518779755,7.423074245452881,-0.8337740898132324,-1.6583174467086792
1403638131060097000,-0.10187143832445145,0.19258758425712585,0.05037153884768486,7.332888126373291,-1.036935806274414,-1.7075419425964355
1403638131065097000,-0.10037074983119965,0.1717499941587448,0.019756443798542023,7.429463863372803,-1.159852385520935,-1.7161891460418701
1403638131070097000,-0.10157161951065063,0.1404266208410263,0.0022679902613162994,7.387977123260498,-1.3721593618392944,-1.7085539102554321
1403638131075097000,-0.08965770900249481,0.11178727447986603,-0.013769760727882385,7.387191295623779,-1.5607279539108276,-1.7092986106872559
1403638131080097000,-0.07083307206630707,0.07544296234846115,-0.01888483762741089,7.337681293487549,-1.7410330772399902,-1.7018780708312988
1403638131085097000,-0.05274714529514313,0.0447213277220726,-0.025820620357990265,7.524410247802734,-1.8323842287063599,-1.758318305015564
1403638131090097000,-0.04012184217572212,0.014018693938851357,-0.030050158500671387,7.572568416595459,-1.9070510864257812,-1.7662060260772705
1403638131095097000,-0.03251577168703079,-0.016001848503947258,-0.0348452627658844,7.768579959869385,-1.8109427690505981,-1.8375248908996582
1403638131100097000,-0.026286691427230835,-0.04750536382198334,-0.040371619164943695,7.711367130279541,-1.7632486820220947,-1.8122591972351074
1403638131105097000,-0.02562042698264122,-0.07696306705474854,-0.04927453398704529,7.850147724151611,-1.6098545789718628,-1.8107349872589111
1403638131110097000,-0.025583792477846146,-0.10429894924163818,-0.061148643493652344,7.776628017425537,-1.5123372077941895,-1.769191861152649
1403638131115097000,-0.02497214823961258,-0.12320570647716522,-0.06799028813838959,7.90803861618042,-1.381844401359558,-1.8011513948440552
1403638131120097000,-0.03477108106017113,-0.1483536958694458,-0.07920220494270325,7.826470851898193,-1.3165792226791382,-1.7600648403167725
1403638131125097000,-0.03553229942917824,-0.1678951382637024,-0.09665307402610779,7.949368000030518,-1.2516021728515625,-1.8407950401306152
1403638131130097000,-0.040433384478092194,-0.1958589255809784,-0.11135202646255493,7.785876750946045,-1.2521755695343018,-1.8400795459747314
1403638131135097000,-0.044615186750888824,-0.22038932144641876,-0.13027583062648773,7.924895763397217,-1.3101445436477661,-1.9039555788040161
1403638131140097000,-0.04387180507183075,-0.24490250647068024,-0.1505785584449768,7.891617774963379,-1.342692255973816,-1.9434303045272827
1403638131145097000,-0.04610339552164078,-0.27013346552848816,-0.1616555154323578,8.104736328125,-1.3093717098236084,-2.064680337905884
1403638131150097000,-0.04334523528814316,-0.28909575939178467,-0.18489207327365875,8.202264785766602,-1.3416577577590942,-2.072068214416504
1403638131155097000,-0.04265959560871124,-0.30597299337387085,-0.2066662609577179,8.398604393005371,-1.3908276557922363,-2.1774356365203857
1403638131160097000,-0.04196371138095856,-0.3193291127681732,-0.22772854566574097,8.4796781539917,-1.5059784650802612,-2.2094061374664307
1403638131165097000,-0.03500618413090706,-0.3340761363506317,-0.24746793508529663,8.618718147277832,-1.514470100402832,-2.2169620990753174
1403638131170097000,-0.031542230397462845,-0.3389752209186554,-0.27111271023750305,8.667607307434082,-1.4071239233016968,-2.225107192993164
1403638131175097000,-0.02601030096411705,-0.34804001450538635,-0.2863624691963196,8.74979019165039,-1.2590659856796265,-2.2986695766448975
1403638131180097000,-0.03514138609170914,-0.3529452383518219,-0.3024958074092865,8.725141525268555,-1.1688854694366455,-2.3479995727539062
1403638131185097000,-0.041475314646959305,-0.35848474502563477,-0.3156295120716095,8.692436218261719,-1.0535162687301636,-2.3646228313446045
1403638131190097000,-0.049230895936489105,-0.36620035767555237,-0.32873013615608215,8.585809707641602,-0.8887039422988892,-2.397507667541504
1403638131195097000,-0.05906229093670845,-0.38091757893562317,-0.3294505774974823,8.454689979553223,-0.8806567788124084,-2.446381092071533
1403638131200097000,-0.06952919065952301,-0.3879601061344147,-0.339041531085968,8.519756317138672,-0.755990743637085,-2.4876978397369385
1403638131205097000,-0.07584400475025177,-0.4048163592815399,-0.3404543101787567,8.519278526306152,-0.8548052310943604,-2.5198936462402344
1403638131210097000,-0.07449756562709808,-0.41336217522621155,-0.3539087474346161,8.690435409545898,-0.886755108833313,-2.5604324340820312
1403638131215097000,-0.07586777955293655,-0.41827690601348877,-0.3546682894229889,8.70652961730957,-0.9926066994667053,-2.584676504135132
1403638131220097000,-0.06952482461929321,-0.41904008388519287,-0.3532521724700928,8.854045867919922,-0.9833051562309265,-2.6256659030914307
1403638131225097000,-0.06251779943704605,-0.41342827677726746,-0.3378339111804962,8.813338279724121,-0.9569461941719055,-2.658738851547241
1403638131230097000,-0.054187800735235214,-0.40149354934692383,-0.32932671904563904,8.887627601623535,-0.8485318422317505,-2.7085235118865967
1403638131235097000,-0.04572298750281334,-0.39796167612075806,-0.3194938004016876,8.814102172851562,-0.8893424868583679,-2.7494735717773438
1403638131240097000,-0.040163811296224594,-0.38465046882629395,-0.30684223771095276,8.929193496704102,-0.8228102922439575,-2.8238134384155273
1403638131245097000,-0.03596743196249008,-0.383902370929718,-0.2871553897857666,8.831356048583984,-0.831051230430603,-2.8160276412963867
1403638131250097000,-0.027573075145483017,-0.36851370334625244,-0.2745182514190674,8.97911548614502,-0.8153119683265686,-2.865572929382324
1403638131255097000,-0.02265561744570732,-0.35023653507232666,-0.25210970640182495,8.90546989440918,-0.848416268825531,-2.8822453022003174
1403638131260097000,-0.01567775011062622,-0.3368745446205139,-0.2310614287853241,9.036764144897461,-0.7006205916404724,-2.891613483428955
1403638131265097000,-0.011431209743022919,-0.3200646638870239,-0.20932796597480774,8.93858528137207,-0.6762765049934387,-2.892205238342285
1403638131270097000,-0.010052867233753204,-0.2990657687187195,-0.18412160873413086,9.102636337280273,-0.635441243648529,-2.9340386390686035
1403638131275097000,-0.008657947182655334,-0.27805763483047485,-0.17160607874393463,9.020367622375488,-0.6351860761642456,-2.966970920562744
1403638131280097000,-0.002365797758102417,-0.2584525942802429,-0.15133517980575562,9.176033973693848,-0.6103448271751404,-3.0577518939971924
1403638131285097000,0.0067450255155563354,-0.22969341278076172,-0.13301880657672882,9.020465850830078,-0.6996277570724487,-3.0738794803619385
1403638131290097000,0.012312650680541992,-0.21644209325313568,-0.11913342773914337,9.127063751220703,-0.6747178435325623,-3.0988175868988037
1403638131295097000,0.018596649169921875,-0.20045267045497894,-0.10447132587432861,9.127018928527832,-0.6906159520149231,-3.131762981414795
1403638131300097000,0.021294184029102325,-0.1892833411693573,-0.08987432718276978,9.266009330749512,-0.5261259078979492,-3.1574602127075195
1403638131305097000,0.019161120057106018,-0.17546582221984863,-0.08092586696147919,9.175981521606445,-0.3860585391521454,-3.2155046463012695
1403638131310097000,0.01989172399044037,-0.16293965280056,-0.0591779500246048,9.127057075500488,-0.24746021628379822,-3.2000482082366943
1403638131315097000,0.004531480371952057,-0.1497059315443039,-0.04875420033931732,9.053772926330566,-0.11661139130592346,-3.2252566814422607
1403638131320097000,-0.009441189467906952,-0.14281319081783295,-0.03704233467578888,9.021377563476562,-0.034938227385282516,-3.3241138458251953
1403638131325097000,-0.02548522874712944,-0.12406404316425323,-0.03210239112377167,9.062321662902832,-0.019310971722006798,-3.3491084575653076
1403638131330097000,-0.03944134712219238,-0.11290492862462997,-0.018950894474983215,9.029778480529785,-0.17490138113498688,-3.3406291007995605
1403638131335097000,-0.05051339417695999,-0.08983886986970901,-0.015460170805454254,9.005273818969727,-0.3058341145515442,-3.307551622390747
1403638131340097000,-0.05397576838731766,-0.07018513977527618,-0.0021311715245246887,8.9890718460083,-0.36288127303123474,-3.241933584213257
1403638131345097000,-0.05608309060335159,-0.04781144857406616,0.011710591614246368,8.956485748291016,-0.4603898525238037,-3.2500321865081787
1403638131350097000,-0.05887951701879501,-0.028236916288733482,0.032614946365356445,8.923919677734375,-0.5907263159751892,-3.233520269393921
1403638131355097000,-0.05604320019483566,0.00048339925706386566,0.05074989050626755,8.964859962463379,-0.6145688891410828,-3.200637102127075
1403638131360097000,-0.05467793345451355,0.016570569947361946,0.07430195063352585,8.875566482543945,-0.7277733683586121,-3.24102520942688
1403638131365097000,-0.052607595920562744,0.029769795015454292,0.09377995133399963,8.835247993469238,-0.7193871140480042,-3.2573280334472656
1403638131370097000,-0.049085453152656555,0.030430996790528297,0.116812564432621,8.640128135681152,-0.7682693004608154,-3.2321412563323975
1403638131375097000,-0.04705473780632019,0.030997054651379585,0.1313481628894806,8.738232612609863,-0.7359941601753235,-3.2161543369293213
1403638131380097000,-0.045655280351638794,0.029523173347115517,0.1424643099308014,8.583523750305176,-0.7932363152503967,-3.1664083003997803
1403638131385097000,-0.04282842576503754,0.02739996649324894,0.1577601134777069,8.77152156829834,-0.7616474628448486,-3.167227268218994
1403638131390097000,-0.038657478988170624,0.02531326375901699,0.16324083507061005,8.714280128479004,-0.8274676203727722,-3.1096203327178955
1403638131395097000,-0.02681698650121689,0.028091629967093468,0.16457228362560272,8.925925254821777,-0.8279406428337097,-3.1263718605041504
1403638131400097000,-0.02466626465320587,0.03299502283334732,0.1625169962644577,8.950018882751465,-0.8121089935302734,-3.069110631942749
1403638131405097000,-0.026037223637104034,0.0463360920548439,0.15478020906448364,9.194602966308594,-0.7308966517448425,-3.127281665802002
1403638131410097000,-0.02674698829650879,0.05828182399272919,0.13882575929164886,9.145112991333008,-0.7137523889541626,-3.127302885055542
1403638131415097000,-0.03306081146001816,0.07370854914188385,0.12217417359352112,9.259217262268066,-0.6891053915023804,-3.2341482639312744
1403638131420097000,-0.034441374242305756,0.08699244260787964,0.10053752362728119,9.103926658630371,-0.6393486261367798,-3.160367965698242
1403638131425097000,-0.044885002076625824,0.08909483253955841,0.07832154631614685,9.144758224487305,-0.5739614367485046,-3.2015271186828613
1403638131430097000,-0.0512164905667305,0.08901326358318329,0.05192597210407257,9.071167945861816,-0.5165532231330872,-3.1852548122406006
1403638131435097000,-0.06378170102834702,0.08963845670223236,0.030975274741649628,9.055085182189941,-0.3940872550010681,-3.234691619873047
1403638131440097000,-0.07635625451803207,0.08964671194553375,-0.010768808424472809,8.973136901855469,-0.40255632996559143,-3.2018516063690186
1403638131445097000,-0.08260935544967651,0.0791846290230751,-0.039321884512901306,8.948515892028809,-0.3786938488483429,-3.225924253463745
1403638131450097000,-0.09589256346225739,0.06936310976743698,-0.07486721873283386,8.882786750793457,-0.28909507393836975,-3.193129301071167
1403638131455097000,-0.10565488785505295,0.05181238055229187,-0.10272012650966644,8.849883079528809,-0.23209165036678314,-3.200913190841675
1403638131460097000,-0.1182425320148468,0.03987474739551544,-0.1367984116077423,8.685853958129883,-0.24856658279895782,-3.126864194869995
1403638131465097000,-0.13360527157783508,0.020413687452673912,-0.15147565305233002,8.53848648071289,-0.3142586648464203,-3.060939311981201
1403638131470097000,-0.1426343470811844,0.00651281513273716,-0.15839698910713196,8.464807510375977,-0.4120117425918579,-2.9788882732391357
1403638131475097000,-0.15029668807983398,-0.017865385860204697,-0.15272045135498047,8.391096115112305,-0.5999081134796143,-2.896463632583618
1403638131480097000,-0.15383434295654297,-0.03181081265211105,-0.1458354890346527,8.513557434082031,-0.7229041457176208,-2.8389663696289062
1403638131485097000,-0.14822667837142944,-0.046357348561286926,-0.12777012586593628,8.521942138671875,-0.9606194496154785,-2.8381266593933105
1403638131490097000,-0.13844427466392517,-0.05536748468875885,-0.11306765675544739,8.603933334350586,-1.0834851264953613,-2.8131601810455322
1403638131495097000,-0.12095266580581665,-0.05312985181808472,-0.07884673774242401,8.523054122924805,-1.20560884475708,-2.7962708473205566
1403638131500097000,-0.09509541839361191,-0.05861912667751312,-0.05372597277164459,8.515335083007812,-1.2465858459472656,-2.804255723953247
1403638131505097000,-0.0762423425912857,-0.06903352588415146,-0.021662555634975433,8.491362571716309,-1.2790648937225342,-2.804027795791626
1403638131510097000,-0.05676235258579254,-0.08025236427783966,-0.003521312028169632,8.630644798278809,-1.1895065307617188,-2.9025075435638428
1403638131515097000,-0.03372294083237648,-0.08588618785142899,0.01944950595498085,8.573648452758789,-1.1325960159301758,-2.8455703258514404
1403638131520097000,-0.016319893300533295,-0.09359737485647202,0.03622420132160187,8.77812671661377,-0.9447175860404968,-2.911858558654785
1403638131525097000,-0.01001400500535965,-0.09847453236579895,0.05154524743556976,8.696751594543457,-0.8060972690582275,-2.904104471206665
1403638131530097000,-0.0016472935676574707,-0.10617522895336151,0.05979273468255997,8.827414512634277,-0.6025649309158325,-2.8971259593963623
1403638131535097000,0.0010641291737556458,-0.11048096418380737,0.06744876503944397,8.83570671081543,-0.5125856995582581,-2.897766351699829
1403638131540097000,-0.00031842291355133057,-0.10981445014476776,0.07093541324138641,9.023351669311523,-0.3819083571434021,-3.0540931224823
1403638131545097000,-0.0050805360078811646,-0.10138757526874542,0.07020406424999237,8.990463256835938,-0.29200032353401184,-3.038271188735962
1403638131550097000,-0.012079209089279175,-0.09300053864717484,0.06251531839370728,9.080257415771484,-0.18532761931419373,-3.120692729949951
1403638131555097000,-0.016994375735521317,-0.088828906416893,0.05347169563174248,8.916800498962402,-0.20123833417892456,-3.1203441619873047
1403638131560097000,-0.020458735525608063,-0.08957380056381226,0.044462766498327255,8.93310260772705,-0.22566765546798706,-3.136273145675659
1403638131565097000,-0.024630054831504822,-0.09735041111707687,0.03196609020233154,8.74553108215332,-0.2327333241701126,-3.1198787689208984
1403638131570097000,-0.023285184055566788,-0.11282839626073837,0.024259060621261597,8.827131271362305,-0.24884922802448273,-3.15242862701416
1403638131575097000,-0.02121611312031746,-0.1254342496395111,0.007482290267944336,8.843003273010254,-0.33887216448783875,-3.1027188301086426
1403638131580097000,-0.025465626269578934,-0.13873673975467682,-0.003711506724357605,8.981467247009277,-0.37156397104263306,-3.110664129257202
