#timestamp [ns],w_RS_S_x [rad s^-1],w_RS_S_y [rad s^-1],w_RS_S_z [rad s^-1],a_RS_S_x [m s^-2],a_RS_S_y [m s^-2],a_RS_S_z [m s^-2]
1403638127270097000,-0.010471975511965976,0.01117010721276371,0.06562437987498679,8.956740333333332,0.08172208333333333,-3.930832208333333
1403638127275097000,-0.012566370614359173,0.0153588974175501,0.059341194567807204,9.095667875,0.04903325,-3.947176625
1403638127280097000,-0.01117010721276371,0.0153588974175501,0.059341194567807204,9.07115125,-0.04086104166666667,-3.955348833333333
1403638127285097000,-0.011868238913561441,0.021642082724729686,0.04817108735504349,9.201906583333333,-0.08989429166666667,-3.9962098749999995
1403638127290097000,-0.01117010721276371,0.02722713633111154,0.050963614158234416,9.005773583333333,-0.16344416666666667,-3.947176625
1403638127295097000,-0.006283185307179587,0.03420845333908886,0.05305800926062762,8.964912541666667,-0.17978858333333333,-3.930832208333333
1403638127300097000,-0.006981317007977318,0.030019663134302467,0.05864306286700947,8.7279185,-0.196133,-3.87362675
1403638127305097000,-0.006981317007977318,0.019547687622336492,0.0614355896702004,8.77695175,-0.17978858333333333,-3.87362675
1403638127310097000,-0.013962634015954637,0.01117010721276371,0.06771877497737998,8.695229666666666,-0.24516625,-3.8491101249999997
1403638127315097000,-0.014660765716752367,0.010471975511965976,0.07330382858376185,8.842329416666665,-0.26151066666666667,-3.898143375
1403638127320097000,-0.014660765716752367,0.00767944870877505,0.08447393579652555,8.858673833333333,-0.4004382083333333,-3.8654545416666664
1403638127325097000,-0.008377580409572781,0.013962634015954637,0.09285151620609833,9.087495666666666,-0.392266,-3.92266
1403638127330097000,0.0020943951023931952,0.016755160819145562,0.10471975511965977,8.964912541666667,-0.43312704166666666,-3.97169325
1403638127335097000,0.017453292519943295,0.024434609527920613,0.11030480872604163,9.103840083333333,-0.34323275000000003,-3.97169325
1403638127340097000,0.01815142422074103,0.028623399732707,0.10471975511965977,8.891362666666666,-0.269682875,-3.930832208333333
1403638127345097000,0.020943951023931952,0.021642082724729686,0.10192722831646883,8.948568125,-0.04903325,-3.97169325
1403638127350097000,0.0153588974175501,0.016057029118347832,0.1054178868204575,8.825985,0.04903325,-3.955348833333333
1403638127355097000,0.010471975511965976,0.014660765716752367,0.10821041362364843,8.858673833333333,0.0980665,-3.9635210416666666
1403638127360097000,0.0020943951023931952,0.00767944870877505,0.1054178868204575,8.77695175,0.0980665,-3.92266
1403638127365097000,0.0,0.003490658503988659,0.10471975511965977,8.997601374999999,0.13892754166666665,-3.906315583333333
1403638127370097000,-0.004886921905584123,0.0020943951023931952,0.09704030641088471,8.981256958333333,0.06537766666666667,-3.9144877916666663
1403638127375097000,-0.009075712110370514,0.0013962634015954637,0.08587019919812101,9.1201845,0.08172208333333333,-3.92266
1403638127380097000,-0.009075712110370514,0.004886921905584123,0.0747000919853573,9.030290208333332,0.016344416666666667,-3.857282333333333
1403638127385097000,-0.004886921905584123,0.005585053606381855,0.06632251157578452,9.087495666666666,0.016344416666666667,-3.8654545416666664
1403638127390097000,-0.0041887902047863905,0.013264502315156905,0.060039326268604934,9.030290208333332,-0.016344416666666667,-3.906315583333333
1403638127395097000,-0.003490658503988659,0.014660765716752367,0.057246799465414,8.989429166666666,-0.016344416666666667,-3.9635210416666666
1403638127400097000,0.0006981317007977319,0.019547687622336492,0.04817108735504349,8.97308475,0.04903325,-3.97169325
1403638127405097000,-0.0027925268031909274,0.023736477827122883,0.04537856055185257,9.062979041666667,0.13075533333333333,-4.069759749999999
1403638127410097000,-0.005585053606381855,0.0307177948351002,0.05166174585903216,8.997601374999999,0.11441091666666667,-4.086104166666667
1403638127415097000,-0.010825619101524353,0.03003375045955181,0.052414584904909134,8.96112060546875,0.0929529145359993,-4.1331682205200195
1403638127420097000,-0.013668067753314972,0.032831236720085144,0.060174260288476944,8.830618858337402,0.019756585359573364,-4.018934726715088
1403638127425097000,-0.01571926474571228,0.027267685160040855,0.05946502834558487,8.895912170410156,-0.05420495197176933,-3.9944019317626953
1403638127430097000,-0.019211672246456146,0.03139268606901169,0.061427779495716095,8.830687522888184,-0.13586580753326416,-4.010784149169922
1403638127435097000,-0.011540353298187256,0.03419977426528931,0.07401059567928314,8.952932357788086,-0.18478307127952576,-4.026944637298584
1403638127440097000,-0.003819480538368225,0.04189133644104004,0.07681497931480408,8.960951805114746,-0.2658291161060333,-4.051209926605225
1403638127445097000,0.0018136873841285706,0.046062953770160675,0.08235509693622589,9.083255767822266,-0.24149183928966522,-4.018388748168945
1403638127450097000,0.00459810346364975,0.05302535742521286,0.08035650104284286,9.107867240905762,-0.15985934436321259,-3.9937973022460938
1403638127455097000,0.010888509452342987,0.06068526953458786,0.087275430560112,9.018111228942871,-0.09470953047275543,-3.895979166030884
1403638127460097000,0.010889291763305664,0.06628663837909698,0.0907634049654007,8.805747032165527,-0.10241498798131943,-3.806375741958618
1403638127465097000,0.004564106464385986,0.04956614226102829,0.09494219720363617,8.814364433288574,-0.045600999146699905,-3.790485143661499
1403638127470097000,-0.0066774263978004456,0.0418425053358078,0.0928015410900116,8.855684280395508,0.003121128771454096,-3.7824912071228027
1403638127475097000,-0.0200299471616745,0.03551851212978363,0.0921604186296463,8.896328926086426,-0.0867474228143692,-3.7662532329559326
1403638127480097000,-0.023471340537071228,0.02646607719361782,0.08875835686922073,8.82265853881836,-0.21738958358764648,-3.692692756652832
1403638127485097000,-0.017823703587055206,0.011150741949677467,0.0894012302160263,8.855297088623047,-0.3160523772239685,-3.651587963104248
1403638127490097000,-0.015024349093437195,0.008354656398296356,0.0809972956776619,8.920677185058594,-0.3816090524196625,-3.6676597595214844
1403638127495097000,-0.003851063549518585,0.003378143534064293,0.08101814985275269,8.912734985351562,-0.4305979311466217,-3.7165021896362305
1403638127500097000,0.012262046337127686,0.013210626319050789,0.07336084544658661,9.043301582336426,-0.3405377268791199,-3.8307249546051025
1403638127505097000,0.01716040074825287,0.01475888304412365,0.07687719911336899,8.961812019348145,-0.22641621530056,-3.863584041595459
1403638127510097000,0.018594540655612946,0.009137731045484543,0.07127732783555984,9.051836967468262,-0.030109189450740814,-4.026993751525879
1403638127515097000,0.01575096696615219,0.016731074079871178,0.07959156483411789,9.0027494430542,0.027378110215067863,-4.084193229675293
1403638127520097000,0.010764196515083313,0.013286776840686798,0.0830909013748169,8.904556274414062,0.10092184692621231,-4.092584609985352
1403638127525097000,0.011514738202095032,0.011204283684492111,0.08730261027812958,8.847121238708496,0.019099444150924683,-4.011063098907471
1403638127530097000,0.00945260375738144,0.0035669133067131042,0.07547222077846527,8.806357383728027,0.09225795418024063,-3.8805298805236816
1403638127535097000,0.0002449452877044678,-0.006289578042924404,0.07472166419029236,8.920709609985352,0.15723782777786255,-4.0032172203063965
1403638127540097000,-0.012313753366470337,0.003488609567284584,0.07676577568054199,9.018479347229004,0.1982569545507431,-4.003162384033203
1403638127545097000,-0.02135980874300003,0.0007684957236051559,0.08654346317052841,8.96925163269043,0.05971325561404228,-3.9620063304901123
1403638127550097000,-0.023436248302459717,0.00845683366060257,0.08520369231700897,9.075288772583008,-0.14461122453212738,-3.855253219604492
1403638127555097000,-0.015680432319641113,0.0013652611523866653,0.0866030603647232,8.920222282409668,-0.33242765069007874,-3.7730624675750732
1403638127560097000,-0.00025150179862976074,0.013211313635110855,0.07189327478408813,9.197793006896973,-0.36448433995246887,-3.862736463546753
1403638127565097000,0.012277990579605103,0.01883179135620594,0.06075579673051834,9.02618408203125,-0.28243279457092285,-3.8627707958221436
1403638127570097000,0.014370650053024292,0.02725115604698658,0.05310859531164169,8.936748504638672,-0.06245061382651329,-3.95298171043396
1403638127575097000,0.012236997485160828,0.01890433393418789,0.06425271928310394,8.757322311401367,-0.02145770564675331,-3.953080892562866
1403638127580097000,0.003806397318840027,0.013910336419939995,0.07336997985839844,8.725107192993164,0.011840224266052246,-3.9613852500915527
1403638127585097000,-0.0011015832424163818,0.002057623118162155,0.081775963306427,8.757670402526855,-0.08589901775121689,-3.977980613708496
1403638127590097000,-0.004584312438964844,0.004884326830506325,0.07750764489173889,8.928982734680176,-0.03782680258154869,-4.051560878753662
1403638127595097000,-0.007432572543621063,0.0007384680211544037,0.08582498133182526,8.904349327087402,-0.136349618434906,-3.994415760040283
1403638127600097000,-0.001100972294807434,0.007026532664895058,0.07953482866287231,9.09997844696045,-0.13625454902648926,-4.035086154937744
1403638127605097000,0.0003590434789657593,0.008359787985682487,0.08308197557926178,8.994029998779297,-0.16017985343933105,-3.961644411087036
1403638127610097000,0.008770689368247986,0.018117686733603477,0.08456338942050934,9.075450897216797,-0.1848072111606598,-3.961759328842163
1403638127615097000,0.01435542106628418,0.020184068009257317,0.09008418023586273,8.912044525146484,-0.0948856770992279,-3.937177896499634
1403638127620097000,0.019939526915550232,0.02788469009101391,0.0844336450099945,9.026619911193848,-0.013695552945137024,-3.9694437980651855
1403638127625097000,0.015048220753669739,0.027214398607611656,0.07885078340768814,8.87147331237793,0.04356875643134117,-3.9451050758361816
1403638127630097000,0.008044794201850891,0.03071669302880764,0.07113676518201828,8.945061683654785,0.16652469336986542,-4.035216331481934
1403638127635097000,-0.002472788095474243,0.024440495297312737,0.06844179332256317,8.830672264099121,0.19100657105445862,-3.9619526863098145
1403638127640097000,-0.009493716061115265,0.022329365834593773,0.061572134494781494,8.97767162322998,0.23990188539028168,-3.9865121841430664
1403638127645097000,-0.014343418180942535,0.018105993047356606,0.06295603513717651,8.871421813964844,0.08501239120960236,-3.8883588314056396
1403638127650097000,-0.019256044179201126,0.01325923204421997,0.054474350064992905,9.059260368347168,-0.021260343492031097,-3.9371941089630127
1403638127655097000,-0.01714164763689041,0.01603766344487667,0.05234093591570854,8.969364166259766,-0.20103538036346436,-3.945340394973755
1403638127660097000,-0.014303594827651978,0.018845727667212486,0.04469786211848259,9.034666061401367,-0.27504438161849976,-3.9289445877075195
1403638127665097000,-0.005888216197490692,0.02929631806910038,0.05177454650402069,8.871526718139648,-0.28295189142227173,-3.8798627853393555
1403638127670097000,-0.0009763017296791077,0.030744364485144615,0.058810655027627945,8.977720260620117,-0.17711715400218964,-3.9532623291015625
1403638127675097000,0.001785866916179657,0.037697240710258484,0.0699581578373909,8.912261962890625,-0.20132336020469666,-3.9533028602600098
1403638127680097000,-0.010107964277267456,0.03560793399810791,0.07266547530889511,8.977846145629883,-0.11942534148693085,-3.9535818099975586
1403638127685097000,-0.010832428932189941,0.037627167999744415,0.08518780767917633,8.798249244689941,-0.2907002866268158,-3.9452731609344482
1403638127690097000,-0.006608188152313232,0.03560509532690048,0.09419739246368408,8.928707122802734,-0.3152536153793335,-3.9290130138397217
1403638127695097000,0.0010232329368591309,0.03349761664867401,0.10401248931884766,8.741209030151367,-0.3559274673461914,-3.8882429599761963
1403638127700097000,0.008033908903598785,0.023742688819766045,0.1012827455997467,8.863609313964844,-0.27458930015563965,-3.904646158218384
1403638127705097000,0.014945745468139648,0.020196201279759407,0.1047762930393219,8.749319076538086,-0.17635399103164673,-3.880176305770874
1403638127710097000,0.01495727151632309,0.00903499685227871,0.09982401877641678,8.79835033416748,-0.08723276108503342,-3.8150081634521484
1403638127715097000,0.0045346468687057495,0.0013449881225824356,0.09419620782136917,8.839219093322754,-0.06314433366060257,-3.765758514404297
1403638127720097000,0.00388336181640625,0.0006948299705982208,0.09417948126792908,9.035137176513672,0.0591164231300354,-3.8802289962768555
1403638127725097000,0.00034447014331817627,0.009798279032111168,0.09207404404878616,9.108306884765625,0.03475802391767502,-3.88838791847229
1403638127730097000,-0.005219191312789917,0.020312050357460976,0.09003192186355591,9.263315200805664,0.0839998796582222,-3.904625177383423
1403638127735097000,-0.004506111145019531,0.02589242346584797,0.0880693569779396,9.051114082336426,0.019137632101774216,-3.8881471157073975
1403638127740097000,-0.0010552555322647095,0.023033229634165764,0.07891753315925598,9.108277320861816,-0.005332774017006159,-3.920929193496704
1403638127745097000,-0.0010630041360855103,0.027157211676239967,0.07121458649635315,8.920578956604004,0.00354892760515213,-3.937455177307129
1403638127750097000,-0.004526004195213318,0.022308943793177605,0.06568216532468796,8.888056755065918,0.03566517308354378,-3.9865529537200928
1403638127755097000,-0.0024814829230308533,0.020286498591303825,0.06010615453124046,8.724672317504883,-0.04602193459868431,-3.9538090229034424
1403638127760097000,-0.0032196417450904846,0.014728209003806114,0.05874839425086975,8.822630882263184,0.0026942789554595947,-4.035470962524414
1403638127765097000,-0.003823511302471161,0.010497471317648888,0.06017915904521942,8.789984703063965,-0.02985151670873165,-4.035253047943115
1403638127770097000,-0.004495114088058472,0.006261246278882027,0.06703116744756699,8.969452857971191,-0.013701102696359158,-4.043370723724365
1403638127775097000,-0.008063405752182007,0.009080691263079643,0.0747070387005806,9.034738540649414,-0.029619254171848297,-4.035012245178223
1403638127780097000,-0.006632596254348755,0.011179812252521515,0.0782112404704094,9.132587432861328,-0.11149222403764725,-4.034778594970703
1403638127785097000,-0.007999688386917114,0.021628940477967262,0.07889781892299652,9.018299102783203,-0.15188610553741455,-3.944932699203491
1403638127790097000,-0.005229279398918152,0.027245139703154564,0.0873052328824997,9.010213851928711,-0.24171088635921478,-3.9450340270996094
1403638127795097000,-0.003123179078102112,0.03422971069812775,0.09009553492069244,8.895827293395996,-0.26591911911964417,-3.9125072956085205
1403638127800097000,0.0003527328372001648,0.03138808161020279,0.09142941981554031,8.977450370788574,-0.24182961881160736,-3.912468194961548
1403638127805097000,-0.0003765374422073364,0.03206935524940491,0.09076867997646332,8.85516357421875,-0.1929897516965866,-3.8798201084136963
1403638127810097000,0.001023024320602417,0.024372464045882225,0.09212785959243774,8.830650329589844,-0.16867618262767792,-3.871765613555908
1403638127815097000,0.003150075674057007,0.025120435282588005,0.09287041425704956,8.740751266479492,-0.1847498118877411,-3.888190984725952
1403638127820097000,0.005213424563407898,0.018165936693549156,0.09986788034439087,8.896090507507324,-0.16031523048877716,-3.912672519683838
1403638127825097000,0.005941316485404968,0.021648885682225227,0.09282979369163513,8.855499267578125,-0.04612839221954346,-3.896381378173828
1403638127830097000,0.004521623253822327,0.013967551290988922,0.09631108492612839,8.880128860473633,0.035077761858701706,-3.945495128631592
1403638127835097000,0.0024040788412094116,0.011845652014017105,0.0949535220861435,8.978160858154297,0.07646539062261581,-3.961801052093506
1403638127840097000,0.001727476716041565,0.015330078080296516,0.08928640186786652,9.141185760498047,0.06053030118346214,-3.9862775802612305
1403638127845097000,-0.0052280426025390625,0.026510493829846382,0.08239570260047913,9.075693130493164,0.0034732103813439608,-3.9863553047180176
1403638127850097000,-0.005239032208919525,0.02794141136109829,0.08659885823726654,9.083680152893066,-0.029509583488106728,-3.961900234222412
1403638127855097000,-0.0052435994148254395,0.03214956074953079,0.08305734395980835,9.00185775756836,-0.05419706553220749,-3.9701101779937744
1403638127860097000,-0.004545077681541443,0.028597114607691765,0.08525502681732178,8.993825912475586,-0.07881200313568115,-3.9375298023223877
1403638127865097000,-0.005913287401199341,0.032742418348789215,0.07969450950622559,8.92874526977539,-0.07061781734228134,-3.9130048751831055
1403638127870097000,-0.0038469135761260986,0.025102151557803154,0.0795791745185852,8.773555755615234,-0.18517808616161346,-3.8475911617279053
1403638127875097000,0.00033280253410339355,0.020972946658730507,0.0698791891336441,8.797844886779785,-0.17669358849525452,-3.8636412620544434
1403638127880097000,-0.00036212801933288574,0.014658462256193161,0.07547733932733536,8.855294227600098,-0.1357322633266449,-3.8880598545074463
1403638127885097000,0.0010710954666137695,0.011149778962135315,0.07262545078992844,8.977899551391602,-0.11170779913663864,-3.887892723083496
1403638127890097000,0.0024286359548568726,0.010451311245560646,0.08310186862945557,9.075711250305176,-0.10341380536556244,-3.8877649307250977
1403638127895097000,0.00035084784030914307,0.01817276142537594,0.08242636173963547,9.07568359375,-0.06230706349015236,-3.904083251953125
1403638127900097000,-0.0031203478574752808,0.021649641916155815,0.08862343430519104,9.075687408447266,-0.07837719470262527,-3.936931848526001
1403638127905097000,-0.001738026738166809,0.027925672009587288,0.08308511227369308,9.02674388885498,-0.07040479779243469,-3.9697821140289307
1403638127910097000,0.0010269880294799805,0.02653476409614086,0.08589133620262146,8.928699493408203,-0.07892028987407684,-4.043467044830322
1403638127915097000,0.008747190237045288,0.03211645036935806,0.08100147545337677,8.953063011169434,-0.0626930221915245,-4.002657890319824
1403638127920097000,0.011563949286937714,0.02021712251007557,0.07894027978181839,8.749014854431152,-0.03837091475725174,-3.9047694206237793
1403638127925097000,0.005917832255363464,0.017461756244301796,0.07192958891391754,9.092164039611816,0.08416591584682465,-3.9780337810516357
1403638127930097000,-0.0059755221009254456,0.01816221885383129,0.06980456411838531,8.928670883178711,0.07569609582424164,-3.8638393878936768
1403638127935097000,-0.01853146031498909,0.021647965535521507,0.06840866059064865,8.993820190429688,0.06813269108533859,-3.953842878341675
1403638127940097000,-0.022723332047462463,0.021659472957253456,0.07684986293315887,8.797856330871582,-0.07830523699522018,-3.855694532394409
1403638127945097000,-0.02340012788772583,0.015376904979348183,0.07756204903125763,8.830941200256348,-0.21736808121204376,-3.8310351371765137
1403638127950097000,-0.012237071990966797,0.005511490628123283,0.07895410060882568,8.961532592773438,-0.3560398817062378,-3.9205992221832275
1403638127955097000,-0.003157287836074829,0.011778483167290688,0.07129784673452377,9.002456665039062,-0.339578241109848,-3.9367122650146484
1403638127960097000,0.005957499146461487,0.014644742012023926,0.06497648358345032,8.887849807739258,-0.3316289782524109,-3.887680768966675
1403638127965097000,0.010195031762123108,0.017532626166939735,0.06353773921728134,8.985702514648438,-0.12759791314601898,-3.920386552810669
1403638127970097000,0.008052051067352295,0.018190721049904823,0.06774935126304626,8.790020942687988,-0.021516263484954834,-3.879770517349243
1403638127975097000,0.002456352114677429,0.015346888452768326,0.06773696094751358,8.96147346496582,0.11715178191661835,-4.043588638305664
1403638127980097000,-0.005250684916973114,0.013907017186284065,0.07267552614212036,8.91256332397461,0.10062044113874435,-4.043588638305664
1403638127985097000,-0.007341817021369934,0.012598995119333267,0.07404856383800507,8.994261741638184,0.03486236557364464,-3.9782605171203613
1403638127990097000,-0.016449157148599625,0.009815739467740059,0.0732947587966919,8.912566184997559,-0.06276188045740128,-3.9618852138519287
1403638127995097000,-0.01642848551273346,0.012593230232596397,0.07122629880905151,8.969696998596191,-0.0625525414943695,-3.937370777130127
1403638128000097000,-0.01294015347957611,0.01608811505138874,0.07263922691345215,8.879432678222656,-0.11967961490154266,-3.904849052429199
1403638128005097000,-0.012248605489730835,0.022355401888489723,0.07332390546798706,9.042634963989258,-0.11975544691085815,-3.9128034114837646
1403638128010097000,-0.009408369660377502,0.02509949915111065,0.07199162244796753,8.985647201538086,-0.15196755528450012,-3.945082664489746
1403638128015097000,-0.00030037760734558105,0.02789793722331524,0.06844618916511536,9.083780288696289,-0.11933823674917221,-3.977745294570923
1403638128020097000,0.004594169557094574,0.026482535526156425,0.06072339788079262,8.887903213500977,-0.08669473975896835,-3.8959927558898926
1403638128025097000,0.00040850043296813965,0.01884281076490879,0.05935465916991234,8.937053680419922,0.0025629238225519657,-3.8798797130584717
1403638128030097000,-0.005206376314163208,0.016757724806666374,0.057330407202243805,8.757411003112793,0.002763862954452634,-3.888237476348877
1403638128035097000,-0.012286320328712463,0.009071987122297287,0.058719001710414886,8.880032539367676,0.06817036867141724,-3.9209682941436768
1403638128040097000,-0.017153196036815643,0.011186012998223305,0.06711746752262115,8.945298194885254,-0.03736855462193489,-3.9453842639923096
1403638128045097000,-0.01917828619480133,0.011211467906832695,0.074007049202919,9.108482360839844,-0.08665027469396591,-3.929070472717285
1403638128050097000,-0.015049919486045837,0.010446451604366302,0.07467802613973618,9.018392562866211,-0.29902076721191406,-3.9044086933135986
1403638128055097000,-0.008765190839767456,0.009724512696266174,0.07611749321222305,9.100069046020508,-0.34021246433258057,-3.9368371963500977
1403638128060097000,-0.005222730338573456,0.016700876876711845,0.07404188811779022,8.93687915802002,-0.3156529664993286,-3.863247871398926
1403638128065097000,0.0003899708390235901,0.018174363300204277,0.07195127010345459,8.94517707824707,-0.22627153992652893,-3.9044010639190674
1403638128070097000,0.0024696141481399536,0.019582299515604973,0.07760471850633621,8.831158638000488,-0.12804298102855682,-3.8964059352874756
1403638128075097000,0.0038627684116363525,0.01819472573697567,0.08937621116638184,8.839320182800293,-0.02206709422171116,-3.9456334114074707
1403638128080097000,-0.0024475380778312683,0.01603393442928791,0.09278125315904617,8.912612915039062,0.019217949360609055,-4.0761823654174805
1403638128085097000,-0.008780211210250854,0.012536155059933662,0.09701603651046753,8.961594581604004,0.0030037194956094027,-4.035305500030518
1403638128090097000,-0.011566370725631714,0.017482591792941093,0.09352072328329086,8.96944808959961,-0.02110460214316845,-4.010715484619141
1403638128095097000,-0.013656824827194214,0.017481619492173195,0.09490903466939926,8.961111068725586,-0.12736919522285461,-4.018863677978516
1403638128100097000,-0.008744746446609497,0.023757880553603172,0.08733894675970078,8.830485343933105,-0.15976479649543762,-3.9619007110595703
1403638128105097000,0.000342734158039093,0.016773773357272148,0.08869266510009766,8.8796968460083,-0.11114674806594849,-3.8967788219451904
1403638128110097000,0.0010335147380828857,0.015330936759710312,0.08587352931499481,8.88797378540039,-0.09505405277013779,-3.89654278755188
1403638128115097000,-0.0003625154495239258,0.003424298018217087,0.08865831792354584,8.961339950561523,-0.08754311501979828,-3.863847255706787
1403638128120097000,-0.004519745707511902,0.006229471415281296,0.08585970103740692,9.026625633239746,-0.0465807244181633,-3.8963568210601807
1403638128125097000,-0.005926564335823059,0.009068978950381279,0.09214138239622116,8.993778228759766,-0.20197604596614838,-3.8633530139923096
1403638128130097000,-0.0003083646297454834,0.011201782152056694,0.08938634395599365,8.977398872375488,-0.18474885821342468,-3.8471269607543945
1403638128135097000,0.002469688653945923,0.00840313546359539,0.08872438967227936,8.879672050476074,-0.17651379108428955,-3.888066530227661
1403638128140097000,0.004507675766944885,0.00624966062605381,0.08383315801620483,8.985976219177246,-0.07856389880180359,-3.994188070297241
1403638128145097000,0.00169295072555542,0.011122534051537514,0.09145443141460419,8.953486442565918,-0.07854268699884415,-4.043323516845703
1403638128150097000,0.0017102807760238647,0.01888100616633892,0.08931498974561691,9.092276573181152,-0.03717542812228203,-4.100419998168945
1403638128155097000,-0.0010894015431404114,0.025207383558154106,0.09492836892604828,8.871660232543945,-0.10262581706047058,-4.067838668823242
1403638128160097000,0.001737743616104126,0.025897858664393425,0.09356043487787247,8.83878231048584,-0.05395844951272011,-4.076179027557373
1403638128165097000,-0.0010751187801361084,0.023000990971922874,0.09497499465942383,8.708086013793945,-0.07095854729413986,-4.019214630126953
1403638128170097000,0.0023906007409095764,0.019498249515891075,0.09012135863304138,8.871356964111328,-0.07110746204853058,-4.076466083526611
1403638128175097000,0.0010519325733184814,0.015294842422008514,0.09288375079631805,8.797947883605957,-0.0871422216296196,-3.970339775085449
1403638128180097000,0.0017435252666473389,0.013275211676955223,0.0900079533457756,8.928644180297852,0.02735970914363861,-4.010961055755615
1403638128185097000,0.0017599761486053467,0.01116550900042057,0.08933597058057785,8.912168502807617,-0.02191638946533203,-3.8799924850463867
1403638128190097000,0.002443075180053711,0.010469596832990646,0.0809788703918457,9.099699974060059,-0.04623550549149513,-3.871535301208496
1403638128195097000,0.0038538873195648193,0.013941584154963493,0.07888402044773102,9.00986385345459,-0.03741718456149101,-3.838818073272705
1403638128200097000,0.0010701864957809448,0.014640090987086296,0.0691312849521637,9.116317749023438,0.04383789002895355,-3.8306283950805664
1403638128205097000,0.0017718896269798279,0.020910164341330528,0.06775855273008347,9.010066032409668,0.011300784535706043,-3.86336088180542
1403638128210097000,-0.0024301856756210327,0.02094564400613308,0.06356927752494812,9.108463287353516,0.07643881440162659,-3.879943370819092
1403638128215097000,-0.008038729429244995,0.027230029925704002,0.06219085305929184,8.994279861450195,0.03565984219312668,-3.88002347946167
1403638128220097000,-0.00942964106798172,0.03912098705768585,0.06220903992652893,9.091955184936523,0.06006650626659393,-3.978123903274536
1403638128225097000,-0.014334671199321747,0.040511809289455414,0.0643036812543869,8.814210891723633,-0.09497246146202087,-3.937236785888672
1403638128230097000,-0.010816603899002075,0.03073400817811489,0.06427038460969925,8.838902473449707,-0.17700077593326569,-3.978233575820923
1403638128235097000,-0.011509731411933899,0.026481831446290016,0.06433890014886856,8.684073448181152,-0.24196961522102356,-3.9292619228363037
1403638128240097000,-0.008755333721637726,0.01947312243282795,0.06641708314418793,8.847410202026367,-0.23414748907089233,-3.986421585083008
1403638128245097000,-0.0038616806268692017,0.018098516389727592,0.07059112191200256,8.79831314086914,-0.2502898573875427,-3.9618515968322754
1403638128250097000,0.004565231502056122,0.01261085830628872,0.0726756602525711,8.888041496276855,-0.2338084727525711,-3.9533822536468506
1403638128255097000,0.005980938673019409,0.01259479857981205,0.07332254946231842,8.961386680603027,-0.1842644065618515,-3.953141450881958
1403638128260097000,0.007366083562374115,0.010433342307806015,0.07745839655399323,8.985852241516113,-0.03794785961508751,-3.9451513290405273
1403638128265097000,0.008069656789302826,0.016028819605708122,0.07818201929330826,8.977583885192871,0.03524401783943176,-3.9370059967041016
1403638128270097000,-0.0024645477533340454,0.02096177451312542,0.08030739426612854,9.00197982788086,0.027318382635712624,-3.929043769836426
1403638128275097000,-0.003827720880508423,0.02445915900170803,0.07892486453056335,8.961241722106934,0.04428336024284363,-3.9046308994293213
1403638128280097000,-0.00452791154384613,0.030750928446650505,0.0802839994430542,9.091756820678711,-0.037909891456365585,-3.9454636573791504
1403638128285097000,-0.0038676559925079346,0.03911968320608139,0.07473085820674896,8.977205276489258,-0.11959846317768097,-3.9617197513580322
1403638128290097000,-0.005219370126724243,0.03003641776740551,0.07194054126739502,9.00993824005127,-0.11150102317333221,-3.986358880996704
1403638128295097000,-0.005944445729255676,0.0341915637254715,0.07264683395624161,8.895816802978516,-0.09500528126955032,-3.986362934112549
1403638128300097000,-0.005270868539810181,0.029965823516249657,0.07965072989463806,8.675557136535645,-0.12844215333461761,-3.9293575286865234
1403638128305097000,-0.0024333298206329346,0.020922889932990074,0.07756128162145615,8.724888801574707,-0.06280773133039474,-3.9538159370422363
1403638128310097000,0.00038205087184906006,0.013290846720337868,0.08312917500734329,8.822991371154785,-0.02985670045018196,-3.9864537715911865
1403638128315097000,-0.002474360167980194,0.01746177487075329,0.07682740688323975,8.936978340148926,-0.08653611689805984,-4.018994331359863
1403638128320097000,0.0017510950565338135,0.014629274606704712,0.07259957492351532,8.985710144042969,-0.07861153781414032,-3.9943456649780273
1403638128325097000,-0.0017144381999969482,0.023766079917550087,0.07124495506286621,9.002147674560547,0.011289248242974281,-3.9778828620910645
1403638128330097000,0.0003646090626716614,0.02729114331305027,0.0774911418557167,9.02626895904541,-0.037526413798332214,-3.9615867137908936
1403638128335097000,-0.0010014176368713379,0.03278147429227829,0.0726056694984436,9.091692924499512,0.0118852024897933,-3.986166477203369
1403638128340097000,-0.004562415182590485,0.03625640273094177,0.07199922204017639,8.92862319946289,-0.029705557972192764,-3.9291274547576904
1403638128345097000,-0.0094456747174263,0.030726691707968712,0.06148052215576172,8.9695463180542,-0.046673089265823364,-3.888328790664673
1403638128350097000,-0.009439915418624878,0.021619638428092003,0.06981777399778366,8.838949203491211,-0.0790732204914093,-3.855734348297119
1403638128355097000,-0.011507585644721985,0.029309118166565895,0.06918247044086456,8.985859870910645,-0.1118016242980957,-3.888307809829712
1403638128360097000,-0.007334113121032715,0.023728301748633385,0.0740455761551857,8.863197326660156,-0.2020464986562729,-3.8065459728240967
1403638128365097000,-0.004495784640312195,0.020949533209204674,0.06917589902877808,9.042878150939941,-0.17720232903957367,-3.8226184844970703
1403638128370097000,-0.01085922122001648,0.018855353817343712,0.07268927246332169,8.87973403930664,-0.21747927367687225,-3.8552541732788086
1403638128375097000,-0.009425386786460876,0.01948384754359722,0.07191219925880432,9.035257339477539,-0.16029544174671173,-3.8716652393341064
1403638128380097000,-0.008010126650333405,0.020184999331831932,0.0781923457980156,8.90470027923584,-0.16010037064552307,-3.830951690673828
1403638128385097000,-0.0017307102680206299,0.021710267290472984,0.08100078999996185,8.94558048248291,-0.11931300908327103,-3.8881731033325195
1403638128390097000,-0.0003216266632080078,0.02447209320962429,0.08520084619522095,8.87175464630127,-0.1029118224978447,-3.912715435028076
1403638128395097000,-0.001070648431777954,0.02232353202998638,0.08244587481021881,9.002462387084961,-0.0785367339849472,-4.010741710662842
1403638128400097000,-0.0011115223169326782,0.02652018703520298,0.0873291939496994,8.871600151062012,-0.14372996985912323,-3.986311197280884
1403638128405097000,-0.0010407716035842896,0.026561638340353966,0.09072113782167435,8.953049659729004,-0.08673994243144989,-4.035496711730957
1403638128410097000,-0.00030551105737686157,0.026524169370532036,0.09280852973461151,8.781702041625977,-0.1035895124077797,-3.9212474822998047
1403638128415097000,0.005923278629779816,0.01746218465268612,0.09426391124725342,8.822484016418457,-0.07116207480430603,-3.9620323181152344
1403638128420097000,0.0024191588163375854,0.01533249206840992,0.08941666781902313,8.838897705078125,-0.04627551883459091,-3.9292612075805664
1403638128425097000,-0.00109003484249115,0.009791487827897072,0.08938932418823242,8.945165634155273,-0.030148325487971306,-3.929229974746704
1403638128430097000,-0.00454595685005188,0.008355826139450073,0.09007883816957474,8.846978187561035,-0.07912421971559525,-3.88834810256958
1403638128435097000,-0.006640627980232239,0.004893213510513306,0.0906934067606926,8.977596282958984,-0.07891185581684113,-3.8717844486236572
1403638128440097000,-0.0031307339668273926,0.01186281256377697,0.090726837515831,9.051056861877441,-0.09470350295305252,-3.8797829151153564
1403638128445097000,0.003176644444465637,0.017445223405957222,0.0852116122841835,9.13243293762207,-0.0867656022310257,-3.9124674797058105
1403638128450097000,0.0031442344188690186,0.02721925638616085,0.07754327356815338,8.985581398010254,-0.08662790060043335,-3.8878705501556396
1403638128455097000,-0.004556313157081604,0.023760607466101646,0.07404232770204544,8.985811233520508,-0.05422670766711235,-3.9125750064849854
1403638128460097000,-0.01013404130935669,0.027224594727158546,0.07401439547538757,8.888055801391602,-0.004956743214279413,-3.97806715965271
1403638128465097000,-0.010171361267566681,0.019526036456227303,0.08028589934110641,8.847355842590332,-0.07877074927091599,-4.002782821655273
1403638128470097000,-0.013643108308315277,0.022339465096592903,0.08314607292413712,8.855597496032715,-0.07056451588869095,-3.9946234226226807
1403638128475097000,-0.009451024234294891,0.016083696857094765,0.09573042392730713,8.806411743164062,-0.22615718841552734,-3.92911696434021
1403638128480097000,-0.002483755350112915,0.011853070929646492,0.09080129861831665,8.81439208984375,-0.29919618368148804,-3.912611246109009
1403638128485097000,0.003124937415122986,0.012520181015133858,0.08725262433290482,8.904245376586914,-0.25819870829582214,-3.879894733428955
1403638128490097000,0.005991771817207336,0.013243386521935463,0.07819640636444092,8.920470237731934,-0.16043606400489807,-3.945296049118042
1403638128495097000,0.007353931665420532,0.00906054861843586,0.080965057015419,8.9857177734375,-0.12789709866046906,-3.9616029262542725
1403638128500097000,0.0072982460260391235,0.018855230882763863,0.08519885689020157,9.00233268737793,0.036041274666786194,-3.9940927028656006
1403638128505097000,0.0031410902738571167,0.02095654420554638,0.09148571640253067,8.961650848388672,0.05205171927809715,-3.994107246398926
1403638128510097000,-0.003111511468887329,0.028650807216763496,0.08444046229124069,8.969656944274902,0.0847950205206871,-3.969738483428955
1403638128515097000,-0.008064068853855133,0.023770606145262718,0.083053357899189,8.830714225769043,0.06007906422019005,-3.9292688369750977
1403638128520097000,-0.0073472559452056885,0.026524050161242485,0.07401197403669357,8.936591148376465,0.019124561920762062,-3.937436103820801
1403638128525097000,-0.009436443448066711,0.020168347284197807,0.06914856284856796,8.879354476928711,-0.06258554756641388,-3.872084140777588
1403638128530097000,-0.008756205439567566,0.0160259660333395,0.06642240285873413,9.018356323242188,-0.11958885937929153,-3.9046502113342285
1403638128535097000,-0.005951642990112305,0.014666188508272171,0.07128189504146576,8.944730758666992,-0.1521383374929428,-3.912707567214966
1403638128540097000,-0.004529602825641632,0.020937344059348106,0.06982460618019104,9.010213851928711,-0.1277681142091751,-3.9533698558807373
1403638128545097000,-0.003097623586654663,0.024439899250864983,0.07474425435066223,8.928693771362305,-0.14399957656860352,-3.8960700035095215
1403638128550097000,-0.007301792502403259,0.023060256615281105,0.07190980017185211,9.018842697143555,-0.1195610761642456,-3.9449758529663086
1403638128555097000,-0.004560396075248718,0.022320730611681938,0.07540228217840195,8.855469703674316,-0.1519622951745987,-3.961566686630249
1403638128560097000,0.00035102665424346924,0.020194122567772865,0.07619383931159973,8.977962493896484,-0.09472515434026718,-3.961693048477173
1403638128565097000,0.0017727017402648926,0.02367323823273182,0.07689496874809265,8.855307579040527,-0.15189345180988312,-3.89631986618042
1403638128570097000,-0.0024287402629852295,0.018905317410826683,0.08101560175418854,8.994097709655762,-0.08697085082530975,-3.896353244781494
1403638128575097000,0.0003138706088066101,0.021663298830389977,0.07819455862045288,8.863329887390137,-0.06217322498559952,-3.8800740242004395
1403638128580097000,-0.0003777742385864258,0.017447324469685555,0.07881604880094528,8.928622245788574,-0.021676167845726013,-3.896531343460083
1403638128585097000,-0.006650939583778381,0.017397666350007057,0.07959423959255219,8.871428489685059,-0.11969133466482162,-3.8882575035095215
1403638128590097000,-0.0003210529685020447,0.01188063994050026,0.08659209311008453,9.051351547241211,-0.05466538667678833,-3.9209015369415283
1403638128595097000,-0.0010744929313659668,0.019533326849341393,0.08733196556568146,8.977779388427734,-0.16070808470249176,-3.9207451343536377
1403638128600097000,0.0024456754326820374,0.02375704236328602,0.08942476660013199,9.03471851348877,-0.1196998804807663,-3.9616217613220215
1403638128605097000,0.001123383641242981,0.03004508651793003,0.08169575035572052,8.89595890045166,-0.09515941888093948,-3.8881218433380127
1403638128610097000,-0.0003573372960090637,0.025195444002747536,0.07744050025939941,8.945036888122559,-0.02193676121532917,-3.9454174041748047
1403638128615097000,-0.002485141158103943,0.028571879491209984,0.07401303946971893,8.863389015197754,0.011316117830574512,-3.9699409008026123
1403638128620097000,-0.004533782601356506,0.025768307968974113,0.07890968769788742,8.871604919433594,0.011347368359565735,-3.96193528175354
1403638128625097000,-0.006640985608100891,0.02233007363975048,0.07477132976055145,8.81449031829834,0.0194404274225235,-3.929332971572876
1403638128630097000,-0.009484991431236267,0.018185874447226524,0.07619045674800873,8.896056175231934,-0.08672796189785004,-3.953749179840088
1403638128635097000,-0.012218676507472992,0.018856434151530266,0.06497766822576523,8.936720848083496,-0.16004565358161926,-3.920882225036621
1403638128640097000,-0.011538803577423096,0.01184750348329544,0.06494458019733429,8.838859558105469,-0.11991323530673981,-3.8638651371002197
1403638128645097000,-0.012916535139083862,0.007670199498534203,0.06777884066104889,8.871543884277344,-0.19346365332603455,-3.8881139755249023
1403638128650097000,-0.012921243906021118,0.002782342955470085,0.07471214979887009,8.96949577331543,-0.2095714956521988,-3.937077045440674
1403638128655097000,-0.008739754557609558,0.010425610467791557,0.08035652339458466,8.969802856445312,-0.2827396094799042,-3.90429949760437
1403638128660097000,-0.0024293437600135803,0.01185343973338604,0.08876822888851166,8.87985897064209,-0.2669578790664673,-3.8552658557891846
1403638128665097000,-0.002411946654319763,0.013321937993168831,0.08726087212562561,8.928929328918457,-0.16840799152851105,-3.879734516143799
1403638128670097000,-0.004553377628326416,0.006290638819336891,0.09839779138565063,8.953299522399902,-0.20153571665287018,-3.912580966949463
1403638128675097000,-0.005981922149658203,0.007616167888045311,0.09909550100564957,9.108573913574219,-0.1521117240190506,-3.9371089935302734
1403638128680097000,-0.010178208351135254,0.005530595779418945,0.1053631454706192,8.945526123046875,-0.16852788627147675,-3.8473825454711914
1403638128685097000,-0.010818466544151306,0.0021164901554584503,0.10546283423900604,8.945404052734375,-0.1602187305688858,-3.822990655899048
1403638128690097000,-0.017164334654808044,-0.00625749584287405,0.11240331083536148,8.87192440032959,-0.20131394267082214,-3.8721213340759277
1403638128695097000,-0.016516350209712982,-0.017494305968284607,0.11510058492422104,8.945868492126465,-0.1853492707014084,-3.847576379776001
1403638128700097000,-0.011578530073165894,-0.017525648698210716,0.1186031848192215,8.904873847961426,-0.1772059053182602,-3.8311986923217773
1403638128705097000,-0.011547058820724487,-0.011138360016047955,0.1192755252122879,9.108797073364258,-0.07880423218011856,-3.9453208446502686
1403638128710097000,-0.005259186029434204,-0.0020270049571990967,0.11305145174264908,8.994126319885254,-0.09519026428461075,-3.9533934593200684
1403638128715097000,-0.0031338632106781006,0.00428357720375061,0.10333990305662155,9.173773765563965,0.0031928301323205233,-4.02691650390625
1403638128720097000,-0.0010527223348617554,0.013988904654979706,0.09634426236152649,8.936966896057129,0.11746910214424133,-4.035159587860107
1403638128725097000,-0.0073305219411849976,0.015380721539258957,0.09346088767051697,8.977946281433105,0.28844133019447327,-4.108811378479004
1403638128730097000,-0.011545643210411072,0.01814114861190319,0.09419677406549454,8.814396858215332,0.20670990645885468,-4.084430694580078
1403638128735097000,-0.013663157820701599,0.018900131806731224,0.08377763628959656,8.896224021911621,0.19909510016441345,-4.059945106506348
1403638128740097000,-0.01994556188583374,0.01817602477967739,0.07755047082901001,8.814423561096191,0.12575171887874603,-3.9866092205047607
1403638128745097000,-0.025499626994132996,0.006306564435362816,0.06640668958425522,8.846709251403809,0.06780046969652176,-3.9866747856140137
1403638128750097000,-0.02974230796098709,0.0027557481080293655,0.06499024480581284,8.748403549194336,-0.08725758641958237,-3.9292943477630615
1403638128755097000,-0.031119026243686676,-0.0035543832927942276,0.06846301257610321,8.977258682250977,-0.209340438246727,-3.9288218021392822
1403638128760097000,-0.028278514742851257,0.003428904339671135,0.0726499855518341,8.903956413269043,-0.2744130790233612,-3.8877382278442383
1403638128765097000,-0.018449265509843826,0.005607306957244873,0.07405709475278854,8.977595329284668,-0.28291207551956177,-3.9203200340270996
1403638128770097000,-0.007294170558452606,0.020283838734030724,0.07895556092262268,9.067207336425781,-0.2659749984741211,-4.0261640548706055
1403638128775097000,0.0024892687797546387,0.03352339565753937,0.07820017635822296,8.993693351745605,-0.20845752954483032,-4.075310230255127
1403638128780097000,0.010201498866081238,0.039058998227119446,0.07610180228948593,8.822306632995605,-0.15904906392097473,-4.124537467956543
1403638128785097000,0.009459950029850006,0.0349002406001091,0.07125294953584671,8.716382026672363,0.0603422112762928,-4.075875759124756
1403638128790097000,-0.0010633617639541626,0.027903718873858452,0.06493670493364334,8.733136177062988,0.26395487785339355,-4.076171875
1403638128795097000,-0.01366889476776123,0.024383770301938057,0.06775709986686707,8.830994606018066,0.24742315709590912,-4.060243606567383
1403638128800097000,-0.024856090545654297,0.025118356570601463,0.05939803645014763,8.814349174499512,0.0929049476981163,-3.9949851036071777
1403638128805097000,-0.037419356405735016,0.007726909592747688,0.05652596428990364,8.78982162475586,-0.07120916992425919,-3.8888752460479736
1403638128810097000,-0.03949642926454544,0.000683637335896492,0.060072001069784164,8.838735580444336,-0.28341391682624817,-3.864037036895752
1403638128815097000,-0.030409134924411774,-0.0015350719913840294,0.0684889554977417,8.91217041015625,-0.4708695113658905,-3.937148094177246
1403638128820097000,-0.024099677801132202,0.0020054783672094345,0.07132065296173096,8.986099243164062,-0.45438629388809204,-3.9206011295318604
1403638128825097000,-0.024059437215328217,1.7136335372924805e-07,0.08043194562196732,8.93741512298584,-0.4715145230293274,-3.846848964691162
1403638128830097000,-0.01847788318991661,0.0021106507629156113,0.09215405583381653,9.019099235534668,-0.4461958110332489,-3.8058664798736572
1403638128835097000,-0.012934163212776184,0.011804772540926933,0.1151217371225357,9.076179504394531,-0.4857737720012665,-3.9283413887023926
1403638128840097000,-0.007986262440681458,0.018116267397999763,0.12705588340759277,8.978230476379395,-0.4287041127681732,-3.8472111225128174
1403638128845097000,-0.0010065585374832153,0.01401597447693348,0.14237648248672485,8.880247116088867,-0.3231984078884125,-3.9210872650146484
1403638128850097000,0.005163520574569702,0.02028357796370983,0.147252157330513,8.88023853302002,-0.13566362857818604,-3.880523443222046
1403638128855097000,0.016312263906002045,0.009030593559145927,0.14514687657356262,8.782238960266113,-0.07866696268320084,-3.9459683895111084
1403638128860097000,0.017110072076320648,0.011887973174452782,0.11715321987867355,9.223130226135254,0.11769742518663406,-4.157977104187012
1403638128865097000,0.010782845318317413,0.015451496466994286,0.09903884679079056,8.855775833129883,0.3289332091808319,-4.068408966064453
1403638128870097000,0.0065968334674835205,0.016840850934386253,0.08228163421154022,8.961739540100098,0.4990057349205017,-4.1663899421691895
1403638128875097000,0.0031387507915496826,0.025144273415207863,0.07114125043153763,8.936873435974121,0.47455912828445435,-4.165948390960693
1403638128880097000,-0.0003035217523574829,0.025865895673632622,0.04617872089147568,8.912444114685059,0.4505496025085449,-4.108994960784912
1403638128885097000,-0.01427101343870163,0.023736992850899696,0.025250360369682312,8.887510299682617,0.38553452491760254,-4.15019416809082
1403638128890097000,-0.021281596273183823,0.03137283772230148,0.012657750397920609,8.94462776184082,0.30378425121307373,-4.043699741363525
1403638128895097000,-0.026897087693214417,0.028612123802304268,0.007845506072044373,8.854100227355957,0.027002369984984398,-4.019106864929199
1403638128900097000,-0.024740159511566162,0.033523328602313995,0.007893819361925125,8.927757263183594,-0.0861046314239502,-3.9534714221954346
1403638128905097000,-0.013520605862140656,0.030042512342333794,0.017682798206806183,8.772746086120605,-0.21632622182369232,-3.8223400115966797
1403638128910097000,-0.003094516694545746,0.02021748386323452,0.025282874703407288,9.034039497375488,-0.2743799090385437,-3.7894935607910156
1403638128915097000,-0.004522264003753662,0.019422421231865883,0.02316170185804367,8.977004051208496,-0.2331894487142563,-3.7809951305389404
1403638128920097000,-0.007999017834663391,0.023702895268797874,0.023822162300348282,9.206480979919434,-0.2087601125240326,-3.8462791442871094
1403638128925097000,-0.012888133525848389,0.037024252116680145,0.0377231128513813,9.075820922851562,-0.3146268129348755,-3.903524398803711
1403638128930097000,-0.006613500416278839,0.03913775831460953,0.05239135026931763,8.879948616027832,-0.37243780493736267,-3.879373073577881
1403638128935097000,-0.0009717643260955811,0.04332142323255539,0.068564772605896,8.765819549560547,-0.3641062080860138,-3.953261375427246
1403638128940097000,0.0031511038541793823,0.04182141274213791,0.07833389192819595,8.749746322631836,-0.34004533290863037,-4.018721580505371
1403638128945097000,0.01356196403503418,0.03967490792274475,0.08027779310941696,8.79019546508789,-0.3238883316516876,-4.165867805480957
1403638128950097000,0.012185275554656982,0.040490008890628815,0.08232121169567108,8.839188575744629,-0.2755098044872284,-4.18251371383667
1403638128955097000,0.01014573872089386,0.041206419467926025,0.07954894006252289,8.651397705078125,-0.1770545393228531,-4.043922424316406
1403638128960097000,0.01155812293291092,0.023767413571476936,0.0886346846818924,8.73286247253418,-0.07880798727273941,-4.003208160400391
1403638128965097000,0.0108066126704216,0.016712473705410957,0.08733486384153366,8.855365753173828,-0.021829720586538315,-4.03576135635376
1403638128970097000,0.0003081709146499634,0.005534367635846138,0.08939218521118164,9.002294540405273,0.026266518980264664,-3.9622786045074463
1403638128975097000,-0.006607651710510254,0.012537766247987747,0.08025956153869629,9.10031509399414,0.14158867299556732,-3.8887088298797607
1403638128980097000,-0.011503860354423523,0.01190934143960476,0.0753205344080925,9.026778221130371,0.0686788484454155,-3.8067517280578613
1403638128985097000,-0.014322079718112946,0.010544545948505402,0.06626570224761963,9.083539962768555,0.03606829047203064,-3.839510440826416
1403638128990097000,-0.019170496612787247,0.01744954101741314,0.06289100646972656,9.042664527893066,-0.09494840353727341,-3.814948558807373
1403638128995097000,-0.013639070093631744,0.02438284270465374,0.05812368169426918,9.018139839172363,-0.11105372756719589,-3.7739267349243164
1403638129000097000,-0.0073515623807907104,0.02514752186834812,0.0707395076751709,8.609810829162598,-0.20139531791210175,-3.5944862365722656
1403638129005097000,0.002484247088432312,0.0007352493703365326,0.08458729088306427,8.536791801452637,-0.19419199228286743,-3.4719855785369873
1403638129010097000,0.010864347219467163,-0.008439335972070694,0.09489260613918304,8.961594581604004,-0.31667065620422363,-3.700124979019165
1403638129015097000,0.017119862139225006,0.01673980988562107,0.088575080037117,9.785609245300293,-0.19319279491901398,-4.075500011444092
1403638129020097000,0.01364143192768097,0.048328228294849396,0.07607728987932205,9.793742179870605,-0.09490995854139328,-4.2713775634765625
1403638129025097000,0.006021320819854736,0.0799117386341095,0.054473452270030975,9.6553373336792,-0.1440180540084839,-4.222039699554443
1403638129030097000,0.006035983562469482,0.0727044865489006,0.03502906113862991,8.928874015808105,-0.23341096937656403,-3.94431471824646
1403638129035097000,0.010884016752243042,0.04309890419244766,0.008449167013168335,8.986845016479492,-0.13580630719661713,-4.0350542068481445
1403638129040097000,0.007323220372200012,0.039501018822193146,-0.013953067362308502,9.133539199829102,-0.05416252836585045,-4.321299076080322
1403638129045097000,-0.0011081397533416748,0.03417983651161194,-0.04038957506418228,9.239786148071289,0.15778224170207977,-4.3132758140563965
1403638129050097000,-0.018582399934530258,0.03301307559013367,-0.051475100219249725,9.149534225463867,0.1415257304906845,-4.17402982711792
1403638129055097000,-0.02970147877931595,0.024652870371937752,-0.06192346662282944,9.092106819152832,0.042989302426576614,-3.985668897628784
1403638129060097000,-0.04079338535666466,0.016079043969511986,-0.06960772722959518,9.075016021728516,-0.16057537496089935,-3.985697031021118
1403638129065097000,-0.04359308257699013,0.012394646182656288,-0.08356233686208725,9.254591941833496,-0.3974927067756653,-4.042677402496338
1403638129070097000,-0.04151329770684242,0.015278711915016174,-0.09399672597646713,8.993762969970703,-0.38895678520202637,-3.9444005489349365
1403638129075097000,-0.0415385402739048,0.007099976763129234,-0.08425193279981613,9.092860221862793,-0.3162422776222229,-3.960611343383789
1403638129080097000,-0.04572134464979172,0.009209968149662018,-0.07310452312231064,8.897167205810547,-0.2913772165775299,-3.9936206340789795
1403638129085097000,-0.047802407294511795,-0.0019238106906414032,-0.06267964094877243,8.954157829284668,-0.24186736345291138,-4.043294906616211
1403638129090097000,-0.04709607735276222,0.004960197955369949,-0.054262809455394745,9.01839542388916,-0.25696316361427307,-4.149435997009277
1403638129095097000,-0.04152080416679382,0.010504622012376785,-0.041710615158081055,9.017814636230469,-0.30648723244667053,-4.148866176605225
1403638129100097000,-0.02888571470975876,0.018915293738245964,-0.0396522656083107,9.009904861450195,-0.22543467581272125,-4.132525444030762
1403638129105097000,-0.026090282946825027,0.028716331347823143,-0.03200104087591171,9.01059627532959,-0.013890067115426064,-4.100576877593994
1403638129110097000,-0.028910614550113678,0.028739018365740776,-0.029301829636096954,9.010986328125,0.2722930312156677,-4.101508140563965
1403638129115097000,-0.03870067372918129,0.03358960896730423,-0.009800553321838379,9.125304222106934,0.3701746463775635,-4.158886909484863
1403638129120097000,-0.04852285981178284,0.050315260887145996,0.0028840526938438416,9.133356094360352,0.4027571678161621,-4.174255847930908
1403638129125097000,-0.055474795401096344,0.055984146893024445,0.021011382341384888,9.1498384475708,0.33694785833358765,-4.010538101196289
1403638129130097000,-0.055440209805965424,0.06575118750333786,0.022356994450092316,9.157934188842773,0.39455699920654297,-3.9373362064361572
1403638129135097000,-0.06034836918115616,0.06281609833240509,0.022335149347782135,9.141298294067383,0.4105590581893921,-3.921548366546631
1403638129140097000,-0.0638548880815506,0.0717821791768074,0.009106870740652084,9.33738899230957,0.5081755518913269,-4.003158092498779
1403638129145097000,-0.06802752614021301,0.08365567028522491,0.005680680274963379,9.296636581420898,0.4027568995952606,-3.994576930999756
1403638129150097000,-0.06314932554960251,0.09505900740623474,0.0008181333541870117,9.394529342651367,0.15915128588676453,-4.018693923950195
1403638129155097000,-0.05400055646896362,0.10767567157745361,0.008431360125541687,9.353554725646973,-0.10982600599527359,-3.9859423637390137
1403638129160097000,-0.03160317242145538,0.11664681881666183,0.02940874919295311,9.124768257141113,-0.1426725834608078,-3.9208297729492188
1403638129165097000,-0.009272567927837372,0.11722234636545181,0.062237031757831573,8.993906021118164,-0.2328817993402481,-3.920722723007202
1403638129170097000,0.00812675803899765,0.10948585718870163,0.09432979673147202,9.124781608581543,-0.15962792932987213,-3.9532063007354736
1403638129175097000,0.024178847670555115,0.10952285677194595,0.12786942720413208,8.904407501220703,-0.004390652757138014,-3.921027421951294
1403638129180097000,0.03810298442840576,0.10120155662298203,0.1766166090965271,9.231315612792969,-0.028862884268164635,-4.01923942565918
1403638129185097000,0.060463741421699524,0.12146518379449844,0.211451917886734,9.295937538146973,-0.2160883992910385,-4.043557167053223
1403638129190097000,0.08634932339191437,0.1321006566286087,0.24211350083351135,9.442953109741211,-0.11045744270086288,-4.117342472076416
1403638129195097000,0.11006791889667511,0.1515827178955078,0.2700344920158386,9.304383277893066,0.06824922561645508,-4.068294525146484
1403638129200097000,0.12329617142677307,0.16765886545181274,0.295733243227005,9.44375228881836,0.39489296078681946,-4.059857368469238
1403638129205097000,0.12951931357383728,0.1857711523771286,0.3230220675468445,9.509421348571777,0.5750998854637146,-4.117038726806641
1403638129210097000,0.13299892842769623,0.20748275518417358,0.3566463887691498,9.648764610290527,0.6323034763336182,-4.141730308532715
1403638129215097000,0.13369107246398926,0.23195256292819977,0.38109707832336426,9.452099800109863,0.5683078765869141,-4.036069869995117
1403638129220097000,0.13093703985214233,0.23900623619556427,0.4111956059932709,9.541857719421387,0.5600928664207458,-3.9708542823791504
1403638129225097000,0.13085299730300903,0.2549866735935211,0.4441060721874237,9.517157554626465,0.5759958028793335,-4.0279717445373535
1403638129230097000,0.12871915102005005,0.26267144083976746,0.47683796286582947,9.640398979187012,0.4773261249065399,-4.134593486785889
1403638129235097000,0.1280544102191925,0.28432905673980713,0.513353705406189,9.632437705993652,0.3482469618320465,-4.134875774383545
1403638129240097000,0.13093161582946777,0.3067914545536041,0.54924076795578,9.641119003295898,0.19374647736549377,-4.151595592498779
1403638129245097000,0.14008218050003052,0.3264804184436798,0.5815690159797668,9.666289329528809,-0.018568985164165497,-4.1436357498168945
1403638129250097000,0.1471242904663086,0.3376074731349945,0.6132791042327881,9.756918907165527,-0.1331862360239029,-4.233853816986084
1403638129255097000,0.15558433532714844,0.36548346281051636,0.6433982253074646,9.75714111328125,-0.01857146807014942,-4.307399749755859
1403638129260097000,0.16196519136428833,0.38503143191337585,0.6797282099723816,9.831067085266113,-0.003227074397727847,-4.299131870269775
1403638129265097000,0.16270555555820465,0.41295525431632996,0.7008291482925415,9.905023574829102,-0.002316130790859461,-4.306785583496094
1403638129270097000,0.15929275751113892,0.43329882621765137,0.7220457792282104,9.774632453918457,-0.033672355115413666,-4.25014591217041
1403638129275097000,0.1565248817205429,0.45838847756385803,0.7430992722511292,9.840794563293457,-0.009195888414978981,-4.217185020446777
1403638129280097000,0.1551802009344101,0.4793151021003723,0.7607254981994629,9.758942604064941,-0.05087696760892868,-4.127486705780029
1403638129285097000,0.15102741122245789,0.4960812032222748,0.7761167287826538,9.734994888305664,0.02287428267300129,-4.1352949142456055
1403638129290097000,0.1448022872209549,0.5163193345069885,0.7944446802139282,9.64566707611084,0.03173765912652016,-4.07805061340332
1403638129295097000,0.1371380239725113,0.5428922176361084,0.8000797033309937,9.507204055786133,0.06528355181217194,-3.9798378944396973
1403638129300097000,0.12665976583957672,0.5450842380523682,0.8065932989120483,9.28667163848877,0.02449442818760872,-3.8498713970184326
1403638129305097000,0.11686567962169647,0.5464366674423218,0.805867075920105,9.303417205810547,0.06570170819759369,-3.784085512161255
1403638129310097000,0.10776416957378387,0.5444788336753845,0.8131418824195862,9.033811569213867,-0.17999397218227386,-3.695117950439453
1403638129315097000,0.10214497148990631,0.5410135984420776,0.8210243582725525,9.107802391052246,-0.31923168897628784,-3.694719076156616
1403638129320097000,0.10080321133136749,0.5413263440132141,0.8355440497398376,8.813724517822266,-0.5500502586364746,-3.5805604457855225
1403638129325097000,0.10711714625358582,0.5296949148178101,0.8442307710647583,8.78136157989502,-0.7731943130493164,-3.5474469661712646
1403638129330097000,0.11413851380348206,0.5185821056365967,0.8495403528213501,8.544012069702148,-1.020978569984436,-3.4484446048736572
1403638129335097000,0.12038634717464447,0.49895182251930237,0.8467914462089539,8.634065628051758,-1.1612722873687744,-3.4556941986083984
1403638129340097000,0.127346470952034,0.48369425535202026,0.8447585105895996,8.642196655273438,-1.3437511920928955,-3.3887341022491455
1403638129345097000,0.13214287161827087,0.4606291353702545,0.8404903411865234,9.001958847045898,-1.4333584308624268,-3.4617538452148438
1403638129350097000,0.14263543486595154,0.4467463791370392,0.8370192646980286,8.945053100585938,-1.5241957902908325,-3.321378469467163
1403638129355097000,0.1489381194114685,0.432697057723999,0.8325351476669312,9.035475730895996,-1.4087437391281128,-3.3140058517456055
1403638129360097000,0.15095281600952148,0.41867509484291077,0.8260819315910339,8.822935104370117,-1.352207064628601,-3.207667112350464
1403638129365097000,0.14870014786720276,0.38646024465560913,0.8137434720993042,8.855568885803223,-1.2367208003997803,-3.1592376232147217
1403638129370097000,0.14155641198158264,0.36040955781936646,0.783296525478363,8.781488418579102,-1.1295955181121826,-3.151590347290039
1403638129375097000,0.13442589342594147,0.32883700728416443,0.7471432089805603,8.854222297668457,-0.9484249949455261,-3.1359174251556396
1403638129380097000,0.11753994226455688,0.3008666932582855,0.7000789046287537,8.738884925842285,-0.8830558657646179,-3.218319892883301
1403638129385097000,0.10202516615390778,0.2659883201122284,0.6529501676559448,8.590811729431152,-0.8176296353340149,-3.0954766273498535
1403638129390097000,0.09000957012176514,0.22819079458713531,0.6065482497215271,8.53288459777832,-0.8251000642776489,-3.0295403003692627
1403638129395097000,0.07457226514816284,0.18473275005817413,0.5532036423683167,8.458873748779297,-0.9729638695716858,-3.020967483520508
1403638129400097000,0.05353543162345886,0.12522591650485992,0.504714846611023,8.482975006103516,-1.045859694480896,-2.9717555046081543
1403638129405097000,0.04021307826042175,0.08398327231407166,0.45919257402420044,8.490839958190918,-1.152451992034912,-2.8898024559020996
1403638129410097000,0.025552034378051758,0.04274882376194,0.41088661551475525,8.498756408691406,-1.3068491220474243,-2.9221928119659424
1403638129415097000,0.012989386916160583,-0.004038644023239613,0.3626578152179718,8.498358726501465,-1.4612020254135132,-2.946462631225586
1403638129420097000,0.004671066999435425,-0.04236096888780594,0.3165362775325775,8.473803520202637,-1.5908468961715698,-2.9297735691070557
1403638129425097000,0.009481176733970642,-0.08424734324216843,0.2829919755458832,8.555110931396484,-1.835452675819397,-2.953533887863159
1403638129430097000,0.010216869413852692,-0.12055956572294235,0.2285013198852539,8.579345703125,-1.8992607593536377,-2.8636739253997803
1403638129435097000,0.009574703872203827,-0.15686477720737457,0.18033434450626373,8.604698181152344,-1.8501650094985962,-2.9451215267181396
1403638129440097000,0.009611472487449646,-0.1826014369726181,0.137006014585495,8.686253547668457,-1.7938716411590576,-2.8553712368011475
1403638129445097000,0.011663593351840973,-0.21329037845134735,0.08604508638381958,8.571980476379395,-1.8665515184402466,-2.8633182048797607
1403638129450097000,0.015326961874961853,-0.25177696347236633,0.028881892561912537,8.694731712341309,-1.7284531593322754,-2.887340784072876
1403638129455097000,0.015360698103904724,-0.28670457005500793,-0.00597979873418808,8.621467590332031,-1.6400758028030396,-2.878532886505127
1403638129460097000,0.006248414516448975,-0.31266728043556213,-0.057144396007061005,8.859021186828613,-1.502541184425354,-3.0247316360473633
1403638129465097000,-0.001451633870601654,-0.3314991891384125,-0.10040996223688126,8.891915321350098,-1.5028181076049805,-3.0322823524475098
1403638129470097000,-0.007661923766136169,-0.35942599177360535,-0.14781451225280762,8.917208671569824,-1.551972508430481,-3.0887746810913086
1403638129475097000,-0.01040661334991455,-0.38602975010871887,-0.18992206454277039,8.794721603393555,-1.5432450771331787,-3.120676040649414
1403638129480097000,-0.01945778727531433,-0.4126775860786438,-0.22891175746917725,8.81978702545166,-1.4537837505340576,-3.20985746383667
1403638129485097000,-0.02578616887331009,-0.4371757507324219,-0.25600162148475647,8.648168563842773,-1.4537510871887207,-3.2586312294006348
1403638129490097000,-0.02506708726286888,-0.4581056237220764,-0.28272345662117004,8.893945693969727,-1.4292594194412231,-3.364316940307617
1403638129495097000,-0.027073875069618225,-0.4734453856945038,-0.3127816319465637,8.87780475616455,-1.5183589458465576,-3.371530532836914
1403638129500097000,-0.03115984797477722,-0.47980743646621704,-0.3441309630870819,8.992348670959473,-1.420366883277893,-3.4697985649108887
1403638129505097000,-0.030432306230068207,-0.47775107622146606,-0.38416025042533875,8.926640510559082,-1.485508918762207,-3.4280648231506348
1403638129510097000,-0.03319918364286423,-0.4805571138858795,-0.4120449721813202,9.13105297088623,-1.4127517938613892,-3.469045639038086
1403638129515097000,-0.032440684735774994,-0.47147488594055176,-0.4336302876472473,9.26221752166748,-1.437094807624817,-3.550780773162842
1403638129520097000,-0.030243679881095886,-0.46670210361480713,-0.45124104619026184,9.50825309753418,-1.4056390523910522,-3.6083264350891113
1403638129525097000,-0.03168186545372009,-0.45269715785980225,-0.46868088841438293,9.467747688293457,-1.503296971321106,-3.583317279815674
1403638129530097000,-0.03025837242603302,-0.44563814997673035,-0.4826115071773529,9.492372512817383,-1.4461286067962646,-3.6328165531158447
1403638129535097000,-0.02252420037984848,-0.44005104899406433,-0.4980666935443878,9.426644325256348,-1.3809776306152344,-3.6495654582977295
1403638129540097000,-0.01904291659593582,-0.43453946709632874,-0.5098780989646912,9.524774551391602,-1.2757201194763184,-3.691296100616455
1403638129545097000,-0.01902257278561592,-0.42752718925476074,-0.522985577583313,9.556841850280762,-1.0949151515960693,-3.741196870803833
1403638129550097000,-0.02109222114086151,-0.4204350411891937,-0.524947464466095,9.539774894714355,-0.8731128573417664,-3.783364772796631
1403638129555097000,-0.023934155702590942,-0.40782174468040466,-0.538844108581543,9.53902530670166,-0.7583422660827637,-3.8003296852111816
1403638129560097000,-0.03091192990541458,-0.3979988098144531,-0.5408782958984375,9.603473663330078,-0.5537264943122864,-3.8585264682769775
1403638129565097000,-0.04138483852148056,-0.3769286274909973,-0.5470525622367859,9.537165641784668,-0.42196163535118103,-3.900305986404419
1403638129570097000,-0.04772741347551346,-0.3593880236148834,-0.5477027893066406,9.430044174194336,-0.3395909368991852,-3.900953769683838
1403638129575097000,-0.060290589928627014,-0.3390258550643921,-0.5607740879058838,9.445910453796387,-0.34724289178848267,-3.9669454097747803
1403638129580097000,-0.07216010242700577,-0.3229108154773712,-0.5612668991088867,9.306493759155273,-0.3234071731567383,-3.9921987056732178
1403638129585097000,-0.07704954594373703,-0.3096425235271454,-0.5577759146690369,9.33108901977539,-0.3889176845550537,-4.017116069793701
1403638129590097000,-0.07985157519578934,-0.2935430407524109,-0.5452582836151123,9.241122245788574,-0.5852590799331665,-4.017035484313965
1403638129595097000,-0.07978828996419907,-0.2767833471298218,-0.5334368348121643,9.273605346679688,-0.6174945831298828,-3.992314577102661
1403638129600097000,-0.07908191531896591,-0.26979437470436096,-0.5097684264183044,9.224771499633789,-0.675663411617279,-3.9758880138397217
1403638129605097000,-0.07491110265254974,-0.2531464099884033,-0.4868113100528717,9.478468894958496,-0.7164285182952881,-4.049345016479492
1403638129610097000,-0.06931834667921066,-0.23504163324832916,-0.45399340987205505,9.527299880981445,-0.7075902223587036,-4.082212448120117
1403638129615097000,-0.06432943046092987,-0.1973308026790619,-0.4331340491771698,9.731067657470703,-0.6088088154792786,-4.189097881317139
1403638129620097000,-0.05320959910750389,-0.16448038816452026,-0.4018513560295105,9.559370040893555,-0.6416229009628296,-4.131805896759033
1403638129625097000,-0.045540936291217804,-0.14003372192382812,-0.3872479200363159,9.648977279663086,-0.510414183139801,-4.173156261444092
1403638129630097000,-0.04278002679347992,-0.11289436370134354,-0.3600213825702667,9.460457801818848,-0.2981829345226288,-4.14115047454834
1403638129635097000,-0.04558451473712921,-0.08712388575077057,-0.3327542841434479,9.509294509887695,-0.08594582229852676,-4.207170009613037
1403638129640097000,-0.05331145226955414,-0.05986206233501434,-0.30834630131721497,9.427092552185059,0.012245388701558113,-4.264799118041992
1403638129645097000,-0.058909326791763306,-0.02838774025440216,-0.2832314670085907,9.500792503356934,0.11009430140256882,-4.20741605758667
1403638129650097000,-0.06381344050168991,0.002324754372239113,-0.25598159432411194,9.271924018859863,0.11789362132549286,-4.142140865325928
1403638129655097000,-0.06802042573690414,0.01899298094213009,-0.22813013195991516,9.312697410583496,0.06085171550512314,-4.1422200202941895
1403638129660097000,-0.07084792107343674,0.039164334535598755,-0.19808357954025269,9.181806564331055,0.07735815644264221,-4.125916481018066
1403638129665097000,-0.07643637806177139,0.05732276290655136,-0.165300190448761,9.24748420715332,-0.004616782069206238,-4.150505065917969
1403638129670097000,-0.07364995032548904,0.08447270095348358,-0.13466641306877136,9.100374221801758,-0.19981704652309418,-4.084973335266113
1403638129675097000,-0.06663471460342407,0.09993739426136017,-0.10531630367040634,9.198473930358887,-0.2885152995586395,-4.133939743041992
1403638129680097000,-0.05685100331902504,0.12366890162229538,-0.0704011395573616,9.149295806884766,-0.3537387251853943,-4.125785827636719
1403638129685097000,-0.04497584328055382,0.140335351228714,-0.03211159259080887,9.222508430480957,-0.3704632818698883,-4.109311103820801
1403638129690097000,-0.03799779713153839,0.15768052637577057,-0.004180483520030975,9.19794750213623,-0.46806132793426514,-4.092842102050781
1403638129695097000,-0.024720996618270874,0.16888995468616486,0.02723594382405281,9.320327758789062,-0.4847397208213806,-4.0845160484313965
1403638129700097000,-0.015610486268997192,0.18916581571102142,0.04812817648053169,9.385675430297852,-0.4931075870990753,-4.002954006195068
1403638129705097000,-0.009334266185760498,0.19338105618953705,0.06974624842405319,9.402118682861328,-0.47731125354766846,-3.970508337020874
1403638129710097000,0.0004174560308456421,0.21010681986808777,0.08795894682407379,9.35306167602539,-0.33022743463516235,-3.970762014389038
1403638129715097000,0.005982294678688049,0.215033158659935,0.11024073511362076,9.271381378173828,-0.31486842036247253,-3.9463677406311035
1403638129720097000,0.01015850156545639,0.2219695895910263,0.1298156976699829,9.157254219055176,-0.3557145893573761,-3.9625484943389893
1403638129725097000,0.012953147292137146,0.21287108957767487,0.1487625241279602,9.07585334777832,-0.42909854650497437,-3.978963613510132
1403638129730097000,0.02061082422733307,0.2031061202287674,0.16060008108615875,9.043410301208496,-0.3396439552307129,-3.9384050369262695
1403638129735097000,0.02686069905757904,0.18281517922878265,0.1724272072315216,8.978018760681152,-0.3976101279258728,-3.9466464519500732
1403638129740097000,0.029680855572223663,0.16466042399406433,0.17380201816558838,9.059599876403809,-0.3810410499572754,-3.9627692699432373
1403638129745097000,0.03175368905067444,0.13887767493724823,0.18077903985977173,9.018921852111816,-0.48719149827957153,-3.9218318462371826
1403638129750097000,0.03803262859582901,0.1214391365647316,0.17379328608512878,9.133158683776855,-0.49503272771835327,-3.9297401905059814
1403638129755097000,0.040163278579711914,0.09350455552339554,0.16542556881904602,9.12485122680664,-0.5276630520820618,-3.8967931270599365
1403638129760097000,0.041548654437065125,0.06485504657030106,0.15353325009346008,9.320982933044434,-0.5528935790061951,-3.8637962341308594
1403638129765097000,0.04709845781326294,0.03757629543542862,0.14861232042312622,9.320869445800781,-0.6186530590057373,-3.8797976970672607
1403638129770097000,0.048486754298210144,0.01389823853969574,0.14090487360954285,9.59859561920166,-0.5939056873321533,-3.9120090007781982
1403638129775097000,0.04360722750425339,-0.010522411204874516,0.12703093886375427,9.492368698120117,-0.6430661082267761,-3.85456919670105
1403638129780097000,0.04363381862640381,-0.03488928824663162,0.11587147414684296,9.557873725891113,-0.5865785479545593,-3.8545219898223877
1403638129785097000,0.03867018222808838,-0.06283736974000931,0.10051989555358887,9.427345275878906,-0.5789163708686829,-3.854351758956909
1403638129790097000,0.037966907024383545,-0.08589792996644974,0.08376175165176392,9.517492294311523,-0.5137117505073547,-3.9278366565704346
1403638129795097000,0.03729605674743652,-0.10403720289468765,0.07055068761110306,9.337881088256836,-0.5378853678703308,-3.9768075942993164
1403638129800097000,0.04146230220794678,-0.12627020478248596,0.05377170443534851,9.3953218460083,-0.5707370638847351,-4.041793346405029
1403638129805097000,0.04425636678934097,-0.1499989628791809,0.026618991047143936,9.281072616577148,-0.6276191473007202,-4.01701545715332
1403638129810097000,0.048486292362213135,-0.18281905353069305,0.007169798016548157,9.33850383758545,-0.6199448108673096,-4.0332865715026855
1403638129815097000,0.04566888511180878,-0.20313769578933716,-0.008215241134166718,9.256901741027832,-0.5788975954055786,-3.9925050735473633
1403638129820097000,0.05054333806037903,-0.22822827100753784,-0.01734999567270279,9.371335983276367,-0.5706581473350525,-4.016785144805908
1403638129825097000,0.049882784485816956,-0.24566712975502014,-0.020055823028087616,9.40395736694336,-0.6351736187934875,-4.000072479248047
1403638129830097000,0.04706256091594696,-0.26729777455329895,-0.028494112193584442,9.63292121887207,-0.6434641480445862,-4.056919097900391
1403638129835097000,0.049891337752342224,-0.2715277373790741,-0.037595026195049286,9.706409454345703,-0.6514485478401184,-4.122084140777588
1403638129840097000,0.0477973073720932,-0.2756950855255127,-0.04732578992843628,9.820734024047852,-0.7005383968353271,-4.146312236785889
1403638129845097000,0.04499700665473938,-0.26445797085762024,-0.0551145002245903,9.877639770507812,-0.6094086766242981,-4.1953816413879395
1403638129850097000,0.05131559073925018,-0.2629969120025635,-0.05722919851541519,9.869647026062012,-0.6261261105537415,-4.195252895355225
1403638129855097000,0.04990416765213013,-0.25397229194641113,-0.06410417705774307,9.787796974182129,-0.5768654346466064,-4.228219032287598
1403638129860097000,0.05336169898509979,-0.251198947429657,-0.06202929466962814,9.795926094055176,-0.5685282945632935,-4.252938747406006
1403638129865097000,0.05200204253196716,-0.2491002231836319,-0.06203027814626694,9.779528617858887,-0.5028691291809082,-4.285869121551514
1403638129870097000,0.05125097930431366,-0.24840421974658966,-0.06137872487306595,9.820233345031738,-0.47033071517944336,-4.318706035614014
1403638129875097000,0.056888431310653687,-0.23721228539943695,-0.06352902948856354,9.942537307739258,-0.388430655002594,-4.375823020935059
1403638129880097000,0.04995526373386383,-0.23230227828025818,-0.06771182268857956,9.983171463012695,-0.24947720766067505,-4.416967868804932
1403638129885097000,0.04361619055271149,-0.21761716902256012,-0.06976925581693649,10.031925201416016,-0.1591562032699585,-4.474355220794678
1403638129890097000,0.04431437700986862,-0.20297972857952118,-0.07113773375749588,10.047956466674805,-0.20792868733406067,-4.498676300048828
1403638129895097000,0.03806987404823303,-0.18485797941684723,-0.08307983726263046,10.113325119018555,-0.1669195592403412,-4.498753547668457
1403638129900097000,0.032451093196868896,-0.16671909391880035,-0.08520976454019547,10.03955078125,-0.19977012276649475,-4.48243522644043
1403638129905097000,0.03039281815290451,-0.14990685880184174,-0.08588319271802902,10.096517562866211,-0.15878766775131226,-4.482540607452393
1403638129910097000,0.025438152253627777,-0.13390885293483734,-0.08935742825269699,10.047056198120117,-0.17490674555301666,-4.515311241149902
1403638129915097000,0.02825985848903656,-0.1122763380408287,-0.08857624977827072,10.095699310302734,-0.11788328737020493,-4.556219100952148
1403638129920097000,0.024141542613506317,-0.09485650807619095,-0.08436884731054306,9.899481773376465,-0.2156810462474823,-4.4907755851745605
1403638129925097000,0.027582518756389618,-0.07247817516326904,-0.08311600238084793,10.013760566711426,-0.2072826325893402,-4.490678787231445
1403638129930097000,0.026883535087108612,-0.048769496381282806,-0.07047321647405624,9.825700759887695,-0.24008268117904663,-4.417199611663818
1403638129935097000,0.03110014647245407,-0.02851652167737484,-0.04534626752138138,9.891085624694824,-0.18339866399765015,-4.44182014465332
1403638129940097000,0.033880993723869324,0.0021450743079185486,-0.029386311769485474,9.907120704650879,-0.24036459624767303,-4.384479999542236
1403638129945097000,0.03248819708824158,0.03153379261493683,-0.017445199191570282,10.062230110168457,-0.20776662230491638,-4.327426433563232
1403638129950097000,0.034599386155605316,0.06427940726280212,0.0069913193583488464,10.037461280822754,-0.28104251623153687,-4.278565406799316
1403638129955097000,0.04086717963218689,0.09988034516572952,0.02917391061782837,10.094545364379883,-0.2808101773262024,-4.335917949676514
1403638129960097000,0.04297616332769394,0.13892562687397003,0.05927777290344238,9.914960861206055,-0.2805821895599365,-4.319836139678955
1403638129965097000,0.047847211360931396,0.17102017998695374,0.09073609113693237,9.948053359985352,-0.28948917984962463,-4.344538688659668
1403638129970097000,0.05409619212150574,0.1974988728761673,0.12274888902902603,9.74424934387207,-0.22362494468688965,-4.352858066558838
1403638129975097000,0.06103307008743286,0.21704988181591034,0.14936015009880066,9.720118522644043,-0.20722922682762146,-4.426699161529541
1403638129980097000,0.06244438886642456,0.24143268167972565,0.17734840512275696,9.56493091583252,-0.14169515669345856,-4.410656452178955
1403638129985097000,0.0644988864660263,0.2505776584148407,0.20443260669708252,9.540730476379395,-0.03581478074193001,-4.451804161071777
1403638129990097000,0.06793212890625,0.270840585231781,0.23661762475967407,9.442696571350098,-0.06009979918599129,-4.427570343017578
1403638129995097000,0.07214595377445221,0.2827203869819641,0.25972646474838257,9.508105278015137,0.005380599293857813,-4.468506336212158
1403638130000097000,0.06799741089344025,0.2994595468044281,0.27854645252227783,9.557433128356934,0.029945706948637962,-4.419650077819824
1403638130005097000,0.07146444916725159,0.3176496922969818,0.2946517765522003,9.663702011108398,-0.0032031983137130737,-4.419759273529053
1403638130010097000,0.06800229847431183,0.3463127315044403,0.3002359867095947,9.737318992614746,-0.002612355398014188,-4.387014389038086
1403638130015097000,0.07014355063438416,0.3694096505641937,0.30652371048927307,9.73740291595459,0.03803825378417969,-4.337851047515869
1403638130020097000,0.06320907175540924,0.3910219073295593,0.29892435669898987,9.704668998718262,0.1525016725063324,-4.255836486816406
1403638130025097000,0.05264599621295929,0.40431371331214905,0.30601441860198975,9.54924201965332,0.08687414228916168,-4.174473285675049
1403638130030097000,0.04635410010814667,0.41332098841667175,0.3039758503437042,9.459491729736328,0.08708552271127701,-4.125548839569092
1403638130035097000,0.04288262128829956,0.4140556752681732,0.3124087154865265,9.206136703491211,-0.08484715223312378,-4.060694217681885
1403638130040097000,0.04571439325809479,0.40855374932289124,0.3222540318965912,9.100226402282715,-0.21583573520183563,-4.05267858505249
1403638130045097000,0.04569581151008606,0.38622987270355225,0.33276182413101196,8.994440078735352,-0.3305931091308594,-4.003944396972656
1403638130050097000,0.050582870841026306,0.3715466558933258,0.33068010210990906,9.08471965789795,-0.4047797620296478,-3.9954309463500977
1403638130055097000,0.058995068073272705,0.3540933430194855,0.33502131700515747,9.027708053588867,-0.5770424008369446,-3.937979221343994
1403638130060097000,0.06956017017364502,0.34436100721359253,0.3328324556350708,9.21610164642334,-0.6011437177658081,-3.98659348487854
1403638130065097000,0.0807960033416748,0.33888357877731323,0.33139103651046753,9.208085060119629,-0.6996457576751709,-3.9290056228637695
1403638130070097000,0.08774873614311218,0.3360781967639923,0.32439833879470825,9.290021896362305,-0.6422776579856873,-3.953566312789917
1403638130075097000,0.09473243355751038,0.3360629379749298,0.3153020441532135,9.191848754882812,-0.6667379140853882,-3.8390719890594482
1403638130080097000,0.10311870276927948,0.3374647796154022,0.299894779920578,9.257051467895508,-0.6178138852119446,-3.8144328594207764
1403638130085097000,0.10800148546695709,0.329070121049881,0.28952035307884216,9.077066421508789,-0.626072108745575,-3.7655179500579834
1403638130090097000,0.11354106664657593,0.317839115858078,0.2719700038433075,9.00333023071289,-0.5358631014823914,-3.7247681617736816
1403638130095097000,0.11000803112983704,0.30593106150627136,0.25800463557243347,8.856130599975586,-0.5686933994293213,-3.7083969116210938
1403638130100097000,0.11484368145465851,0.2765653431415558,0.24194929003715515,8.896893501281738,-0.5857980251312256,-3.70817232131958
1403638130105097000,0.11204883456230164,0.2520490884780884,0.22304612398147583,8.741837501525879,-0.6513111591339111,-3.6916725635528564
1403638130110097000,0.11204329133033752,0.22201573848724365,0.2104116976261139,8.864527702331543,-0.6758924722671509,-3.6832330226898193
1403638130115097000,0.11135022342205048,0.19333307445049286,0.2006482183933258,8.782959938049316,-0.7657684683799744,-3.6256327629089355
1403638130120097000,0.11339522898197174,0.16193290054798126,0.1907246708869934,9.003478050231934,-0.7905765175819397,-3.674424171447754
1403638130125097000,0.12039551138877869,0.14519943296909332,0.1796012818813324,8.978878021240234,-0.8146888017654419,-3.6006886959075928
1403638130130097000,0.1218007504940033,0.12073608487844467,0.16211962699890137,9.076675415039062,-0.7329185009002686,-3.5926718711853027
1403638130135097000,0.12250608205795288,0.10255200415849686,0.14250630140304565,9.035648345947266,-0.6506127715110779,-3.6090493202209473
1403638130140097000,0.12036530673503876,0.08306636661291122,0.12364382296800613,9.051916122436523,-0.6428906321525574,-3.5926520824432373
1403638130145097000,0.10988253355026245,0.07605694979429245,0.10057184100151062,9.06812572479248,-0.5688349604606628,-3.5844902992248535
1403638130150097000,0.10916709899902344,0.06492834538221359,0.07405629754066467,9.108965873718262,-0.6672097444534302,-3.616734027862549
1403638130155097000,0.1119832992553711,0.049610622227191925,0.05740927904844284,9.02729606628418,-0.7078051567077637,-3.6166086196899414
1403638130160097000,0.11407747864723206,0.029348934069275856,0.037138134241104126,9.068273544311523,-0.7489154934883118,-3.608280658721924
1403638130165097000,0.11548149585723877,0.019523760303854942,0.009181726723909378,9.166468620300293,-0.7570908665657043,-3.6648900508880615
1403638130170097000,0.11897686123847961,0.011153064668178558,-0.006111748516559601,9.182910919189453,-0.6920169591903687,-3.762906551361084
1403638130175097000,0.11896881461143494,0.007749028503894806,-0.02083124965429306,9.183059692382812,-0.6183314323425293,-3.7466156482696533
1403638130180097000,0.11624237895011902,-0.002692229114472866,-0.031977035105228424,9.076933860778809,-0.5529133677482605,-3.722074508666992
1403638130185097000,0.11347118020057678,-0.014649566262960434,-0.04092489928007126,9.166817665100098,-0.44636017084121704,-3.72222900390625
1403638130190097000,0.10708993673324585,-0.023085597902536392,-0.04869285970926285,9.085026741027832,-0.4385083019733429,-3.6979892253875732
1403638130195097000,0.10712705552577972,-0.021629847586154938,-0.058545127511024475,9.231709480285645,-0.4055623412132263,-3.7143537998199463
1403638130200097000,0.10575488209724426,-0.018071593716740608,-0.05845736712217331,9.23133373260498,-0.4866443872451782,-3.7059385776519775
1403638130205097000,0.10573497414588928,-0.01036014687269926,-0.06061587482690811,9.312861442565918,-0.4616363048553467,-3.7141644954681396
1403638130210097000,0.10153664648532867,-0.010403582826256752,-0.05363299697637558,9.174135208129883,-0.5187573432922363,-3.7060141563415527
1403638130215097000,0.10010954737663269,-0.006974819116294384,-0.044503577053546906,9.313132286071777,-0.5108731985092163,-3.7384731769561768
1403638130220097000,0.10218144953250885,0.007636129856109619,-0.01737362891435623,9.280308723449707,-0.6082314848899841,-3.7465758323669434
1403638130225097000,0.1070953905582428,0.020242301747202873,0.005586486309766769,9.411245346069336,-0.6979910135269165,-3.779170274734497
1403638130230097000,0.11479976773262024,0.029332736507058144,0.02934151329100132,9.272562026977539,-0.7711464166641235,-3.7545580863952637
1403638130235097000,0.1259361207485199,0.04607635736465454,0.050216175615787506,9.378616333007812,-0.7303746938705444,-3.811962604522705
1403638130240097000,0.1336125135421753,0.06482386589050293,0.06903820484876633,9.296602249145508,-0.6565712094306946,-3.787858724594116
1403638130245097000,0.13641123473644257,0.07876299321651459,0.08299169689416885,9.508885383605957,-0.47696682810783386,-3.8698878288269043
1403638130250097000,0.139192596077919,0.10741525143384933,0.1067342460155487,9.419032096862793,-0.362253338098526,-3.8863413333892822
1403638130255097000,0.14128324389457703,0.1367758959531784,0.1338595449924469,9.541576385498047,-0.2642137110233307,-3.9111766815185547
1403638130260097000,0.1349881887435913,0.16815386712551117,0.15062469244003296,9.418964385986328,-0.1984328031539917,-3.8461451530456543
1403638130265097000,0.1258867233991623,0.1933397799730301,0.16606688499450684,9.476375579833984,-0.01915639638900757,-3.8627922534942627
1403638130270097000,0.11394283175468445,0.2142133265733719,0.180733323097229,9.370074272155762,-0.011294505558907986,-3.863084077835083
1403638130275097000,0.10066068172454834,0.22949187457561493,0.19465312361717224,9.378233909606934,-0.05220840871334076,-3.88785457611084
1403638130280097000,0.08952811360359192,0.23927046358585358,0.21783259510993958,9.174195289611816,-0.16608181595802307,-3.806321620941162
1403638130285097000,0.08113996684551239,0.24353893101215363,0.23666003346443176,9.215258598327637,-0.24802155792713165,-3.7656452655792236
1403638130290097000,0.07830767333507538,0.2505216896533966,0.2603626847267151,9.158138275146484,-0.2887280285358429,-3.716773271560669
1403638130295097000,0.07695035636425018,0.25683480501174927,0.28908610343933105,9.207249641418457,-0.37082016468048096,-3.6514980792999268
1403638130300097000,0.07629173994064331,0.26387354731559753,0.309300035238266,9.215547561645508,-0.4929831027984619,-3.594071626663208
1403638130305097000,0.07418195903301239,0.2667553424835205,0.33443450927734375,9.216064453125,-0.5416796207427979,-3.5696449279785156
1403638130310097000,0.07139371335506439,0.2793917953968048,0.3604741096496582,9.175857543945312,-0.6642605662345886,-3.585996389389038
1403638130315097000,0.0784180611371994,0.294107586145401,0.3856947124004364,9.135411262512207,-0.7630438804626465,-3.5695431232452393
1403638130320097000,0.08052551746368408,0.30120304226875305,0.4053895175457001,9.046141624450684,-0.8287965655326843,-3.5450034141540527
1403638130325097000,0.09451854228973389,0.30127617716789246,0.4194681942462921,8.923701286315918,-0.9034650325775146,-3.4712955951690674
1403638130330097000,0.10150489211082458,0.29631325602531433,0.4200271964073181,8.923847198486328,-0.9447850584983826,-3.454728126525879
1403638130335097000,0.11333197355270386,0.2900102138519287,0.42424917221069336,8.997305870056152,-1.0438344478607178,-3.4134445190429688
1403638130340097000,0.12665656208992004,0.2879475951194763,0.4221349358558655,9.23404598236084,-0.9697601795196533,-3.462557792663574
1403638130345097000,0.135062113404274,0.29079893231391907,0.42423883080482483,9.250458717346191,-0.8801118731498718,-3.5200507640838623
1403638130350097000,0.13717149198055267,0.29355156421661377,0.4179411232471466,9.324051856994629,-0.691633403301239,-3.577519178390503
1403638130355097000,0.13293811678886414,0.28581997752189636,0.4109545946121216,9.029802322387695,-0.6508345007896423,-3.4958879947662354
1403638130360097000,0.1280193030834198,0.2689642310142517,0.3919388949871063,9.013511657714844,-0.5601034760475159,-3.5369794368743896
1403638130365097000,0.12024612724781036,0.2534991204738617,0.3646976053714752,8.77624225616455,-0.47006210684776306,-3.4718544483184814
1403638130370097000,0.11255618929862976,0.22830946743488312,0.3387870788574219,8.775871276855469,-0.3885870575904846,-3.4802684783935547
1403638130375097000,0.09922271966934204,0.20879195630550385,0.3143957853317261,8.522071838378906,-0.40503209829330444,-3.414928674697876
1403638130380097000,0.08800914883613586,0.1857822835445404,0.2892514169216156,8.562515258789062,-0.4697308838367462,-3.414720058441162
1403638130385097000,0.0831720232963562,0.1536090224981308,0.2613674998283386,8.406950950622559,-0.7564418911933899,-3.316056489944458
1403638130390097000,0.07968008518218994,0.12631146609783173,0.24100831151008606,8.55373477935791,-0.9690827131271362,-3.2581982612609863
1403638130395097000,0.08177110552787781,0.1061226949095726,0.22144007682800293,8.54538631439209,-1.3203219175338745,-3.126628875732422
1403638130400097000,0.09291228652000427,0.08809084445238113,0.20605000853538513,8.822657585144043,-1.515942096710205,-3.1014928817749023
1403638130405097000,0.10682718455791473,0.07844167202711105,0.19844955205917358,8.888137817382812,-1.6868363618850708,-3.0765509605407715
1403638130410097000,0.12360058724880219,0.07433442026376724,0.19280710816383362,9.059751510620117,-1.7442600727081299,-3.0845391750335693
1403638130415097000,0.1376209259033203,0.078450508415699,0.1885848045349121,9.019105911254883,-1.6456774473190308,-3.060257911682129
1403638130420097000,0.14667075872421265,0.07698904722929001,0.17872855067253113,9.101119041442871,-1.490710973739624,-3.0931265354156494
1403638130425097000,0.15574263036251068,0.07276162505149841,0.1689213067293167,8.913897514343262,-1.4253743886947632,-3.1502363681793213
1403638130430097000,0.15996971726417542,0.06776484102010727,0.15004819631576538,8.946967124938965,-1.2623833417892456,-3.264810085296631
1403638130435097000,0.15994137525558472,0.06636356562376022,0.12499620765447617,8.816534996032715,-1.1722469329833984,-3.2894365787506104
1403638130440097000,0.16487623751163483,0.05242118239402771,0.0950244814157486,8.767472267150879,-1.0091172456741333,-3.3957419395446777
1403638130445097000,0.16003474593162537,0.03917170315980911,0.055253710597753525,8.685685157775879,-0.8052169680595398,-3.46110200881958
1403638130450097000,0.15023447573184967,0.01891562156379223,0.024531446397304535,8.718120574951172,-0.6511398553848267,-3.5183165073394775
1403638130455097000,0.14120467007160187,0.004876071587204933,-0.01874919980764389,8.783121109008789,-0.6098224520683289,-3.5507495403289795
1403638130460097000,0.12093943357467651,-0.016017314046621323,-0.05573320388793945,8.791228294372559,-0.6422197818756104,-3.534281015396118
1403638130465097000,0.10768754780292511,-0.03271383419632912,-0.09191813319921494,8.815727233886719,-0.707374632358551,-3.476989984512329
1403638130470097000,0.0923779308795929,-0.05926898866891861,-0.12193196266889572,8.815522193908691,-0.716209888458252,-3.387138605117798
1403638130475097000,0.07274870574474335,-0.08585575968027115,-0.15544787049293518,8.946371078491211,-0.6918151378631592,-3.346040725708008
1403638130480097000,0.046159058809280396,-0.10330864787101746,-0.17779147624969482,9.14269733428955,-0.7981353998184204,-3.3456671237945557
1403638130485097000,0.032226525247097015,-0.10118059813976288,-0.20443561673164368,9.289849281311035,-0.8792542219161987,-3.3124914169311523
1403638130490097000,0.028762012720108032,-0.09483083337545395,-0.22754770517349243,9.355447769165039,-0.9934698939323425,-3.3120760917663574
1403638130495097000,0.030906856060028076,-0.08011845499277115,-0.2491914927959442,9.535717964172363,-1.1000937223434448,-3.3443443775177
1403638130500097000,0.022585809230804443,-0.08217409998178482,-0.25820329785346985,9.078542709350586,-1.1245001554489136,-3.2796590328216553
1403638130505097000,0.012731499969959259,-0.09411808103322983,-0.2643599808216095,8.792608261108398,-0.8306454420089722,-3.3294332027435303
1403638130510097000,0.004349023103713989,-0.09900815039873123,-0.23700520396232605,8.621288299560547,-0.7086909413337708,-3.4032347202301025
1403638130515097000,0.002290792763233185,-0.10101036727428436,-0.21827203035354614,8.891983032226562,-0.9700753688812256,-3.5418717861175537
1403638130520097000,0.00789634883403778,-0.10784649848937988,-0.21909794211387634,8.737245559692383,-1.3036047220230103,-3.484549045562744
1403638130525097000,0.008662968873977661,-0.11618547141551971,-0.23917829990386963,8.564470291137695,-0.8632636666297913,-3.419984817504883
1403638130530097000,0.014915920794010162,-0.12747789919376373,-0.21269720792770386,8.449061393737793,-0.5382400155067444,-3.363044500350952
1403638130535097000,0.003738977015018463,-0.12488854676485062,-0.1939866542816162,9.029017448425293,-0.546542227268219,-3.5425896644592285
1403638130540097000,-0.013745918869972229,-0.10875254124403,-0.19040191173553467,9.045921325683594,-0.7732993960380554,-3.55064058303833
1403638130545097000,-0.008785463869571686,-0.08906590938568115,-0.17006701231002808,9.021398544311523,-0.7308529019355774,-3.395901918411255
1403638130550097000,0.001706138253211975,-0.07161162793636322,-0.1423763632774353,8.914169311523438,-0.8038455843925476,-3.2244713306427
1403638130555097000,-0.0018085315823554993,-0.058427222073078156,-0.1333884298801422,9.30580997467041,-0.6745656132698059,-3.355149507522583
1403638130560097000,-0.008829452097415924,-0.03272075951099396,-0.12268953770399094,9.452753067016602,-0.5114132761955261,-3.4780924320220947
1403638130565097000,-0.019359935075044632,-0.0006318874657154083,-0.09913574904203415,9.452801704406738,-0.5024599432945251,-3.453935146331787
1403638130570097000,-0.02493845298886299,0.025952590629458427,-0.08665665239095688,9.297073364257812,-0.5664047598838806,-3.290475845336914
1403638130575097000,-0.03247448056936264,0.03924165666103363,-0.05912197381258011,9.387466430664062,-0.48514464497566223,-3.4457380771636963
1403638130580097000,-0.03818297013640404,0.07335091382265091,-0.024365641176700592,9.526987075805664,-0.5913177728652954,-3.6258203983306885
1403638130585097000,-0.036906834691762924,0.11590727418661118,0.00041053444147109985,9.567689895629883,-0.5992782115936279,-3.6099517345428467
1403638130590097000,-0.03468719869852066,0.14597342908382416,0.01597219705581665,9.37136173248291,-0.5016465783119202,-3.503800868988037
1403638130595097000,-0.03459249436855316,0.1676718294620514,0.03282533586025238,9.240761756896973,-0.3795146942138672,-3.544581174850464
1403638130600097000,-0.028354573994874954,0.18772870302200317,0.04326914995908737,9.077879905700684,-0.3523774743080139,-3.634660243988037
1403638130605097000,-0.024188939481973648,0.20222778618335724,0.04974979907274246,9.036712646484375,-0.393566757440567,-3.610546588897705
1403638130610097000,-0.019315168261528015,0.21906082332134247,0.052473198622465134,8.929789543151855,-0.3710666596889496,-3.520678997039795
1403638130615097000,-0.01505492627620697,0.21777354180812836,0.06476058065891266,8.978466987609863,-0.33040833473205566,-3.569422960281372
1403638130620097000,-0.012249551713466644,0.23235569894313812,0.07116010040044785,9.158103942871094,-0.21335554122924805,-3.6098508834838867
1403638130625097000,-0.009465053677558899,0.24139679968357086,0.08385611325502396,9.117045402526855,-0.18984806537628174,-3.544661521911621
1403638130630097000,-0.008050508797168732,0.25263550877571106,0.0949932187795639,9.100052833557129,-0.11796097457408905,-3.4551994800567627
1403638130635097000,-0.013002060353755951,0.25340864062309265,0.12155518680810928,8.944317817687988,-0.17422150075435638,-3.3002660274505615
1403638130640097000,-0.017236873507499695,0.24983568489551544,0.1390136033296585,9.091900825500488,-0.21283957362174988,-3.316420316696167
1403638130645097000,-0.01792425662279129,0.2505054771900177,0.16261808574199677,9.149351119995117,-0.36885151267051697,-3.291891098022461
1403638130650097000,-0.019280336797237396,0.25829264521598816,0.17858612537384033,9.378222465515137,-0.4032570719718933,-3.3247177600860596
1403638130655097000,-0.017184101045131683,0.2633315622806549,0.2058212161064148,9.329130172729492,-0.41989636421203613,-3.300337076187134
1403638130660097000,-0.008140936493873596,0.27728167176246643,0.23447349667549133,9.370439529418945,-0.5248841643333435,-3.3242740631103516
1403638130665097000,-0.002643689513206482,0.28290748596191406,0.2652525305747986,9.14233684539795,-0.7285239696502686,-3.258754014968872
1403638130670097000,0.011370450258255005,0.2899947762489319,0.2981691360473633,9.143378257751465,-0.8107156157493591,-3.291429281234741
1403638130675097000,0.030274376273155212,0.29707109928131104,0.3332267999649048,8.955946922302246,-0.852911114692688,-3.258805274963379
1403638130680097000,0.044857822358608246,0.29925113916397095,0.3673655688762665,9.062825202941895,-0.8374224901199341,-3.258657932281494
1403638130685097000,0.060194313526153564,0.3076810836791992,0.3968312442302704,8.801627159118652,-0.845439612865448,-3.1767923831939697
1403638130690097000,0.07206577062606812,0.31127700209617615,0.4241175353527069,8.736185073852539,-0.7139471173286438,-3.0625529289245605
1403638130695097000,0.0831846296787262,0.3155369460582733,0.4500660002231598,8.572446823120117,-0.7147704362869263,-2.9479212760925293
1403638130700097000,0.09019827842712402,0.3134198784828186,0.47456851601600647,8.735891342163086,-0.7399696111679077,-2.947632312774658
1403638130705097000,0.09508615732192993,0.31692272424697876,0.49357226490974426,8.679025650024414,-0.8137155771255493,-2.9144275188446045
1403638130710097000,0.10274356603622437,0.3240028917789459,0.5110049247741699,8.916474342346191,-0.8383670449256897,-2.9467272758483887
1403638130715097000,0.11045888066291809,0.33878588676452637,0.5236644148826599,8.79397964477539,-0.8225233554840088,-2.8481595516204834
1403638130720097000,0.11330507695674896,0.33114925026893616,0.5363399386405945,8.736917495727539,-0.8233535289764404,-2.8976612091064453
1403638130725097000,0.1174653172492981,0.3338527977466583,0.5462777018547058,8.630949974060059,-0.8804128170013428,-2.8726274967193604
1403638130730097000,0.123055100440979,0.31632354855537415,0.5576012134552002,8.418662071228027,-1.0123425722122192,-2.864187717437744
1403638130735097000,0.1328108161687851,0.2959689199924469,0.567357063293457,8.434995651245117,-1.0538690090179443,-2.8478105068206787
1403638130740097000,0.13980183005332947,0.2728782892227173,0.5763920545578003,8.516596794128418,-1.0380702018737793,-2.9794387817382812
1403638130745097000,0.15237313508987427,0.2518600523471832,0.5722078680992126,8.393959999084473,-1.0958616733551025,-2.9795846939086914
1403638130750097000,0.1628212183713913,0.22805573046207428,0.5693269968032837,8.385101318359375,-1.1036006212234497,-2.897597312927246
1403638130755097000,0.1704612672328949,0.20985941588878632,0.5516878962516785,8.368490219116211,-0.988415002822876,-2.832030773162842
1403638130760097000,0.168314129114151,0.18608197569847107,0.5332818031311035,8.531453132629395,-0.8651004433631897,-2.840820550918579
1403638130765097000,0.16403913497924805,0.17827309668064117,0.5072488784790039,8.75992202758789,-0.7077949643135071,-2.8821802139282227
1403638130770097000,0.1542370319366455,0.1706078201532364,0.4799029529094696,8.76799488067627,-0.740607500076294,-2.873948812484741
1403638130775097000,0.14304576814174652,0.17207561433315277,0.43931129574775696,8.726754188537598,-0.814578652381897,-2.8082289695739746
1403638130780097000,0.13467344641685486,0.1615699678659439,0.40233153104782104,8.554855346679688,-0.8802195191383362,-2.799961566925049
1403638130785097000,0.13113316893577576,0.15101855993270874,0.3638063073158264,8.64463996887207,-0.8385745286941528,-2.840824604034424
1403638130790097000,0.12485161423683167,0.13272212445735931,0.32749804854393005,8.513736724853516,-0.9369093179702759,-2.889728307723999
1403638130795097000,0.11649265885353088,0.12011682242155075,0.28491517901420593,8.57071590423584,-0.9282668828964233,-2.922538995742798
1403638130800097000,0.11093023419380188,0.10062374919652939,0.2528477609157562,8.350448608398438,-1.0179219245910645,-2.914048910140991
1403638130805097000,0.10816648602485657,0.0887390598654747,0.2276882529258728,8.334261894226074,-1.0088800191879272,-2.9630255699157715
1403638130810097000,0.10194067656993866,0.0754864364862442,0.21030676364898682,8.048532485961914,-0.9676157832145691,-2.9223265647888184
1403638130815097000,0.10056975483894348,0.06151670962572098,0.1900431215763092,8.056743621826172,-0.8289287686347961,-2.9632771015167236
1403638130820097000,0.09356929361820221,0.047540269792079926,0.1740093231201172,7.901483535766602,-0.8617929816246033,-2.946819305419922
1403638130825097000,0.09146739542484283,0.037078551948070526,0.15234509110450745,8.00731372833252,-0.8364309072494507,-2.9631752967834473
1403638130830097000,0.08944740891456604,0.03637852519750595,0.13843539357185364,7.843767166137695,-0.9255440831184387,-2.8654634952545166
1403638130835097000,0.09084522724151611,0.0336507111787796,0.13142365217208862,7.899991035461426,-0.9583370089530945,-2.80856990814209
1403638130840097000,0.09226065874099731,0.03925419598817825,0.1286027431488037,7.744407653808594,-0.9344765543937683,-2.743385076522827
1403638130845097000,0.09153398871421814,0.04133082926273346,0.13207006454467773,7.834136009216309,-0.8779555559158325,-2.7270147800445557
1403638130850097000,0.09084542095661163,0.053815312683582306,0.1349063515663147,7.760887622833252,-0.9588728547096252,-2.7350547313690186
1403638130855097000,0.08874362707138062,0.06152857095003128,0.1425129473209381,7.883646011352539,-1.0070704221725464,-2.7759411334991455
1403638130860097000,0.09087589383125305,0.07408884167671204,0.14324542880058289,7.769628524780273,-1.0888142585754395,-2.7352912425994873
1403638130865097000,0.09784995019435883,0.0803743377327919,0.1480928659439087,7.810550212860107,-0.9998644590377808,-2.7760021686553955
1403638130870097000,0.10483333468437195,0.08306976407766342,0.1530047059059143,7.65587043762207,-0.9754194617271423,-2.7350475788116455
1403638130875097000,0.10548493266105652,0.08516434580087662,0.1578570008277893,7.810715675354004,-0.8037433624267578,-2.7351510524749756
1403638130880097000,0.0984470546245575,0.09421629458665848,0.1585470736026764,7.86830997467041,-0.6236011981964111,-2.800440549850464
1403638130885097000,0.08166113495826721,0.10749311000108719,0.15497031807899475,8.006851196289062,-0.46852949261665344,-2.817227602005005
1403638130890097000,0.058611318469047546,0.1249721571803093,0.14935564994812012,8.055525779724121,-0.4351721405982971,-2.768695116043091
1403638130895097000,0.03418411314487457,0.14595447480678558,0.15290269255638123,8.06334114074707,-0.40233099460601807,-2.7446255683898926
1403638130900097000,0.008321046829223633,0.17527572810649872,0.14876943826675415,8.128511428833008,-0.40985313057899475,-2.736748456954956
1403638130905097000,-0.01612316071987152,0.1983274519443512,0.14463099837303162,8.120141983032227,-0.4999099671840668,-2.6719019412994385
1403638130910097000,-0.04401622712612152,0.23467610776424408,0.1377216875553131,8.153107643127441,-0.6380413174629211,-2.696504592895508
1403638130915097000,-0.0600983202457428,0.2605791985988617,0.13625402748584747,8.202239990234375,-0.7848841547966003,-2.647383689880371
1403638130920097000,-0.0705452710390091,0.296885222196579,0.13559865951538086,8.145459175109863,-0.8168085217475891,-2.655362606048584
1403638130925097000,-0.07610858231782913,0.32413238286972046,0.14201292395591736,7.94110107421875,-0.8250434398651123,-2.557295083999634
1403638130930097000,-0.08098483830690384,0.35068193078041077,0.1427406668663025,7.9083027839660645,-0.7678118944168091,-2.4997267723083496
1403638130935097000,-0.0928874984383583,0.36531755328178406,0.14631041884422302,7.671471118927002,-0.833115816116333,-2.4589784145355225
1403638130940097000,-0.10685255378484726,0.3820584714412689,0.1421559900045395,7.712524890899658,-0.7997248768806458,-2.507999897003174
1403638130945097000,-0.10894831269979477,0.4037824273109436,0.14559000730514526,7.589913368225098,-0.8657506108283997,-2.3689301013946533
1403638130950097000,-0.1138094887137413,0.4171413481235504,0.14275524020195007,7.69560432434082,-0.8004064559936523,-2.3606181144714355
1403638130955097000,-0.11527112871408463,0.43324562907218933,0.14698567986488342,7.56437349319458,-0.7680761814117432,-2.262453079223633
1403638130960097000,-0.123643659055233,0.45002010464668274,0.14494046568870544,7.580433368682861,-0.7273291349411011,-2.246114492416382
1403638130965097000,-0.1293112337589264,0.4597550332546234,0.15825040638446808,7.409176826477051,-0.8263682126998901,-2.1396312713623047
1403638130970097000,-0.13345256447792053,0.46337172389030457,0.1526123285293579,7.52419900894165,-0.9981127977371216,-2.114739179611206
1403638130975097000,-0.12992003560066223,0.46127787232398987,0.15532264113426208,7.451886177062988,-1.2599979639053345,-2.0570766925811768
1403638130980097000,-0.12228044122457504,0.45650437474250793,0.15949904918670654,7.583062171936035,-1.3505706787109375,-2.0155506134033203
1403638130985097000,-0.11888280510902405,0.4509040415287018,0.16643813252449036,7.452761173248291,-1.425285816192627,-1.9087978601455688
1403638130990097000,-0.1118822991847992,0.43922972679138184,0.17135071754455566,7.583558559417725,-1.4583622217178345,-1.8674724102020264
1403638130995097000,-0.10145562887191772,0.4302063286304474,0.17762480676174164,7.567788600921631,-1.5727976560592651,-1.7686545848846436
1403638131000097000,-0.09168175607919693,0.421918123960495,0.1865374743938446,7.698714256286621,-1.5651159286499023,-1.74362051486969
1403638131005097000,-0.08265845477581024,0.4212903678417206,0.19631853699684143,7.658414840698242,-1.5744805335998535,-1.6612942218780518
1403638131010097000,-0.07711710035800934,0.41154637932777405,0.19705906510353088,7.6990532875061035,-1.4685457944869995,-1.6944007873535156
1403638131015097000,-0.07368217408657074,0.39816591143608093,0.19706124067306519,7.560180187225342,-1.4277095794677734,-1.678338646888733
1403638131020097000,-0.06663266569375992,0.3736054003238678,0.19219371676445007,7.559689521789551,-1.379289150238037,-1.678749442100525
1403638131025097000,-0.06304895877838135,0.35530224442481995,0.18030475080013275,7.5349650382995605,-1.3951984643936157,-1.7365161180496216
1403638131030097000,-0.06655783951282501,0.33166125416755676,0.1648823320865631,7.705705165863037,-1.2970987558364868,-1.7943768501281738
1403638131035097000,-0.06725551187992096,0.3204686939716339,0.14606529474258423,7.6726179122924805,-1.1663352251052856,-1.770376443862915
1403638131040097000,-0.06721188127994537,0.2959609925746918,0.1300342082977295,7.597951412200928,-1.0114420652389526,-1.7058541774749756
1403638131045097000,-0.07623801380395889,0.27485957741737366,0.11129516363143921,7.458451747894287,-0.8715378046035767,-1.7065730094909668
1403638131050097000,-0.08663463592529297,0.24406327307224274,0.09462159872055054,7.3594489097595215,-0.8223460912704468,-1.609362244606018
1403638131055097000,-0.0984828844666481,0.2182113528251648,0.06808438897132874,7.42457389831543,-0.8208919763565063,-1.6588314771652222
1403638131060097000,-0.10265348106622696,0.19165514409542084,0.05135080963373184,7.334359645843506,-1.0242526531219482,-1.708429217338562
1403638131065097000,-0.10108277946710587,0.1707889884710312,0.0206216499209404,7.431715965270996,-1.1462875604629517,-1.7168389558792114
1403638131070097000,-0.10238008201122284,0.13937637209892273,0.0031656473875045776,7.390454292297363,-1.358483910560608,-1.7089935541152954
1403638131075097000,-0.09045972675085068,0.11066939681768417,-0.012826859951019287,7.390161514282227,-1.545446753501892,-1.7094491720199585
1403638131080097000,-0.071538545191288,0.07428749650716782,-0.017790310084819794,7.3410210609436035,-1.72466242313385,-1.7019925117492676
1403638131085097000,-0.05336533114314079,0.043654441833496094,-0.02479725331068039,7.529005527496338,-1.8149068355560303,-1.7585010528564453
1403638131090097000,-0.040795665234327316,0.013023784384131432,-0.028966039419174194,7.578022480010986,-1.888828992843628,-1.766450047492981
1403638131095097000,-0.03315042704343796,-0.016879210248589516,-0.03394085913896561,7.774725437164307,-1.7916691303253174,-1.8388718366622925
1403638131100097000,-0.026863377541303635,-0.048351503908634186,-0.03950528800487518,7.717418193817139,-1.7437398433685303,-1.8142324686050415
1403638131105097000,-0.026100561022758484,-0.07772870361804962,-0.04853600263595581,7.8562331199646,-1.589792251586914,-1.8134013414382935
1403638131110097000,-0.026061609387397766,-0.10502884536981583,-0.06039143353700638,7.782332420349121,-1.492411494255066,-1.7723575830459595
1403638131115097000,-0.02546410635113716,-0.1238897517323494,-0.06738760322332382,7.913562297821045,-1.361926794052124,-1.804748296737671
1403638131120097000,-0.03524111956357956,-0.14902041852474213,-0.07854091376066208,7.831453323364258,-1.2965525388717651,-1.7638278007507324
1403638131125097000,-0.035945579409599304,-0.16857172548770905,-0.09604992717504501,7.95432186126709,-1.23128342628479,-1.8450686931610107
1403638131130097000,-0.040810901671648026,-0.1965312957763672,-0.11067251116037369,7.7903642654418945,-1.2313064336776733,-1.8447799682617188
1403638131135097000,-0.045022882521152496,-0.2210177779197693,-0.12958219647407532,7.929362773895264,-1.289182186126709,-1.9094138145446777
1403638131140097000,-0.04427356272935867,-0.24546733498573303,-0.14986053109169006,7.896233558654785,-1.3215078115463257,-1.949289083480835
1403638131145097000,-0.04644428566098213,-0.2706190347671509,-0.16101029515266418,8.109881401062012,-1.289242148399353,-2.0707147121429443
1403638131150097000,-0.0436331182718277,-0.28956031799316406,-0.1841583251953125,8.207826614379883,-1.322110891342163,-2.078216791152954
1403638131155097000,-0.04291100054979324,-0.30639737844467163,-0.20590582489967346,8.404820442199707,-1.371321439743042,-2.183586835861206
1403638131160097000,-0.042182013392448425,-0.319729745388031,-0.2268347144126892,8.486741065979004,-1.4850918054580688,-2.2156295776367188
1403638131165097000,-0.035187363624572754,-0.3345057964324951,-0.2465057373046875,8.625870704650879,-1.4937251806259155,-2.223424196243286
1403638131170097000,-0.03164683282375336,-0.3394536077976227,-0.2702181935310364,8.675052642822266,-1.3874320983886719,-2.2312965393066406
1403638131175097000,-0.026136070489883423,-0.3485443890094757,-0.28550755977630615,8.757317543029785,-1.2412067651748657,-2.304572343826294
1403638131180097000,-0.03526054695248604,-0.35343092679977417,-0.30163583159446716,8.732858657836914,-1.1511789560317993,-2.3534178733825684
1403638131185097000,-0.04155654460191727,-0.3589704632759094,-0.31488755345344543,8.69990062713623,-1.0368375778198242,-2.3697052001953125
1403638131190097000,-0.04928608238697052,-0.36665207147598267,-0.32805371284484863,8.593274116516113,-0.8734464049339294,-2.401989698410034
1403638131195097000,-0.05908771976828575,-0.3812789022922516,-0.32880473136901855,8.462175369262695,-0.8661385774612427,-2.450742244720459
1403638131200097000,-0.06957893818616867,-0.38825318217277527,-0.33855387568473816,8.527427673339844,-0.7435300946235657,-2.4914979934692383
1403638131205097000,-0.07588539272546768,-0.4050304889678955,-0.3398609459400177,8.527599334716797,-0.8420354723930359,-2.5236427783966064
1403638131210097000,-0.07444657385349274,-0.4135148227214813,-0.353200227022171,8.69951343536377,-0.8744844198226929,-2.564232587814331
1403638131215097000,-0.07580644637346268,-0.41840022802352905,-0.35398921370506287,8.716078758239746,-0.9801545143127441,-2.5885047912597656
1403638131220097000,-0.06947524845600128,-0.41915735602378845,-0.35259395837783813,8.863770484924316,-0.9715918898582458,-2.6295347213745117
1403638131225097000,-0.06255444884300232,-0.4135531783103943,-0.337259978055954,8.823023796081543,-0.946384847164154,-2.6625325679779053
1403638131230097000,-0.05419386178255081,-0.40165379643440247,-0.3288666903972626,8.897082328796387,-0.8395779132843018,-2.712315082550049
1403638131235097000,-0.04576292634010315,-0.3981578052043915,-0.31904035806655884,8.823559761047363,-0.8800077438354492,-2.753258228302002
1403638131240097000,-0.04023435711860657,-0.3848728537559509,-0.30646392703056335,8.938465118408203,-0.8139085173606873,-2.8274476528167725
1403638131245097000,-0.03609580919146538,-0.38412612676620483,-0.2869531512260437,8.840301513671875,-0.8219891786575317,-2.819701910018921
1403638131250097000,-0.02770945057272911,-0.3687756359577179,-0.27439427375793457,8.98764419555664,-0.806232750415802,-2.8694376945495605
1403638131255097000,-0.022824272513389587,-0.35051822662353516,-0.2520088851451874,8.91372013092041,-0.8387438058853149,-2.886176824569702
1403638131260097000,-0.015890944749116898,-0.33719977736473083,-0.2310703992843628,9.044631958007812,-0.6915335059165955,-2.8951826095581055
1403638131265097000,-0.011699065566062927,-0.32043784856796265,-0.20940953493118286,8.946481704711914,-0.6668649911880493,-2.8956549167633057
1403638131270097000,-0.010323546826839447,-0.2995060980319977,-0.1842380166053772,9.110044479370117,-0.6266224980354309,-2.937077760696411
1403638131275097000,-0.008937761187553406,-0.2785295248031616,-0.1717378795146942,9.02816390991211,-0.6262515783309937,-2.9700379371643066
1403638131280097000,-0.0026235803961753845,-0.2589455246925354,-0.151542067527771,9.183565139770508,-0.6017544269561768,-3.060237407684326
1403638131285097000,0.006445959210395813,-0.23022961616516113,-0.133244127035141,9.027985572814941,-0.6905564069747925,-3.076707124710083
1403638131290097000,0.012042194604873657,-0.21701180934906006,-0.1193375512957573,9.134096145629883,-0.6663546562194824,-3.101440906524658
1403638131295097000,0.018327437341213226,-0.20102855563163757,-0.10468641668558121,9.133916854858398,-0.6823329329490662,-3.1341588497161865
1403638131300097000,0.021082863211631775,-0.1898358017206192,-0.09005392342805862,9.272623062133789,-0.5189226865768433,-3.159053325653076
1403638131305097000,0.01897347718477249,-0.17594103515148163,-0.08105850964784622,9.182849884033203,-0.3793027997016907,-3.216496467590332
1403638131310097000,0.01970890909433365,-0.1633337289094925,-0.05932687968015671,9.133716583251953,-0.24110503494739532,-3.200568914413452
1403638131315097000,0.004311218857765198,-0.1500249207019806,-0.048807092010974884,9.060232162475586,-0.1100957989692688,-3.225346565246582
1403638131320097000,-0.009715788066387177,-0.1430395543575287,-0.03702535480260849,9.02779483795166,-0.028896544128656387,-3.3236544132232666
1403638131325097000,-0.02575179934501648,-0.12424881756305695,-0.03207901865243912,9.06839656829834,-0.01280300971120596,-3.348332643508911
1403638131330097000,-0.03972453251481056,-0.11306697875261307,-0.018881015479564667,9.03544807434082,-0.1684075891971588,-3.340266466140747
1403638131335097000,-0.05084654688835144,-0.09003213047981262,-0.01544361561536789,9.01058292388916,-0.29829660058021545,-3.307586193084717
1403638131340097000,-0.054314836859703064,-0.07044216990470886,-0.002111859619617462,8.99397087097168,-0.3553939461708069,-3.2424354553222656
1403638131345097000,-0.056423693895339966,-0.04813653975725174,0.011835120618343353,8.961295127868652,-0.453471839427948,-3.2507779598236084
1403638131350097000,-0.05920643359422684,-0.02862926945090294,0.03272642195224762,8.92841911315918,-0.5838645696640015,-3.234511613845825
1403638131355097000,-0.056325219571590424,3.21362167596817e-05,0.05092442408204079,8.969367980957031,-0.6072741150856018,-3.201972246170044
1403638131360097000,-0.05497909337282181,0.01610947586596012,0.07458923757076263,8.879922866821289,-0.7215152382850647,-3.242748737335205
1403638131365097000,-0.0528726726770401,0.02934212051331997,0.09406758844852448,8.839393615722656,-0.7130897045135498,-3.259180784225464
1403638131370097000,-0.04938274621963501,0.03004915826022625,0.11715871840715408,8.64365291595459,-0.7622697949409485,-3.2348973751068115
1403638131375097000,-0.04733528196811676,0.030675405636429787,0.13178154826164246,8.741669654846191,-0.7295255661010742,-3.2186639308929443
1403638131380097000,-0.04596006125211716,0.02927485667169094,0.14293867349624634,8.58653736114502,-0.7868582606315613,-3.169668674468994
1403638131385097000,-0.04312940686941147,0.02723572589457035,0.15825322270393372,8.77446460723877,-0.7546125650405884,-3.169832944869995
1403638131390097000,-0.038969025015830994,0.02515767328441143,0.16380545496940613,8.717076301574707,-0.8201208114624023,-3.11260986328125
1403638131395097000,-0.02708304673433304,0.027924267575144768,0.1651453971862793,8.929108619689941,-0.8201834559440613,-3.128932476043701
1403638131400097000,-0.024948306381702423,0.03279634565114975,0.1631162166595459,8.953357696533203,-0.8042335510253906,-3.071733236312866
1403638131405097000,-0.026334218680858612,0.04610035568475723,0.15537460148334503,9.198474884033203,-0.7232158184051514,-3.1287598609924316
1403638131410097000,-0.027021147310733795,0.0580076202750206,0.1393713355064392,9.149391174316406,-0.7065438032150269,-3.1286942958831787
1403638131415097000,-0.0332852303981781,0.07338802516460419,0.12269266694784164,9.264113426208496,-0.6815705895423889,-3.2348129749298096
1403638131420097000,-0.0346817672252655,0.0866406187415123,0.10107060521841049,9.109030723571777,-0.6324067711830139,-3.161390542984009
1403638131425097000,-0.04516395181417465,0.08874083310365677,0.0787673145532608,9.1502046585083,-0.5677469968795776,-3.2021496295928955
1403638131430097000,-0.051515065133571625,0.08868046849966049,0.052374422550201416,9.076664924621582,-0.5101048946380615,-3.1857123374938965
1403638131435097000,-0.06408737599849701,0.08937480300664902,0.03144952654838562,9.060603141784668,-0.38756316900253296,-3.234869956970215
1403638131440097000,-0.0766291469335556,0.08939892798662186,-0.010383203625679016,8.978846549987793,-0.3960491716861725,-3.2020761966705322
1403638131445097000,-0.0829017162322998,0.07898464053869247,-0.03893691301345825,8.954413414001465,-0.37221524119377136,-3.2263097763061523
1403638131450097000,-0.09617215394973755,0.06921375542879105,-0.0745004341006279,8.889113426208496,-0.2825246751308441,-3.193568229675293
1403638131455097000,-0.10592161864042282,0.0517110675573349,-0.10244382172822952,8.856399536132812,-0.2263721525669098,-3.2015411853790283
1403638131460097000,-0.11846776306629181,0.0398116260766983,-0.13649824261665344,8.692679405212402,-0.24311472475528717,-3.127833127975464
1403638131465097000,-0.13379770517349243,0.020387819036841393,-0.15113955736160278,8.545183181762695,-0.30899178981781006,-3.062455177307129
1403638131470097000,-0.1428547352552414,0.006458239629864693,-0.15813371539115906,8.471430778503418,-0.40671291947364807,-2.9806387424468994
1403638131475097000,-0.15051564574241638,-0.017962388694286346,-0.1524735987186432,8.39758586883545,-0.5943717956542969,-2.898900032043457
1403638131480097000,-0.15404941141605377,-0.031964607536792755,-0.14551019668579102,8.52027416229248,-0.7166382074356079,-2.841536521911621
1403638131485097000,-0.14848007261753082,-0.04656990244984627,-0.12747937440872192,8.528604507446289,-0.9535536766052246,-2.8412721157073975
1403638131490097000,-0.13866794109344482,-0.055630117654800415,-0.11286657303571701,8.61081314086914,-1.0756441354751587,-2.8165221214294434
1403638131495097000,-0.12124021351337433,-0.05348024517297745,-0.07869850844144821,8.529546737670898,-1.196999430656433,-2.8002939224243164
1403638131500097000,-0.09533971548080444,-0.05905812233686447,-0.05365670472383499,8.521903991699219,-1.2374807596206665,-2.808546304702759
1403638131505097000,-0.07653044909238815,-0.0695444718003273,-0.0216284841299057,8.497761726379395,-1.2701845169067383,-2.808724880218506
1403638131510097000,-0.05703958868980408,-0.08077491074800491,-0.0034717656672000885,8.637212753295898,-1.1806141138076782,-2.9064486026763916
1403638131515097000,-0.03394303098320961,-0.08641581982374191,0.01951466128230095,8.579840660095215,-1.123579740524292,-2.8495802879333496
1403638131520097000,-0.01648198440670967,-0.09409385174512863,0.03621813654899597,8.783931732177734,-0.9360489845275879,-2.914854049682617
1403638131525097000,-0.010229043662548065,-0.0989271029829979,0.051583100110292435,8.702149391174316,-0.7973452806472778,-2.906944751739502
1403638131530097000,-0.001865103840827942,-0.10662408173084259,0.0599096417427063,8.832629203796387,-0.5935378074645996,-2.8991332054138184
1403638131535097000,0.0008379966020584106,-0.1109296903014183,0.0675932914018631,8.840714454650879,-0.5038915872573853,-2.899282217025757
1403638131540097000,-0.0005473196506500244,-0.11020580679178238,0.07109696418046951,9.028590202331543,-0.3730648159980774,-3.0542678833007812
1403638131545097000,-0.005376994609832764,-0.10176698118448257,0.07040239870548248,8.995867729187012,-0.2830027937889099,-3.038161516189575
1403638131550097000,-0.012415975332260132,-0.09334604442119598,0.06271039694547653,9.085653305053711,-0.17711471021175385,-3.1197755336761475
1403638131555097000,-0.017343662679195404,-0.08917482197284698,0.053693272173404694,8.922127723693848,-0.19343988597393036,-3.1196491718292236
1403638131560097000,-0.02077416330575943,-0.08993099629878998,0.04467815160751343,8.938241958618164,-0.21788042783737183,-3.1359972953796387
1403638131565097000,-0.02498708665370941,-0.09765756875276566,0.03219234198331833,8.750373840332031,-0.2253720611333847,-3.1195712089538574
1403638131570097000,-0.023623164743185043,-0.1130637675523758,0.02451527863740921,8.832122802734375,-0.24201638996601105,-3.1519277095794678
1403638131575097000,-0.021494649350643158,-0.12564095854759216,0.007741313427686691,8.848149299621582,-0.33206382393836975,-3.102694034576416
1403638131580097000,-0.02569863200187683,-0.13890618085861206,-0.0034636780619621277,8.98696517944336,-0.36505332589149475,-3.110595226287842
