#timestamp [ns],w_RS_S_x [rad s^-1],w_RS_S_y [rad s^-1],w_RS_S_z [rad s^-1],a_RS_S_x [m s^-2],a_RS_S_y [m s^-2],a_RS_S_z [m s^-2]
1403638127270097000,-0.010471975511965976,0.01117010721276371,0.06562437987498679,8.956740333333332,0.08172208333333333,-3.930832208333333
1403638127275097000,-0.012566370614359173,0.0153588974175501,0.059341194567807204,9.095667875,0.04903325,-3.947176625
1403638127280097000,-0.01117010721276371,0.0153588974175501,0.059341194567807204,9.07115125,-0.04086104166666667,-3.955348833333333
1403638127285097000,-0.011868238913561441,0.021642082724729686,0.04817108735504349,9.201906583333333,-0.08989429166666667,-3.9962098749999995
1403638127290097000,-0.01117010721276371,0.02722713633111154,0.050963614158234416,9.005773583333333,-0.16344416666666667,-3.947176625
1403638127295097000,-0.006283185307179587,0.03420845333908886,0.05305800926062762,8.964912541666667,-0.17978858333333333,-3.930832208333333
1403638127300097000,-0.006981317007977318,0.030019663134302467,0.05864306286700947,8.7279185,-0.196133,-3.87362675
1403638127305097000,-0.006981317007977318,0.019547687622336492,0.0614355896702004,8.77695175,-0.17978858333333333,-3.87362675
1403638127310097000,-0.013962634015954637,0.01117010721276371,0.06771877497737998,8.695229666666666,-0.24516625,-3.8491101249999997
1403638127315097000,-0.014660765716752367,0.010471975511965976,0.07330382858376185,8.842329416666665,-0.26151066666666667,-3.898143375
1403638127320097000,-0.014660765716752367,0.00767944870877505,0.08447393579652555,8.858673833333333,-0.4004382083333333,-3.8654545416666664
1403638127325097000,-0.008377580409572781,0.013962634015954637,0.09285151620609833,9.087495666666666,-0.392266,-3.92266
1403638127330097000,0.0020943951023931952,0.016755160819145562,0.10471975511965977,8.964912541666667,-0.43312704166666666,-3.97169325
1403638127335097000,0.017453292519943295,0.024434609527920613,0.11030480872604163,9.103840083333333,-0.34323275000000003,-3.97169325
1403638127340097000,0.01815142422074103,0.028623399732707,0.10471975511965977,8.891362666666666,-0.269682875,-3.930832208333333
1403638127345097000,0.020943951023931952,0.021642082724729686,0.10192722831646883,8.948568125,-0.04903325,-3.97169325
1403638127350097000,0.0153588974175501,0.016057029118347832,0.1054178868204575,8.825985,0.04903325,-3.955348833333333
1403638127355097000,0.010471975511965976,0.014660765716752367,0.10821041362364843,8.858673833333333,0.0980665,-3.9635210416666666
1403638127360097000,0.0020943951023931952,0.00767944870877505,0.1054178868204575,8.77695175,0.0980665,-3.92266
1403638127365097000,0.0,0.003490658503988659,0.10471975511965977,8.997601374999999,0.13892754166666665,-3.906315583333333
1403638127370097000,-0.004886921905584123,0.0020943951023931952,0.09704030641088471,8.981256958333333,0.06537766666666667,-3.9144877916666663
1403638127375097000,-0.009075712110370514,0.0013962634015954637,0.08587019919812101,9.1201845,0.08172208333333333,-3.92266
1403638127380097000,-0.009075712110370514,0.004886921905584123,0.0747000919853573,9.030290208333332,0.016344416666666667,-3.857282333333333
1403638127385097000,-0.004886921905584123,0.005585053606381855,0.06632251157578452,9.087495666666666,0.016344416666666667,-3.8654545416666664
1403638127390097000,-0.0041887902047863905,0.013264502315156905,0.060039326268604934,9.030290208333332,-0.016344416666666667,-3.906315583333333
1403638127395097000,-0.003490658503988659,0.014660765716752367,0.057246799465414,8.989429166666666,-0.016344416666666667,-3.9635210416666666
1403638127400097000,0.0006981317007977319,0.019547687622336492,0.04817108735504349,8.97308475,0.04903325,-3.97169325
1403638127405097000,-0.0027925268031909274,0.023736477827122883,0.04537856055185257,9.062979041666667,0.13075533333333333,-4.069759749999999
1403638127410097000,-0.005585053606381855,0.0307177948351002,0.05166174585903216,8.997601374999999,0.11441091666666667,-4.086104166666667
1403638127415097000,-0.010546907782554626,0.029670409858226776,0.052556611597537994,8.961848258972168,0.09131524711847305,-4.1338582038879395
1403638127420097000,-0.013331025838851929,0.0324430838227272,0.06022448092699051,8.831503868103027,0.0175953209400177,-4.019595146179199
1403638127425097000,-0.015411242842674255,0.026869911700487137,0.059528954327106476,8.896965026855469,-0.055994272232055664,-3.9951465129852295
1403638127430097000,-0.018912911415100098,0.031048299744725227,0.061605505645275116,8.831769943237305,-0.13768817484378815,-4.011380672454834
1403638127435097000,-0.011235043406486511,0.03385014086961746,0.07417181879281998,8.954384803771973,-0.18675778806209564,-4.027644157409668
1403638127440097000,-0.0035704076290130615,0.04152671620249748,0.07695724815130234,8.96267318725586,-0.2684513032436371,-4.052013397216797
1403638127445097000,0.0020245909690856934,0.04572023078799248,0.08255661278963089,9.085062980651855,-0.2440263330936432,-4.019369602203369
1403638127450097000,0.004823148250579834,0.05269526690244675,0.08047861605882645,9.109354972839355,-0.1623259335756302,-3.9948861598968506
1403638127455097000,0.011106804013252258,0.06035587191581726,0.08747083693742752,9.01956558227539,-0.09707706421613693,-3.89693546295166
1403638127460097000,0.011102721095085144,0.06591112166643143,0.09095995873212814,8.807411193847656,-0.10534075647592545,-3.8071014881134033
1403638127465097000,0.004833728075027466,0.0491684190928936,0.09515079110860825,8.815617561340332,-0.04819554090499878,-3.790912389755249
1403638127470097000,-0.006320536136627197,0.041499167680740356,0.09306126087903976,8.8563232421875,0.0008006900898180902,-3.782890796661377
1403638127475097000,-0.019573748111724854,0.0352243036031723,0.09235285967588425,8.897195816040039,-0.08910893648862839,-3.766575574874878
1403638127480097000,-0.023060470819473267,0.02614583820104599,0.08885888010263443,8.823955535888672,-0.2198863923549652,-3.6930654048919678
1403638127485097000,-0.017474085092544556,0.010801523923873901,0.08955981582403183,8.856889724731445,-0.3180060386657715,-3.65226674079895
1403638127490097000,-0.014682739973068237,0.00802222266793251,0.08118367940187454,8.922270774841309,-0.38336122035980225,-3.6686270236968994
1403638127495097000,-0.003528013825416565,0.0031394995748996735,0.08117701858282089,8.91429328918457,-0.43238526582717896,-3.7175779342651367
1403638127500097000,0.012518167495727539,0.01292942650616169,0.07350372523069382,9.044819831848145,-0.34235385060310364,-3.831838846206665
1403638127505097000,0.017398908734321594,0.014315124601125717,0.07699323445558548,8.963090896606445,-0.22788357734680176,-3.864440441131592
1403638127510097000,0.018790945410728455,0.008746332488954067,0.07141410559415817,9.052528381347656,-0.03155774623155594,-4.027770519256592
1403638127515097000,0.01598191261291504,0.016411496326327324,0.07978097349405289,9.003409385681152,0.025727516040205956,-4.08481502532959
1403638127520097000,0.011088743805885315,0.012913432903587818,0.0832686796784401,8.905383110046387,0.09929163008928299,-4.093021392822266
1403638127525097000,0.01179783046245575,0.010812594555318356,0.08745413273572922,8.848458290100098,0.017457321286201477,-4.011393070220947
1403638127530097000,0.009732842445373535,0.0031368397176265717,0.0756155475974083,8.807549476623535,0.09086927026510239,-3.8810110092163086
1403638127535097000,0.0006539076566696167,-0.006616316735744476,0.07491365820169449,8.921682357788086,0.15634769201278687,-4.0035505294799805
1403638127540097000,-0.01190115511417389,0.0031539369374513626,0.07701484113931656,9.019372940063477,0.1971675604581833,-4.003623962402344
1403638127545097000,-0.020972788333892822,0.000355646014213562,0.08676227182149887,8.970663070678711,0.0581633523106575,-3.962733507156372
1403638127550097000,-0.023050516843795776,0.008039088919758797,0.08536533266305923,9.07698917388916,-0.1462460458278656,-3.85657000541687
1403638127555097000,-0.0153876394033432,0.0010460000485181808,0.08675142377614975,8.922294616699219,-0.3342500627040863,-3.774811029434204
1403638127560097000,-3.14861536026001e-05,0.012943416833877563,0.07210708409547806,9.199789047241211,-0.3668757379055023,-3.8646278381347656
1403638127565097000,0.012519344687461853,0.018511150032281876,0.06094282120466232,9.028304100036621,-0.2850017845630646,-3.864501714706421
1403638127570097000,0.014601022005081177,0.026877347379922867,0.05326694995164871,8.937993049621582,-0.064174585044384,-3.9542555809020996
1403638127575097000,0.012496352195739746,0.018483102321624756,0.06442118436098099,8.758513450622559,-0.023369109258055687,-3.9542438983917236
1403638127580097000,0.004121318459510803,0.013592838309705257,0.07349056750535965,8.72585678100586,0.00926832016557455,-3.9624462127685547
1403638127585097000,-0.0007604360580444336,0.001734936609864235,0.08185461908578873,8.758780479431152,-0.08883745968341827,-3.9787697792053223
1403638127590097000,-0.004247650504112244,0.0045470744371414185,0.0776728168129921,8.930018424987793,-0.039719659835100174,-4.052297115325928
1403638127595097000,-0.007032990455627441,0.00035528093576431274,0.08604102581739426,8.90576457977295,-0.13790027797222137,-3.9951584339141846
1403638127600097000,-0.000743672251701355,0.006654536351561546,0.07977245002985,9.101584434509277,-0.13785362243652344,-4.036001682281494
1403638127605097000,0.0006497353315353394,0.008038094267249107,0.08326122909784317,8.995565414428711,-0.16242866218090057,-3.962498188018799
1403638127610097000,0.009022966027259827,0.017811652272939682,0.08466295152902603,9.077199935913086,-0.18694697320461273,-3.962433338165283
1403638127615097000,0.014596953988075256,0.019885247573256493,0.0902482345700264,8.913899421691895,-0.097040556371212,-3.9378790855407715
1403638127620097000,0.020183846354484558,0.027570903301239014,0.08468041568994522,9.027971267700195,-0.015262104570865631,-3.9705638885498047
1403638127625097000,0.015294134616851807,0.02686072327196598,0.0790962502360344,8.872740745544434,0.04195423051714897,-3.9461114406585693
1403638127630097000,0.00830717384815216,0.03035896271467209,0.0714256688952446,8.945785522460938,0.16465820372104645,-4.035966396331787
1403638127635097000,-0.0021523386240005493,0.02407011017203331,0.06863365322351456,8.831467628479004,0.1890547126531601,-3.9626383781433105
1403638127640097000,-0.00911666452884674,0.021992933005094528,0.061669714748859406,8.978163719177246,0.23810161650180817,-3.9872548580169678
1403638127645097000,-0.013992056250572205,0.01779509335756302,0.06304781883955002,8.872407913208008,0.08274400979280472,-3.8892383575439453
1403638127650097000,-0.018862232565879822,0.012933824211359024,0.05467171221971512,9.060201644897461,-0.02342701144516468,-3.9382429122924805
1403638127655097000,-0.016788408160209656,0.015719130635261536,0.05255114287137985,8.970722198486328,-0.20314191281795502,-3.9462413787841797
1403638127660097000,-0.013991177082061768,0.018518971279263496,0.04487808793783188,9.0360689163208,-0.2766871154308319,-3.9299168586730957
1403638127665097000,-0.005634084343910217,0.028960470110177994,0.05185035616159439,8.8729248046875,-0.2848900556564331,-3.880772590637207
1403638127670097000,-0.0007508844137191772,0.030367936939001083,0.05883725732564926,8.978887557983398,-0.17861835658550262,-3.954245090484619
1403638127675097000,0.0020274966955184937,0.03733323886990547,0.06999567896127701,8.913680076599121,-0.20316623151302338,-3.9541287422180176
1403638127680097000,-0.009823441505432129,0.03524423763155937,0.07279395312070847,8.978768348693848,-0.12149869650602341,-3.95424485206604
1403638127685097000,-0.01054471731185913,0.03731493651866913,0.08532736450433731,8.79954719543457,-0.29316332936286926,-3.9459025859832764
1403638127690097000,-0.006350815296173096,0.03523620590567589,0.09440735727548599,8.930230140686035,-0.31776100397109985,-3.9295902252197266
1403638127695097000,0.001315787434577942,0.03311546891927719,0.10417511314153671,8.74265193939209,-0.358711838722229,-3.8886592388153076
1403638127700097000,0.008305862545967102,0.02336685173213482,0.10139618068933487,8.86512279510498,-0.2769514322280884,-3.905093193054199
1403638127705097000,0.015287518501281738,0.019862204790115356,0.10489652305841446,8.750814437866211,-0.1789001226425171,-3.8805956840515137
1403638127710097000,0.015309646725654602,0.008706873282790184,0.10003256052732468,8.799790382385254,-0.08907388895750046,-3.8154726028442383
1403638127715097000,0.004858806729316711,0.0010379236191511154,0.0944579467177391,8.840551376342773,-0.06462297588586807,-3.766646146774292
1403638127720097000,0.0041644275188446045,0.0003605782985687256,0.09446210414171219,9.036260604858398,0.05802337825298309,-3.8810698986053467
1403638127725097000,0.000676766037940979,0.009434632956981659,0.09236752241849899,9.10960865020752,0.03351515159010887,-3.889207124710083
1403638127730097000,-0.0048911720514297485,0.019905464723706245,0.09028621762990952,9.26441764831543,0.08251481503248215,-3.905594825744629
1403638127735097000,-0.004219353199005127,0.02547522448003292,0.08817379921674728,9.052273750305176,0.017249956727027893,-3.889108896255493
1403638127740097000,-0.0007271319627761841,0.022694146260619164,0.07910283654928207,9.10942554473877,-0.007192045450210571,-3.9217700958251953
1403638127745097000,-0.0007484257221221924,0.026867013424634933,0.07141215354204178,8.921600341796875,0.0010993242030963302,-3.938002824783325
1403638127750097000,-0.004245534539222717,0.021983912214636803,0.06582251936197281,8.888846397399902,0.03386329114437103,-3.987001419067383
1403638127755097000,-0.002159029245376587,0.01987423002719879,0.060223035514354706,8.725749969482422,-0.04785674810409546,-3.9542765617370605
1403638127760097000,-0.00286141037940979,0.014309399761259556,0.058829404413700104,8.823603630065918,0.0012662381632253528,-4.035942554473877
1403638127765097000,-0.0035603195428848267,0.010120089165866375,0.06021963804960251,8.79105281829834,-0.031439900398254395,-4.035935401916504
1403638127770097000,-0.004240944981575012,0.00594978965818882,0.06721354275941849,8.970684051513672,-0.015156305395066738,-4.044193267822266
1403638127775097000,-0.00772431492805481,0.008741783909499645,0.07489181309938431,9.036008834838867,-0.03156570717692375,-4.03603982925415
1403638127780097000,-0.006323128938674927,0.01084190234541893,0.07837940007448196,9.134087562561035,-0.11333086341619492,-4.03602409362793
1403638127785097000,-0.007722795009613037,0.021294718608260155,0.07907577604055405,9.019818305969238,-0.1542404592037201,-3.9461584091186523
1403638127790097000,-0.00494210422039032,0.026873692870140076,0.08743981271982193,9.011804580688477,-0.2441607415676117,-3.94604754447937
1403638127795097000,-0.0028579533100128174,0.033835865557193756,0.09022719413042068,8.89755916595459,-0.268690288066864,-3.91329288482666
1403638127800097000,0.0006380677223205566,0.03105422668159008,0.09163101762533188,8.979193687438965,-0.24420441687107086,-3.9133334159851074
1403638127805097000,-6.096065044403076e-05,0.03173663094639778,0.09093517810106277,8.856703758239746,-0.19518014788627625,-3.8806703090667725
1403638127810097000,0.0013380497694015503,0.024059854447841644,0.09233374148607254,8.832268714904785,-0.1706887036561966,-3.872545003890991
1403638127815097000,0.003423035144805908,0.02474670670926571,0.09302463382482529,8.742509841918945,-0.18700939416885376,-3.8888044357299805
1403638127820097000,0.0055246055126190186,0.01778842695057392,0.10000833123922348,8.897651672363281,-0.16251905262470245,-3.9133589267730713
1403638127825097000,0.006227269768714905,0.021272879093885422,0.0930439755320549,8.856630325317383,-0.04808893799781799,-3.8971011638641357
1403638127830097000,0.004830479621887207,0.013601114973425865,0.09653457254171371,8.881061553955078,0.03366001322865486,-3.946150541305542
1403638127835097000,0.002744808793067932,0.01151727233082056,0.09514615684747696,8.978938102722168,0.07451886683702469,-3.9625632762908936
1403638127840097000,0.0020591765642166138,0.015018528327345848,0.08956969529390335,9.142098426818848,0.05818452686071396,-3.9870874881744385
1403638127845097000,-0.004929244518280029,0.026178661733865738,0.08258054405450821,9.076672554016113,0.0010544926626607776,-3.9869985580444336
1403638127850097000,-0.004927888512611389,0.027573037892580032,0.08676575869321823,9.084916114807129,-0.03168004751205444,-3.962493896484375
1403638127855097000,-0.0049391090869903564,0.0317540280520916,0.08326823264360428,9.003284454345703,-0.05612709000706673,-3.9705865383148193
1403638127860097000,-0.004237011075019836,0.028264984488487244,0.08536244183778763,8.995230674743652,-0.08069533854722977,-3.937953233718872
1403638127865097000,-0.0056342631578445435,0.03244544193148613,0.07978052645921707,8.929852485656738,-0.07251107692718506,-3.9134600162506104
1403638127870097000,-0.0035436153411865234,0.02475304715335369,0.07977084070444107,8.77507209777832,-0.1869768351316452,-3.848092555999756
1403638127875097000,0.0006462633609771729,0.020575501024723053,0.07000339776277542,8.799555778503418,-0.1787550449371338,-3.86445689201355
1403638127880097000,-4.813075065612793e-05,0.014303339645266533,0.07558950036764145,8.856695175170898,-0.13791897892951965,-3.8889970779418945
1403638127885097000,0.0013607591390609741,0.010829733684659004,0.07280965894460678,8.979110717773438,-0.11342892795801163,-3.889089345932007
1403638127890097000,0.002762123942375183,0.010136514902114868,0.08328216522932053,9.07712459564209,-0.10533900558948517,-3.889112710952759
1403638127895097000,0.0006656944751739502,0.017809180542826653,0.08258525282144547,9.076959609985352,-0.06444401293992996,-3.9054157733917236
1403638127900097000,-0.0028319060802459717,0.02129470556974411,0.08885546773672104,9.076937675476074,-0.08077258616685867,-3.9380040168762207
1403638127905097000,-0.001446753740310669,0.02757129818201065,0.08326863497495651,9.027865409851074,-0.07250034809112549,-3.970588207244873
1403638127910097000,0.0013224780559539795,0.02616874873638153,0.08604296296834946,8.929984092712402,-0.08055119961500168,-4.043946743011475
1403638127915097000,0.009005308151245117,0.031752631068229675,0.08117207139730453,8.954424858093262,-0.0642203688621521,-4.003139972686768
1403638127920097000,0.011804506182670593,0.019871044903993607,0.07908356934785843,8.750492095947266,-0.039814140647649765,-3.905259132385254
1403638127925097000,0.0062463730573654175,0.017116475850343704,0.07213162630796432,9.092991828918457,0.08279336988925934,-3.978951930999756
1403638127930097000,-0.005611404776573181,0.017799077555537224,0.07003635913133621,8.929708480834961,0.07450447976589203,-3.8647398948669434
1403638127935097000,-0.018181368708610535,0.021292779594659805,0.0686279907822609,8.994806289672852,0.0664253681898117,-3.9545109272003174
1403638127940097000,-0.022375360131263733,0.021266577765345573,0.07698117941617966,8.79924488067627,-0.08075915277004242,-3.856423854827881
1403638127945097000,-0.023070678114891052,0.01499229297041893,0.07767242938280106,8.832152366638184,-0.21970947086811066,-3.8319101333618164
1403638127950097000,-0.01191490888595581,0.005247533321380615,0.07905776053667068,8.963082313537598,-0.3586236536502838,-3.921710252761841
1403638127955097000,-0.002843990921974182,0.011533590033650398,0.07138753682374954,9.003862380981445,-0.342216432094574,-3.9379963874816895
1403638127960097000,0.006224691867828369,0.0143104437738657,0.06511098891496658,8.889625549316406,-0.33403292298316956,-3.888941526412964
1403638127965097000,0.010424107313156128,0.017112674191594124,0.06373576074838638,8.987239837646484,-0.12968367338180542,-3.9216673374176025
1403638127970097000,0.008325725793838501,0.01778600923717022,0.06792300194501877,8.791193008422852,-0.02349652163684368,-3.8808538913726807
1403638127975097000,0.0027318745851516724,0.01501584704965353,0.0679272934794426,8.962258338928223,0.11559121310710907,-4.044182300567627
1403638127980097000,-0.00494857132434845,0.013613715767860413,0.07280319184064865,8.913321495056152,0.09922036528587341,-4.0441813468933105
1403638127985097000,-0.007020696997642517,0.012224122881889343,0.07420540601015091,8.995089530944824,0.033743251115083694,-3.978943347930908
1403638127990097000,-0.01609739661216736,0.009426417760550976,0.07349006086587906,8.913583755493164,-0.06432507187128067,-3.9625847339630127
1403638127995097000,-0.016088396310806274,0.012222232297062874,0.07140433043241501,8.970681190490723,-0.06434712558984756,-3.9381296634674072
1403638128000097000,-0.012607097625732422,0.01569996401667595,0.07279286533594131,8.881013870239258,-0.12155316770076752,-3.905386447906494
1403638128005097000,-0.01189914345741272,0.02199471928179264,0.07350177317857742,9.044182777404785,-0.12157601863145828,-3.913577079772949
1403638128010097000,-0.009121224284172058,0.024781953543424606,0.0720955953001976,8.98708438873291,-0.15419256687164307,-3.946141481399536
1403638128015097000,-4.598498344421387e-05,0.027583027258515358,0.0686173364520073,9.084969520568848,-0.12146364897489548,-3.978783130645752
1403638128020097000,0.004836916923522949,0.02617058902978897,0.06094183772802353,8.88908576965332,-0.08879722654819489,-3.8971543312072754
1403638128025097000,0.0006652474403381348,0.01850273087620735,0.059559740126132965,8.937939643859863,0.0010369688970968127,-3.880984306335449
1403638128030097000,-0.004931747913360596,0.016389768570661545,0.05744723230600357,8.758316993713379,0.0010642766719684005,-3.889094352722168
1403638128035097000,-0.011900544166564941,0.008730396628379822,0.058853887021541595,8.880645751953125,0.06642719358205795,-3.9218881130218506
1403638128040097000,-0.016787782311439514,0.010826815851032734,0.06721673160791397,8.946122169494629,-0.03981048986315727,-3.9463038444519043
1403638128045097000,-0.018865451216697693,0.010838177055120468,0.07420290261507034,9.109464645385742,-0.0889405608177185,-3.9300336837768555
1403638128050097000,-0.014696180820465088,0.010136153548955917,0.07487969845533371,9.020063400268555,-0.30141139030456543,-3.9054157733917236
1403638128055097000,-0.008417949080467224,0.009448457509279251,0.07627474516630173,9.101790428161621,-0.3422833979129791,-3.9380710124969482
1403638128060097000,-0.00493369996547699,0.01640472188591957,0.07418457418680191,8.938514709472656,-0.317760705947876,-3.8644919395446777
1403638128065097000,0.000648006796836853,0.017802411690354347,0.07209501415491104,8.94656753540039,-0.2278035581111908,-3.9053006172180176
1403638128070097000,0.002736598253250122,0.01918189227581024,0.07767987996339798,8.832186698913574,-0.12975071370601654,-3.8971047401428223
1403638128075097000,0.004126310348510742,0.017784617841243744,0.08954577893018723,8.840264320373535,-0.023506013676524162,-3.9460906982421875
1403638128080097000,-0.0021692365407943726,0.015700168907642365,0.09302280098199844,8.913612365722656,0.01748521439731121,-4.076671600341797
1403638128085097000,-0.008436277508735657,0.01221354492008686,0.09721281379461288,8.962618827819824,0.0010403275955468416,-4.035935878753662
1403638128090097000,-0.01122426986694336,0.01709836535155773,0.09372515231370926,8.970727920532227,-0.023485569283366203,-4.0114521980285645
1403638128095097000,-0.013322815299034119,0.017099635675549507,0.09510698169469833,8.962708473205566,-0.12970982491970062,-4.019556522369385
1403638128100097000,-0.008442103862762451,0.023365559056401253,0.0874323919415474,8.832135200500488,-0.16238339245319366,-3.9623563289642334
1403638128105097000,0.0006462633609771729,0.016393490135669708,0.0888492539525032,8.881193161010742,-0.11344301700592041,-3.8971376419067383
1403638128110097000,0.001346677541732788,0.0150003582239151,0.08606118708848953,8.889334678649902,-0.09709290415048599,-3.8971660137176514
1403638128115097000,-3.314018249511719e-05,0.003147182986140251,0.08886083215475082,8.962912559509277,-0.0890161320567131,-3.864633321762085
1403638128120097000,-0.004217371344566345,0.0059443023055791855,0.08607154339551926,9.028060913085938,-0.048133037984371185,-3.8973302841186523
1403638128125097000,-0.005622595548629761,0.008730057626962662,0.09233703464269638,8.995625495910645,-0.20344668626785278,-3.864556074142456
1403638128130097000,-3.8683414459228516e-05,0.010821901261806488,0.0895516499876976,8.979308128356934,-0.18709424138069153,-3.848212957382202
1403638128135097000,0.0027420073747634888,0.008022330701351166,0.08884482830762863,8.88138484954834,-0.1788531094789505,-3.8889708518981934
1403638128140097000,0.004833579063415527,0.005944587290287018,0.08396206051111221,8.987337112426758,-0.08066707849502563,-3.9951443672180176
1403638128145097000,0.0020280778408050537,0.010822223499417305,0.09162632375955582,8.954647064208984,-0.08061940222978592,-4.0440287590026855
1403638128150097000,0.002029910683631897,0.018506474792957306,0.08953932672739029,9.093214988708496,-0.03969278931617737,-4.101159572601318
1403638128155097000,-0.0007812231779098511,0.024765174835920334,0.09510297328233719,8.872932434082031,-0.10506877303123474,-4.068378925323486
1403638128160097000,0.0020067542791366577,0.025459766387939453,0.0937112495303154,8.84022045135498,-0.056003693491220474,-4.076542854309082
1403638128165097000,-0.0007821619510650635,0.02265223115682602,0.09510558098554611,8.709657669067383,-0.07243674993515015,-4.0194196701049805
1403638128170097000,0.0027106553316116333,0.019187454134225845,0.09022551029920578,8.8729248046875,-0.0723470151424408,-4.076596736907959
1403638128175097000,0.001328885555267334,0.014989802613854408,0.093024842441082,8.799548149108887,-0.08884447067975998,-3.9705381393432617
1403638128180097000,0.002033546566963196,0.01291168574243784,0.09024790674448013,8.929975509643555,0.025601418688893318,-4.011467933654785
1403638128185097000,0.0020540058612823486,0.010815381072461605,0.08956224471330643,8.913785934448242,-0.023595385253429413,-3.880924940109253
1403638128190097000,0.002771049737930298,0.01013786531984806,0.08120075613260269,9.101523399353027,-0.04814530536532402,-3.8728690147399902
1403638128195097000,0.004162803292274475,0.013618562370538712,0.07910747081041336,9.011710166931152,-0.03995959088206291,-3.8401758670806885
1403638128200097000,0.001391083002090454,0.01432790607213974,0.06935622543096542,9.117605209350586,0.04173737391829491,-3.832169771194458
1403638128205097000,0.0020686835050582886,0.02059800550341606,0.06794404238462448,9.011458396911621,0.009152151644229889,-3.864678144454956
1403638128210097000,-0.0021057575941085815,0.020606903359293938,0.06376903504133224,9.109204292297363,0.07451959699392319,-3.881114959716797
1403638128215097000,-0.007703825831413269,0.026875518262386322,0.06235683709383011,8.994887351989746,0.033712003380060196,-3.8810150623321533
1403638128220097000,-0.00910937786102295,0.038741521537303925,0.06235498934984207,9.092565536499023,0.05834421142935753,-3.9788739681243896
1403638128225097000,-0.014019995927810669,0.04010988771915436,0.06440948694944382,8.81539249420166,-0.09690949320793152,-3.9378931522369385
1403638128230097000,-0.010535746812820435,0.030350755900144577,0.06440051645040512,8.840124130249023,-0.17858587205410004,-3.978686571121216
1403638128235097000,-0.011236831545829773,0.026142725721001625,0.06439100950956345,8.685199737548828,-0.24404464662075043,-3.929685592651367
1403638128240097000,-0.008440792560577393,0.019192105159163475,0.06649132817983627,8.848499298095703,-0.23583710193634033,-3.9868855476379395
1403638128245097000,-0.0035577714443206787,0.0177887212485075,0.07067940384149551,8.799626350402832,-0.25223278999328613,-3.9623632431030273
1403638128250097000,0.004825234413146973,0.012218747287988663,0.07278522104024887,8.88951301574707,-0.2359217256307602,-3.9542486667633057
1403638128255097000,0.006228893995285034,0.01222602091729641,0.07349299639463425,8.96290111541748,-0.18690629303455353,-3.9542901515960693
1403638128260097000,0.007634162902832031,0.010131701827049255,0.0776962861418724,8.987225532531738,-0.03984502702951431,-3.9462149143218994
1403638128265097000,0.00833253562450409,0.0157100148499012,0.07840275019407272,8.97890567779541,0.03370141610503197,-3.938070297241211
1403638128270097000,-0.002132505178451538,0.02059256285429001,0.08049318939447403,9.003288269042969,0.025499124079942703,-3.9299237728118896
1403638128275097000,-0.003528490662574768,0.024076571688055992,0.07909949868917465,8.962411880493164,0.04183565452694893,-3.9054431915283203
1403638128280097000,-0.0042256563901901245,0.030366268008947372,0.08048952370882034,9.093033790588379,-0.03985152766108513,-3.9461753368377686
1403638128285097000,-0.0035467296838760376,0.03873135894536972,0.07488957792520523,8.978800773620605,-0.1214594841003418,-3.962355136871338
1403638128290097000,-0.00493854284286499,0.02966829016804695,0.07209838181734085,9.011479377746582,-0.11327062547206879,-3.9869093894958496
1403638128295097000,-0.005648493766784668,0.03384203091263771,0.072788305580616,8.897164344787598,-0.09689825028181076,-3.9868509769439697
1403638128300097000,-0.00495794415473938,0.029625408351421356,0.0797559842467308,8.676957130432129,-0.1296854317188263,-3.9296603202819824
1403638128305097000,-0.002162352204322815,0.020566659048199654,0.07767007499933243,8.725895881652832,-0.06428366899490356,-3.9542274475097656
1403638128310097000,0.00063323974609375,0.012904617004096508,0.08325930684804916,8.823906898498535,-0.031594034284353256,-3.986926794052124
1403638128315097000,-0.0021555572748184204,0.017105259001255035,0.07697682827711105,8.938148498535156,-0.0887480154633522,-4.01957368850708
1403638128320097000,0.002042129635810852,0.014320315793156624,0.07280012220144272,8.987144470214844,-0.0806020200252533,-3.995142698287964
1403638128325097000,-0.00144292414188385,0.023388147354125977,0.07141583412885666,9.003190040588379,0.009278468787670135,-3.9788553714752197
1403638128330097000,0.0006506145000457764,0.02687576226890087,0.07769463211297989,9.02779483795166,-0.03979318588972092,-3.962475061416626
1403638128335097000,-0.0007409602403640747,0.03246203809976578,0.07281819730997086,9.09287166595459,0.009277665987610817,-3.9869863986968994
1403638128340097000,-0.004238814115524292,0.03593561798334122,0.0721086636185646,8.92969799041748,-0.03160133585333824,-3.929800033569336
1403638128345097000,-0.00910697877407074,0.03036244958639145,0.061648182570934296,8.970480918884277,-0.047974228858947754,-3.8890933990478516
1403638128350097000,-0.009113207459449768,0.021276628598570824,0.07001172751188278,8.840124130249023,-0.08072476089000702,-3.8564093112945557
1403638128355097000,-0.011203452944755554,0.028966933488845825,0.06931648403406143,8.986970901489258,-0.11338548362255096,-3.8890485763549805
1403638128360097000,-0.007019057869911194,0.02336987480521202,0.07419725507497787,8.864837646484375,-0.20336344838142395,-3.807352066040039
1403638128365097000,-0.004212662577629089,0.02060185931622982,0.06932622939348221,9.044371604919434,-0.17886267602443695,-3.823786497116089
1403638128370097000,-0.010511994361877441,0.018490564078092575,0.0727926567196846,8.881172180175781,-0.21967318654060364,-3.8563480377197266
1403638128375097000,-0.009103342890739441,0.019205233082175255,0.07210851460695267,9.036149978637695,-0.16249299049377441,-3.872758626937866
1403638128380097000,-0.007715508341789246,0.019885491579771042,0.07838507741689682,8.905620574951172,-0.1625288426876068,-3.8318750858306885
1403638128385097000,-0.0014410167932510376,0.021286072209477425,0.08117572218179703,8.946409225463867,-0.12161807715892792,-3.8889901638031006
1403638128390097000,-5.665421485900879e-05,0.024067379534244537,0.08535598963499069,8.8729248046875,-0.10524196922779083,-3.91340708732605
1403638128395097000,-0.0007566362619400024,0.021990856155753136,0.08256279677152634,9.003437995910645,-0.08062509447336197,-4.011385440826416
1403638128400097000,-0.0007684081792831421,0.02616206370294094,0.08743556588888168,8.872952461242676,-0.14601342380046844,-3.9867947101593018
1403638128405097000,-0.0007687658071517944,0.026169318705797195,0.09092751890420914,8.954483032226562,-0.0887700691819191,-4.035789489746094
1403638128410097000,-6.607174873352051e-05,0.0261471439152956,0.09302621334791183,8.783156394958496,-0.10524189472198486,-3.9215071201324463
1403638128415097000,0.006214961409568787,0.01708529330790043,0.09442494064569473,8.824047088623047,-0.07251137495040894,-3.9623565673828125
1403638128420097000,0.0027353912591934204,0.014994809404015541,0.08954798430204391,8.840307235717773,-0.04802994057536125,-3.9297850131988525
1403638128425097000,-0.0007419288158416748,0.009424450807273388,0.08955446630716324,8.946419715881348,-0.03172509744763374,-3.9298887252807617
1403638128430097000,-0.004232928156852722,0.008017685264348984,0.0902460440993309,8.848541259765625,-0.0807916447520256,-3.8890373706817627
1403638128435097000,-0.006312891840934753,0.004542479291558266,0.09095191210508347,8.979165077209473,-0.08085524290800095,-3.872810125350952
1403638128440097000,-0.0028233975172042847,0.011525239795446396,0.09095419198274612,9.052600860595703,-0.09719658643007278,-3.880937337875366
1403638128445097000,0.0034585148096084595,0.017114974558353424,0.08537716418504715,9.134162902832031,-0.0889739990234375,-3.91357421875
1403638128450097000,0.0034470856189727783,0.0268710870295763,0.07769700139760971,8.987130165100098,-0.08889536559581757,-3.8889975547790527
1403638128455097000,-0.0042275190353393555,0.023384079337120056,0.07420500367879868,8.987020492553711,-0.056182872503995895,-3.913548469543457
1403638128460097000,-0.009829908609390259,0.026862747967243195,0.07419092208147049,8.88889217376709,-0.007057769689708948,-3.9787940979003906
1403638128465097000,-0.009837538003921509,0.019185001030564308,0.08045642822980881,8.848320960998535,-0.08059932291507721,-4.00322961807251
1403638128470097000,-0.013326108455657959,0.02197447419166565,0.08324827998876572,8.856431007385254,-0.07245098799467087,-3.995072603225708
1403638128475097000,-0.009137630462646484,0.01568615436553955,0.09580235928297043,8.807843208312988,-0.22785349190235138,-3.929696559906006
1403638128480097000,-0.0021581649780273438,0.011503947898745537,0.09092036634683609,8.816170692443848,-0.30141934752464294,-3.913377046585083
1403638128485097000,0.0034362226724624634,0.012212323024868965,0.08744675666093826,8.905939102172852,-0.26058468222618103,-3.8807742595672607
1403638128490097000,0.006226241588592529,0.01291634514927864,0.07837744802236557,8.92208194732666,-0.1623997539281845,-3.94610595703125
1403638128495097000,0.0076271891593933105,0.00873652659356594,0.08117400854825974,8.98738956451416,-0.1297292411327362,-3.962480068206787
1403638128500097000,0.007623553276062012,0.018499718979001045,0.0853729322552681,9.003376960754395,0.03375456854701042,-3.9951395988464355
1403638128505097000,0.0034313201904296875,0.020585549995303154,0.0916488841176033,8.962535858154297,0.050080806016922,-3.99511981010437
1403638128510097000,-0.002844199538230896,0.02826070785522461,0.08467786759138107,8.970476150512695,0.0827580988407135,-3.970686435699463
1403638128515097000,-0.00773186981678009,0.02336413413286209,0.08327341824769974,8.831788063049316,0.058212123811244965,-3.9298810958862305
1403638128520097000,-0.007025584578514099,0.026169657707214355,0.07420536130666733,8.937861442565918,0.017404019832611084,-3.93805193901062
1403638128525097000,-0.009111166000366211,0.019886430352926254,0.06931676715612411,8.880900382995605,-0.06436216086149216,-3.872765064239502
1403638128530097000,-0.00840623676776886,0.015718011185526848,0.0665266141295433,9.01975154876709,-0.12154863774776459,-3.9054512977600098
1403638128535097000,-0.0056260377168655396,0.014314522966742516,0.0714014545083046,8.946418762207031,-0.15422776341438293,-3.913541555404663
1403638128540097000,-0.004232659935951233,0.020600399002432823,0.07000783830881119,9.011595726013184,-0.12966498732566833,-3.9543309211730957
1403638128545097000,-0.00283929705619812,0.024076854810118675,0.07489246875047684,8.930041313171387,-0.1460724174976349,-3.8971402645111084
1403638128550097000,-0.007022365927696228,0.022692471742630005,0.07210219651460648,9.019716262817383,-0.1215246170759201,-3.9461729526519775
1403638128555097000,-0.004250228404998779,0.021977990865707397,0.07557431608438492,8.856595993041992,-0.15417182445526123,-3.9623842239379883
1403638128560097000,0.000646635890007019,0.019897688180208206,0.07628806680440903,8.978991508483887,-0.09699426591396332,-3.962459087371826
1403638128565097000,0.0020389556884765625,0.023370880633592606,0.0769825205206871,8.856664657592773,-0.15424863994121552,-3.897087335586548
1403638128570097000,-0.002132236957550049,0.01850033923983574,0.08118214458227158,8.995348930358887,-0.08893917500972748,-3.897219181060791
1403638128575097000,0.0006513148546218872,0.021277906373143196,0.07838907092809677,8.864706993103027,-0.06439326703548431,-3.8808438777923584
1403638128580097000,-4.088878631591797e-05,0.017099399119615555,0.0790921226143837,8.929971694946289,-0.02353770285844803,-3.8972384929656982
1403638128585097000,-0.006327405571937561,0.01709265075623989,0.07977532595396042,8.872939109802246,-0.12160208821296692,-3.889009714126587
1403638128590097000,-3.507733345031738e-05,0.01152758114039898,0.0867675170302391,9.052538871765137,-0.056267935782670975,-3.9217543601989746
1403638128595097000,-0.0007475465536117554,0.019195465371012688,0.08745012432336807,8.979156494140625,-0.162467360496521,-3.9216110706329346
1403638128600097000,0.00273895263671875,0.023385632783174515,0.08954571932554245,9.03621768951416,-0.12156783789396286,-3.96240234375
1403638128605097000,0.0013440996408462524,0.029650887474417686,0.0818755105137825,8.89735221862793,-0.09706807881593704,-3.888935089111328
1403638128610097000,-5.0708651542663574e-05,0.024775264784693718,0.07769117504358292,8.946188926696777,-0.023454392328858376,-3.9461495876312256
1403638128615097000,-0.002155900001525879,0.02825646661221981,0.07419579476118088,8.864426612854004,0.009290955029428005,-3.9706053733825684
1403638128620097000,-0.004246711730957031,0.025464802980422974,0.07908084243535995,8.872642517089844,0.009255687706172466,-3.9624648094177246
1403638128625097000,-0.006336197257041931,0.021971706300973892,0.07489500194787979,8.81549072265625,0.017398471012711525,-3.929861307144165
1403638128630097000,-0.009125739336013794,0.017795898020267487,0.07628151029348373,8.897299766540527,-0.08882132172584534,-3.9543230533599854
1403638128635097000,-0.011907234787940979,0.018501248210668564,0.0651177242398262,8.938125610351562,-0.16236667335033417,-3.921705722808838
1403638128640097000,-0.011204048991203308,0.011512145400047302,0.06512167304754257,8.840211868286133,-0.12157032638788223,-3.8646092414855957
1403638128645097000,-0.012603342533111572,0.0073305536061525345,0.06790471822023392,8.873011589050293,-0.19512100517749786,-3.889085292816162
1403638128650097000,-0.01260368525981903,0.0024579744786024094,0.0748806968331337,8.971044540405273,-0.21148382127285004,-3.9380946159362793
1403638128655097000,-0.00842215120792389,0.010129230096936226,0.08046185225248337,8.971148490905762,-0.28507962822914124,-3.905353546142578
1403638128660097000,-0.0021446794271469116,0.011509349569678307,0.08883959800004959,8.88143253326416,-0.26879462599754333,-3.856294870376587
1403638128665097000,-0.002139538526535034,0.012910803779959679,0.08745109289884567,8.930257797241211,-0.17070674896240234,-3.880833864212036
1403638128670097000,-0.004237130284309387,0.005934722721576691,0.09860610216856003,8.95485782623291,-0.2034323811531067,-3.91347599029541
1403638128675097000,-0.005621850490570068,0.007343124598264694,0.09931179136037827,9.10983657836914,-0.15442964434623718,-3.9380431175231934
1403638128680097000,-0.009811446070671082,0.005230601876974106,0.10559172183275223,8.946646690368652,-0.17084495723247528,-3.8482069969177246
1403638128685097000,-0.010504305362701416,0.001741735264658928,0.10559611767530441,8.946670532226562,-0.16270415484905243,-3.8237555027008057
1403638128690097000,-0.016795635223388672,-0.006638661026954651,0.11255652457475662,8.87325668334961,-0.20354598760604858,-3.872697114944458
1403638128695097000,-0.016085952520370483,-0.01779446378350258,0.11535540968179703,8.946809768676758,-0.1872778683900833,-3.8483128547668457
1403638128700097000,-0.011203020811080933,-0.017800599336624146,0.11884755641222,8.906027793884277,-0.17911362648010254,-3.8319382667541504
1403638128705097000,-0.011201098561286926,-0.011503353714942932,0.1195414587855339,9.109930992126465,-0.08099645376205444,-3.9462950229644775
1403638128710097000,-0.004934236407279968,-0.002440309152007103,0.11325923353433609,8.99563217163086,-0.09722097963094711,-3.9543333053588867
1403638128715097000,-0.002831757068634033,0.0038526952266693115,0.10350402444601059,9.17496395111084,0.0009200707427226007,-4.027883052825928
1403638128720097000,-0.0007650405168533325,0.013603703118860722,0.09652956575155258,8.938006401062012,0.11548095941543579,-4.035977840423584
1403638128725097000,-0.007058486342430115,0.015001250430941582,0.09375413507223129,8.97846508026123,0.2871796190738678,-4.109569549560547
1403638128730097000,-0.01125645637512207,0.01777922920882702,0.0944313183426857,8.815302848815918,0.20545892417430878,-4.084974765777588
1403638128735097000,-0.013334870338439941,0.01848793402314186,0.08397232741117477,8.896821022033691,0.19728539884090424,-4.060567378997803
1403638128740097000,-0.019605427980422974,0.01778344437479973,0.07768509536981583,8.815238952636719,0.12366703897714615,-3.9871232509613037
1403638128745097000,-0.025176525115966797,0.00593310222029686,0.06651481240987778,8.847947120666504,0.06648319959640503,-3.9871978759765625
1403638128750097000,-0.029360711574554443,0.0024316757917404175,0.06510157138109207,8.750267028808594,-0.08882234990596771,-3.929988145828247
1403638128755097000,-0.030738607048988342,-0.0038197599351406097,0.06859704107046127,8.979055404663086,-0.21147191524505615,-3.930083990097046
1403638128760097000,-0.027956143021583557,0.003145843744277954,0.07277869433164597,8.905689239501953,-0.27687549591064453,-3.8891584873199463
1403638128765097000,-0.01818929612636566,0.0052485279738903046,0.0741763785481453,8.979228019714355,-0.285041868686676,-3.9217758178710938
1403638128770097000,-0.007040083408355713,0.019909333437681198,0.0790572240948677,9.068933486938477,-0.2685925364494324,-4.0277299880981445
1403638128775097000,0.0027103573083877563,0.03315631300210953,0.07835648208856583,8.995349884033203,-0.21124811470508575,-4.076528072357178
1403638128780097000,0.010361477732658386,0.038721080869436264,0.07625357061624527,8.823875427246094,-0.16209082305431366,-4.12537145614624
1403638128785097000,0.009668931365013123,0.0345240980386734,0.07138866931200027,8.717376708984375,0.058495573699474335,-4.076563835144043
1403638128790097000,-0.0007973313331604004,0.02755437046289444,0.06512968987226486,8.733253479003906,0.26275038719177246,-4.0768280029296875
1403638128795097000,-0.013341352343559265,0.024071399122476578,0.06792659312486649,8.831212043762207,0.2463444322347641,-4.060592174530029
1403638128800097000,-0.02448815107345581,0.024766311049461365,0.05953612178564072,8.815009117126465,0.09104151278734207,-3.9952714443206787
1403638128805097000,-0.037023335695266724,0.007320488803088665,0.05673668533563614,8.79089069366455,-0.0725136324763298,-3.889248847961426
1403638128810097000,-0.03911396861076355,0.0003495551645755768,0.06021525710821152,8.840270042419434,-0.2850269675254822,-3.864736557006836
1403638128815097000,-0.03006035089492798,-0.0017303414642810822,0.06857415288686752,8.91409683227539,-0.4730395972728729,-3.9381768703460693
1403638128820097000,-0.02377641201019287,0.0017649512737989426,0.07137367874383926,8.987563133239746,-0.45672300457954407,-3.9218273162841797
1403638128825097000,-0.02377539873123169,-0.00034112483263015747,0.08044993132352829,8.938651084899902,-0.4731786251068115,-3.8483262062072754
1403638128830097000,-0.018189236521720886,0.001756172627210617,0.09232296794652939,9.020299911499023,-0.4487711489200592,-3.80747127532959
1403638128835097000,-0.012631431221961975,0.011530477553606033,0.11532822996377945,9.077430725097656,-0.48966410756111145,-3.9297568798065186
1403638128840097000,-0.00774817168712616,0.017789512872695923,0.12719988822937012,8.979429244995117,-0.43251386284828186,-3.847947597503662
1403638128845097000,-0.000776931643486023,0.013587946072220802,0.14254328608512878,8.88146686553955,-0.32620131969451904,-3.9213004112243652
1403638128850097000,0.005514413118362427,0.01985921524465084,0.14744845032691956,8.881318092346191,-0.13824820518493652,-3.8804919719696045
1403638128855097000,0.01667626202106476,0.00868958979845047,0.1453588902950287,8.783477783203125,-0.08090583980083466,-3.945807456970215
1403638128860097000,0.01738370954990387,0.011518275365233421,0.11746355146169662,9.223881721496582,0.11549994349479675,-4.158287525177002
1403638128865097000,0.011080414056777954,0.014993804506957531,0.09935233741998672,8.85617733001709,0.3280159831047058,-4.068737506866455
1403638128870097000,0.006874784827232361,0.01640540361404419,0.08262784034013748,8.961816787719727,0.49983328580856323,-4.166842460632324
1403638128875097000,0.0033811330795288086,0.024780666455626488,0.07145489007234573,8.937078475952148,0.47537171840667725,-4.166780471801758
1403638128880097000,-9.170174598693848e-05,0.025488533079624176,0.04632685333490372,8.912232398986816,0.45084962248802185,-4.109717845916748
1403638128885097000,-0.014052599668502808,0.02340012975037098,0.025364793837070465,8.887388229370117,0.38559141755104065,-4.150468349456787
1403638128890097000,-0.020988017320632935,0.031077608466148376,0.012806616723537445,8.944406509399414,0.3037623465061188,-4.04442834854126
1403638128895097000,-0.026569470763206482,0.02827644906938076,0.007875703275203705,8.855193138122559,0.02598949708044529,-4.019745349884033
1403638128900097000,-0.024455711245536804,0.03316571190953255,0.007883839309215546,8.928913116455078,-0.08846084773540497,-3.954413414001465
1403638128905097000,-0.013292893767356873,0.029652349650859833,0.017646901309490204,8.774499893188477,-0.21937762200832367,-3.8237152099609375
1403638128910097000,-0.0028019100427627563,0.01991686224937439,0.025357015430927277,9.036029815673828,-0.27671384811401367,-3.7911672592163086
1403638128915097000,-0.004197210073471069,0.01921340636909008,0.023260585963726044,8.978808403015137,-0.23586054146289825,-3.7830021381378174
1403638128920097000,-0.007668972015380859,0.023421164602041245,0.02397722750902176,9.207147598266602,-0.21137012541294098,-3.8483810424804688
1403638128925097000,-0.012593582272529602,0.036661937832832336,0.03790373355150223,9.076714515686035,-0.3175432085990906,-3.905308723449707
1403638128930097000,-0.006339266896247864,0.03872813284397125,0.05254072695970535,8.881157875061035,-0.37481698393821716,-3.880678653717041
1403638128935097000,-0.0007817298173904419,0.04289713501930237,0.06857531517744064,8.766982078552246,-0.3666501045227051,-3.9540045261383057
1403638128940097000,0.0033939331769943237,0.04150029644370079,0.07833882421255112,8.750697135925293,-0.3421069085597992,-4.01924991607666
1403638128945097000,0.013841703534126282,0.03941949084401131,0.0804244801402092,8.791552543640137,-0.32558199763298035,-4.166093826293945
1403638128950097000,0.01244807243347168,0.04012232646346092,0.08252248913049698,8.840432167053223,-0.2765059769153595,-4.182420253753662
1403638128955097000,0.010367736220359802,0.040790364146232605,0.07974504679441452,8.6525239944458,-0.17860279977321625,-4.0437445640563965
1403638128960097000,0.01178431510925293,0.02335803210735321,0.08883773535490036,8.734208106994629,-0.08062159270048141,-4.003079891204834
1403638128965097000,0.011094167828559875,0.016397230327129364,0.08745088428258896,8.856595039367676,-0.023378601297736168,-4.035826206207275
1403638128970097000,0.0006585270166397095,0.005244884639978409,0.08956290036439896,9.003506660461426,0.025473641231656075,-3.962608575820923
1403638128975097000,-0.006293594837188721,0.012228709645569324,0.08052185922861099,9.101120948791504,0.13978014886379242,-3.889364242553711
1403638128980097000,-0.011172667145729065,0.011526618152856827,0.07563254982233047,9.027759552001953,0.0661906972527504,-3.8077304363250732
1403638128985097000,-0.013960406184196472,0.010139765217900276,0.06655656546354294,9.08483600616455,0.03357173874974251,-3.8403921127319336
1403638128990097000,-0.018852993845939636,0.017112575471401215,0.0630514845252037,9.04410457611084,-0.09713920205831528,-3.815777540206909
1403638128995097000,-0.013270020484924316,0.024087557569146156,0.058170609176158905,9.019615173339844,-0.11347171664237976,-3.774906635284424
1403638129000097000,-0.007001817226409912,0.024721283465623856,0.07072605937719345,8.611838340759277,-0.20352254807949066,-3.5950639247894287
1403638129005097000,0.002784624695777893,0.00028986670076847076,0.0847105011343956,8.538679122924805,-0.19553017616271973,-3.472609043121338
1403638129010097000,0.011135905981063843,-0.008718414232134819,0.0951470360159874,8.963448524475098,-0.31804656982421875,-3.701291799545288
1403638129015097000,0.017457887530326843,0.016435349360108376,0.0888899490237236,9.787164688110352,-0.19549857079982758,-4.076874256134033
1403638129020097000,0.013956964015960693,0.04780980199575424,0.07633877545595169,9.79442024230957,-0.09696520119905472,-4.272360801696777
1403638129025097000,0.006270319223403931,0.07921766489744186,0.05471070855855942,9.655210494995117,-0.14576545357704163,-4.223217487335205
1403638129030097000,0.006213977932929993,0.0722227394580841,0.035110972821712494,8.92949390411377,-0.23565128445625305,-3.945805072784424
1403638129035097000,0.011109486222267151,0.04294643551111221,0.008589334785938263,8.98633861541748,-0.13741034269332886,-4.035739421844482
1403638129040097000,0.007597222924232483,0.03948349878191948,-0.01374245434999466,9.132442474365234,-0.055235568434000015,-4.321220397949219
1403638129045097000,-0.0007394105195999146,0.0339142307639122,-0.04022958129644394,9.237405776977539,0.15725265443325043,-4.313238143920898
1403638129050097000,-0.01815783977508545,0.032516129314899445,-0.05141621083021164,9.147409439086914,0.14069224894046783,-4.174729824066162
1403638129055097000,-0.029280051589012146,0.0241378266364336,-0.061903782188892365,9.09051513671875,0.042386412620544434,-3.987175226211548
1403638129060097000,-0.04044412076473236,0.015760459005832672,-0.06961586326360703,9.074525833129883,-0.16187995672225952,-3.9871084690093994
1403638129065097000,-0.043207600712776184,0.012289822101593018,-0.08358042687177658,9.254251480102539,-0.39884594082832336,-4.044220924377441
1403638129070097000,-0.041140779852867126,0.015054348856210709,-0.09409410506486893,8.993054389953613,-0.3906617760658264,-3.94608473777771
1403638129075097000,-0.04113002121448517,0.006690915673971176,-0.084298275411129,9.091033935546875,-0.31718650460243225,-3.9625658988952637
1403638129080097000,-0.045362234115600586,0.008760739117860794,-0.0731637105345726,8.895326614379883,-0.2926473915576935,-3.9951589107513428
1403638129085097000,-0.047457993030548096,-0.0023963768035173416,-0.06268011778593063,8.95256233215332,-0.24365876615047455,-4.0442585945129395
1403638129090097000,-0.04677581787109375,0.004591356962919235,-0.0542963370680809,9.017915725708008,-0.2599099278450012,-4.150335788726807
1403638129095097000,-0.041202008724212646,0.010172270238399506,-0.04172839969396591,9.018308639526367,-0.3089536428451538,-4.150305271148682
1403638129100097000,-0.028646007180213928,0.01854390650987625,-0.039622969925403595,9.010011672973633,-0.22719372808933258,-4.133885383605957
1403638129105097000,-0.0258539617061615,0.02830655500292778,-0.031917817890644073,9.009542465209961,-0.014750191941857338,-4.101273536682129
1403638129110097000,-0.028650671243667603,0.028307195752859116,-0.029093541204929352,9.008840560913086,0.27117472887039185,-4.1014933586120605
1403638129115097000,-0.03842185437679291,0.03318687528371811,-0.009515486657619476,9.123078346252441,0.3692355453968048,-4.158724784851074
1403638129120097000,-0.04820092022418976,0.04991912841796875,0.003054402768611908,9.13114070892334,0.4019145667552948,-4.175024032592773
1403638129125097000,-0.05513830482959747,0.05549027398228645,0.02121647447347641,9.14794921875,0.336229532957077,-4.011963844299316
1403638129130097000,-0.055122822523117065,0.06525729596614838,0.02263294905424118,9.156002044677734,0.3933018743991852,-3.938614845275879
1403638129135097000,-0.060006529092788696,0.062465690076351166,0.02263442426919937,9.139662742614746,0.40961363911628723,-3.922363758087158
1403638129140097000,-0.06346350908279419,0.07154874503612518,0.009413205087184906,9.334827423095703,0.507808268070221,-4.004003047943115
1403638129145097000,-0.06765402853488922,0.08340214937925339,0.0059019699692726135,9.293994903564453,0.4016319513320923,-3.995685338973999
1403638129150097000,-0.0627526044845581,0.09457185864448547,0.0009991303086280823,9.392163276672363,0.15666663646697998,-4.019815921783447
1403638129155097000,-0.05370543897151947,0.10713471472263336,0.0086427703499794,9.35204029083252,-0.1129530817270279,-3.986820697784424
1403638129160097000,-0.031432971358299255,0.11618337035179138,0.029550902545452118,9.124197006225586,-0.14574573934078217,-3.9213359355926514
1403638129165097000,-0.009149789810180664,0.11686763167381287,0.06232761591672897,8.994400024414062,-0.23575277626514435,-3.9211223125457764
1403638129170097000,0.00829179584980011,0.10920074582099915,0.09443787485361099,9.12520980834961,-0.16237148642539978,-3.9537293910980225
1403638129175097000,0.024327412247657776,0.10917238891124725,0.12794220447540283,8.904986381530762,-0.007248121779412031,-3.9210848808288574
1403638129180097000,0.038288429379463196,0.1008097231388092,0.17677131295204163,9.231575965881348,-0.03190523013472557,-4.018762111663818
1403638129185097000,0.06061120331287384,0.12106133252382278,0.21167612075805664,9.296916961669922,-0.22001518309116364,-4.042856693267822
1403638129190097000,0.08645007014274597,0.13151803612709045,0.2424083650112152,9.443607330322266,-0.11378224939107895,-4.1162495613098145
1403638129195097000,0.11020474135875702,0.15105347335338593,0.27040010690689087,9.304789543151855,0.06607437878847122,-4.067402362823486
1403638129200097000,0.12349848449230194,0.16710130870342255,0.29629361629486084,9.443342208862305,0.3929894268512726,-4.059780597686768
1403638129205097000,0.12979593873023987,0.18525508046150208,0.323574036359787,9.508389472961426,0.5730293989181519,-4.117180347442627
1403638129210097000,0.13329137861728668,0.2068944126367569,0.35711362957954407,9.64676284790039,0.6301387548446655,-4.141632080078125
1403638129215097000,0.1339869648218155,0.23137347400188446,0.381636381149292,9.451035499572754,0.5645633935928345,-4.035449981689453
1403638129220097000,0.1311805546283722,0.23834927380084991,0.41168561577796936,9.540800094604492,0.5560742616653442,-3.9700748920440674
1403638129225097000,0.13117189705371857,0.25439900159835815,0.4445487856864929,9.516136169433594,0.5726006627082825,-4.027081489562988
1403638129230097000,0.1290583610534668,0.26201048493385315,0.4773206412792206,9.638093948364258,0.4744054973125458,-4.132715225219727
1403638129235097000,0.12833018600940704,0.2836097478866577,0.5136309266090393,9.629772186279297,0.3434073328971863,-4.132262706756592
1403638129240097000,0.13109122216701508,0.3058873414993286,0.5492249727249146,9.637743949890137,0.18799321353435516,-4.148126125335693
1403638129245097000,0.1401340365409851,0.325364351272583,0.5813266634941101,9.6621675491333,-0.024561820551753044,-4.1395368576049805
1403638129250097000,0.1470971703529358,0.33644378185272217,0.6126968860626221,9.751380920410156,-0.13870389759540558,-4.229210376739502
1403638129255097000,0.15544962882995605,0.36431020498275757,0.6427023410797119,9.750778198242188,-0.02409444749355316,-4.30271053314209
1403638129260097000,0.16166585683822632,0.383777379989624,0.6789610385894775,9.823936462402344,-0.007772958371788263,-4.294493675231934
1403638129265097000,0.16230425238609314,0.4116411805152893,0.6998606324195862,9.896918296813965,-0.007913075387477875,-4.302553176879883
1403638129270097000,0.15876716375350952,0.4318716526031494,0.720873236656189,9.766841888427734,-0.04048055782914162,-4.24520206451416
1403638129275097000,0.15589408576488495,0.45695775747299194,0.7417795658111572,9.831897735595703,-0.01616968959569931,-4.212464332580566
1403638129280097000,0.154435396194458,0.47789466381073,0.7592943906784058,9.75085163116455,-0.05709870904684067,-4.1225080490112305
1403638129285097000,0.15019886195659637,0.49464255571365356,0.7746520638465881,9.726192474365234,0.016545282676815987,-4.130644798278809
1403638129290097000,0.14384865760803223,0.5148925185203552,0.7928593158721924,9.636792182922363,0.024760643020272255,-4.0733642578125
1403638129295097000,0.13611285388469696,0.5414960384368896,0.7985435128211975,9.498586654663086,0.05736222118139267,-3.9752297401428223
1403638129300097000,0.12560471892356873,0.5436540246009827,0.8049784898757935,9.279313087463379,0.01652352325618267,-3.844329357147217
1403638129305097000,0.11579462885856628,0.5450781583786011,0.8042727112770081,9.295720100402832,0.05723283812403679,-3.779064655303955
1403638129310097000,0.10670730471611023,0.5429781675338745,0.8114802837371826,9.0276460647583,-0.18795575201511383,-3.6887073516845703
1403638129315097000,0.10109615325927734,0.5394156575202942,0.8191746473312378,9.101282119750977,-0.3270055055618286,-3.6887378692626953
1403638129320097000,0.09968450665473938,0.5394330024719238,0.8334511518478394,8.80851936340332,-0.5557895302772522,-3.574078321456909
1403638129325097000,0.10598751902580261,0.5275120735168457,0.8419946432113647,8.77629280090332,-0.7764298319816589,-3.54158091545105
1403638129330097000,0.11301964521408081,0.516350269317627,0.847206711769104,8.539835929870605,-1.0217952728271484,-3.443580150604248
1403638129335097000,0.1193501353263855,0.49674302339553833,0.8444289565086365,8.629626274108887,-1.160681128501892,-3.452146291732788
1403638129340097000,0.12638287246227264,0.48135077953338623,0.8424376249313354,8.637784957885742,-1.3408470153808594,-3.387268543243408
1403638129345097000,0.13130204379558563,0.4582291841506958,0.838051974773407,8.99692440032959,-1.4303816556930542,-3.4615538120269775
1403638129350097000,0.141804501414299,0.44425755739212036,0.8346009850502014,8.940057754516602,-1.5207202434539795,-3.3229432106018066
1403638129355097000,0.1480582058429718,0.43027836084365845,0.8302055597305298,9.030144691467285,-1.4058146476745605,-3.3145735263824463
1403638129360097000,0.15015088021755219,0.4163259267807007,0.8239151239395142,8.818270683288574,-1.3486145734786987,-3.2080039978027344
1403638129365097000,0.14803341031074524,0.384208619594574,0.8118143081665039,8.85137939453125,-1.2337446212768555,-3.158872365951538
1403638129370097000,0.1410827934741974,0.35844844579696655,0.7816528081893921,8.777971267700195,-1.1272544860839844,-3.1504082679748535
1403638129375097000,0.1341242492198944,0.3271229863166809,0.7458045482635498,8.851604461669922,-0.9473545551300049,-3.1341402530670166
1403638129380097000,0.1174616664648056,0.29930102825164795,0.6989846229553223,8.736881256103516,-0.8820028901100159,-3.215622901916504
1403638129385097000,0.10214853286743164,0.2644805312156677,0.6521155834197998,8.590126991271973,-0.8168300986289978,-3.0935378074645996
1403638129390097000,0.09033243358135223,0.2268558293581009,0.6059387922286987,8.532776832580566,-0.8251459002494812,-3.028663158416748
1403638129395097000,0.07504670321941376,0.18364913761615753,0.5528128147125244,8.458457946777344,-0.9724581241607666,-3.0208826065063477
1403638129400097000,0.05415521562099457,0.1243864893913269,0.5044915676116943,8.48225212097168,-1.0460988283157349,-2.9724929332733154
1403638129405097000,0.04093626141548157,0.08326475322246552,0.4590412676334381,8.489532470703125,-1.1526426076889038,-2.8914175033569336
1403638129410097000,0.026327013969421387,0.04211510717868805,0.4108581244945526,8.49626350402832,-1.308628797531128,-2.924586296081543
1403638129415097000,0.013797812163829803,-0.0046598538756370544,0.36268341541290283,8.494791984558105,-1.4649380445480347,-2.9498040676116943
1403638129420097000,0.005448460578918457,-0.04309355467557907,0.31659239530563354,8.469121932983398,-1.596799373626709,-2.934197187423706
1403638129425097000,0.010393388569355011,-0.08506117016077042,0.2830466628074646,8.54934310913086,-1.843916654586792,-2.960054397583008
1403638129430097000,0.011130005121231079,-0.1214204877614975,0.22851639986038208,8.573861122131348,-1.9096944332122803,-2.8708717823028564
1403638129435097000,0.010465368628501892,-0.15776857733726501,0.1803331971168518,8.599162101745605,-1.8602856397628784,-2.95285964012146
1403638129440097000,0.010505735874176025,-0.18358351290225983,0.13701516389846802,8.682191848754883,-1.801975131034851,-2.863222122192383
1403638129445097000,0.012665882706642151,-0.21434466540813446,0.08603230863809586,8.568206787109375,-1.8757400512695312,-2.8719916343688965
1403638129450097000,0.016219958662986755,-0.252704918384552,0.02876318246126175,8.692590713500977,-1.7351711988449097,-2.896484851837158
1403638129455097000,0.0162554532289505,-0.2876098155975342,-0.006161831319332123,8.619836807250977,-1.644565463066101,-2.8881092071533203
1403638129460097000,0.007236063480377197,-0.31339383125305176,-0.05722033232450485,8.857359886169434,-1.5048776865005493,-3.034804582595825
1403638129465097000,-0.00039124488830566406,-0.33225464820861816,-0.1005786880850792,8.890164375305176,-1.5047798156738281,-3.042806625366211
1403638129470097000,-0.006610840559005737,-0.3602333664894104,-0.14811637997627258,8.914441108703613,-1.5541950464248657,-3.0998549461364746
1403638129475097000,-0.009364068508148193,-0.38681530952453613,-0.1900010108947754,8.791946411132812,-1.5463398694992065,-3.1321377754211426
1403638129480097000,-0.018408387899398804,-0.41331762075424194,-0.22906503081321716,8.816399574279785,-1.4566519260406494,-3.221397638320923
1403638129485097000,-0.024647682905197144,-0.4377988576889038,-0.25623032450675964,8.645035743713379,-1.4569685459136963,-3.2701199054718018
1403638129490097000,-0.023909151554107666,-0.4587022066116333,-0.282777339220047,8.889493942260742,-1.4329591989517212,-3.376096248626709
1403638129495097000,-0.025921493768692017,-0.4741138219833374,-0.3127824664115906,8.873196601867676,-1.5233511924743652,-3.384416103363037
1403638129500097000,-0.03005477786064148,-0.4802859425544739,-0.34415072202682495,8.987207412719727,-1.4253759384155273,-3.481879711151123
1403638129505097000,-0.02922457456588745,-0.4781896471977234,-0.38390204310417175,8.922186851501465,-1.4907718896865845,-3.4411842823028564
1403638129510097000,-0.03194242715835571,-0.4808593988418579,-0.4118211269378662,9.125924110412598,-1.4172475337982178,-3.481778621673584
1403638129515097000,-0.031162649393081665,-0.4717558026313782,-0.43349796533584595,9.255910873413086,-1.4420276880264282,-3.563322067260742
1403638129520097000,-0.02901586890220642,-0.4667787551879883,-0.4510068893432617,9.500210762023926,-1.4095308780670166,-3.620356321334839
1403638129525097000,-0.030323684215545654,-0.45286405086517334,-0.46846893429756165,9.459399223327637,-1.5076195001602173,-3.5959694385528564
1403638129530097000,-0.02887827157974243,-0.4458252191543579,-0.48243585228919983,9.483631134033203,-1.4502264261245728,-3.6448562145233154
1403638129535097000,-0.02113330364227295,-0.44018125534057617,-0.49777689576148987,9.418217658996582,-1.3843748569488525,-3.6611647605895996
1403638129540097000,-0.017605245113372803,-0.4344944953918457,-0.5096611976623535,9.515762329101562,-1.277923822402954,-3.7019577026367188
1403638129545097000,-0.01755523681640625,-0.42738378047943115,-0.522903323173523,9.547954559326172,-1.097736120223999,-3.7509613037109375
1403638129550097000,-0.019636601209640503,-0.4202820062637329,-0.5249348878860474,9.531194686889648,-0.8767412900924683,-3.791886329650879
1403638129555097000,-0.022356897592544556,-0.40764951705932617,-0.538872241973877,9.530804634094238,-0.7620490789413452,-3.8083646297454834
1403638129560097000,-0.029313325881958008,-0.39778727293014526,-0.5409231185913086,9.59546184539795,-0.5577576756477356,-3.8658971786499023
1403638129565097000,-0.03973791003227234,-0.37682461738586426,-0.5471409559249878,9.529733657836914,-0.4268025755882263,-3.906834125518799
1403638129570097000,-0.04600486159324646,-0.3593761920928955,-0.5477742552757263,9.423442840576172,-0.34487098455429077,-3.9067721366882324
1403638129575097000,-0.05852201581001282,-0.3391600251197815,-0.5610532164573669,9.439375877380371,-0.3529437482357025,-3.972059488296509
1403638129580097000,-0.07039391994476318,-0.3231388330459595,-0.561705470085144,9.300601959228516,-0.3282235562801361,-3.996232509613037
1403638129585097000,-0.07531479001045227,-0.309922993183136,-0.5582371354103088,9.324894905090332,-0.3936387598514557,-4.020596981048584
1403638129590097000,-0.07819461822509766,-0.2939782738685608,-0.5456888675689697,9.235349655151367,-0.5897119045257568,-4.019961357116699
1403638129595097000,-0.07825776934623718,-0.27724945545196533,-0.5338101983070374,9.267757415771484,-0.6224616169929504,-3.9954371452331543
1403638129600097000,-0.07767432928085327,-0.27031463384628296,-0.5100542306900024,9.218894004821777,-0.6797462105751038,-3.9788525104522705
1403638129605097000,-0.07360485196113586,-0.25356525182724,-0.48707011342048645,9.471390724182129,-0.7210681438446045,-4.052692890167236
1403638129610097000,-0.06816497445106506,-0.23543520271778107,-0.4542553126811981,9.520172119140625,-0.7129513025283813,-4.085363864898682
1403638129615097000,-0.06336688995361328,-0.19771558046340942,-0.4333084523677826,9.723554611206055,-0.6148654818534851,-4.191900730133057
1403638129620097000,-0.05232676863670349,-0.16494232416152954,-0.4018658995628357,9.552325248718262,-0.6469807028770447,-4.134340763092041
1403638129625097000,-0.04468759894371033,-0.14048905670642853,-0.3871704339981079,9.641763687133789,-0.5160301327705383,-4.175407409667969
1403638129630097000,-0.041988909244537354,-0.11328209936618805,-0.35989245772361755,9.453764915466309,-0.3030503988265991,-4.142715930938721
1403638129635097000,-0.04485371708869934,-0.08745048940181732,-0.33263030648231506,9.502291679382324,-0.09025455266237259,-4.208312034606934
1403638129640097000,-0.05263519287109375,-0.06023666262626648,-0.3082130253314972,9.420393943786621,0.008248582482337952,-4.26537561416626
1403638129645097000,-0.05826100707054138,-0.028819262981414795,-0.2830803692340851,9.49373722076416,0.10663824528455734,-4.208248138427734
1403638129650097000,-0.0632583498954773,0.0018715821206569672,-0.25593748688697815,9.265339851379395,0.11517421901226044,-4.142568111419678
1403638129655097000,-0.06749230623245239,0.018615268170833588,-0.2280474603176117,9.30655288696289,0.05831295996904373,-4.142379283905029
1403638129660097000,-0.07035735249519348,0.03883270174264908,-0.1980780065059662,9.176321983337402,0.07492673397064209,-4.125882148742676
1403638129665097000,-0.07596412301063538,0.056964848190546036,-0.1652795970439911,9.242237091064453,-0.006481237709522247,-4.150237083435059
1403638129670097000,-0.07321250438690186,0.08414696902036667,-0.13460290431976318,9.096471786499023,-0.20242300629615784,-4.084588050842285
1403638129675097000,-0.0662415623664856,0.09949757158756256,-0.10524905472993851,9.195135116577148,-0.2921583354473114,-4.133464813232422
1403638129680097000,-0.05650545656681061,0.12319745123386383,-0.07032785564661026,9.147000312805176,-0.35752418637275696,-4.125137805938721
1403638129685097000,-0.044657930731773376,0.13993299007415771,-0.03189674764871597,9.221112251281738,-0.3740149140357971,-4.108727931976318
1403638129690097000,-0.03770612180233002,0.15736660361289978,-0.003974251449108124,9.197219848632812,-0.472202330827713,-4.0922627449035645
1403638129695097000,-0.02445945143699646,0.1685383915901184,0.02745240181684494,9.31994342803955,-0.48877179622650146,-4.083992004394531
1403638129700097000,-0.015391618013381958,0.1887766718864441,0.0484088733792305,9.385293006896973,-0.4972604513168335,-4.0022125244140625
1403638129705097000,-0.009124934673309326,0.19296735525131226,0.07004403322935104,9.401789665222168,-0.481145441532135,-3.969498872756958
1403638129710097000,0.0006342381238937378,0.20970448851585388,0.08819588273763657,9.352664947509766,-0.33421507477760315,-3.9694664478302
1403638129715097000,0.006198033690452576,0.21458987891674042,0.11052154749631882,9.271233558654785,-0.3180253207683563,-3.9449241161346436
1403638129720097000,0.01036420464515686,0.22157031297683716,0.13005197048187256,9.15713119506836,-0.3589174747467041,-3.9611258506774902
1403638129725097000,0.013139069080352783,0.21250171959400177,0.1488824188709259,9.075788497924805,-0.43248456716537476,-3.9773523807525635
1403638129730097000,0.02081817388534546,0.20272532105445862,0.1607578992843628,9.04322624206543,-0.3426923453807831,-3.9366092681884766
1403638129735097000,0.027092650532722473,0.18248385190963745,0.17261487245559692,8.978228569030762,-0.3998841643333435,-3.944742441177368
1403638129740097000,0.029887914657592773,0.16434261202812195,0.17400318384170532,9.059961318969727,-0.3834984302520752,-3.961132287979126
1403638129745097000,0.03197973966598511,0.1385219395160675,0.18097925186157227,9.019486427307129,-0.48983415961265564,-3.920344114303589
1403638129750097000,0.03826701641082764,0.12108581513166428,0.1739974319934845,9.133935928344727,-0.4979935884475708,-3.9286422729492188
1403638129755097000,0.04036669433116913,0.09317271411418915,0.16562142968177795,9.12607479095459,-0.5307097434997559,-3.896179437637329
1403638129760097000,0.04177875816822052,0.06458310782909393,0.1537623405456543,9.32226276397705,-0.5553537607192993,-3.8638381958007812
1403638129765097000,0.04736396670341492,0.03737601265311241,0.1488749086856842,9.322564125061035,-0.6207725405693054,-3.8804147243499756
1403638129770097000,0.0487828254699707,0.013671495020389557,0.1412046253681183,9.600305557250977,-0.596422553062439,-3.9134421348571777
1403638129775097000,0.04390271008014679,-0.01075512170791626,0.12724673748016357,9.494443893432617,-0.6454739570617676,-3.856557607650757
1403638129780097000,0.04392334818840027,-0.035173989832401276,0.11608505994081497,9.559990882873535,-0.5883030295372009,-3.8568477630615234
1403638129785097000,0.03905048966407776,-0.06309137493371964,0.100726418197155,9.429558753967285,-0.5800683498382568,-3.8570969104766846
1403638129790097000,0.03837607800960541,-0.08610543608665466,0.08397532254457474,9.519469261169434,-0.5146889686584473,-3.930874824523926
1403638129795097000,0.03767789900302887,-0.10425569117069244,0.07069952040910721,9.339906692504883,-0.5391205549240112,-3.979933261871338
1403638129800097000,0.04187649488449097,-0.1265784353017807,0.05393689125776291,9.397099494934082,-0.5719155073165894,-4.0455322265625
1403638129805097000,0.04468221962451935,-0.15032558143138885,0.026692010462284088,9.282719612121582,-0.6291807293891907,-4.02114725112915
1403638129810097000,0.04889422655105591,-0.18313102424144745,0.007122524082660675,9.339713096618652,-0.6211687326431274,-4.037683963775635
1403638129815097000,0.046121880412101746,-0.20339037477970123,-0.008253417909145355,9.257859230041504,-0.580307126045227,-3.9967827796936035
1403638129820097000,0.05102306604385376,-0.22851352393627167,-0.017347969114780426,9.372001647949219,-0.5723241567611694,-4.021445274353027
1403638129825097000,0.05033208429813385,-0.2459767609834671,-0.020154602825641632,9.40453815460205,-0.6378785967826843,-4.005232334136963
1403638129830097000,0.04755449295043945,-0.26759254932403564,-0.028546281158924103,9.632838249206543,-0.6463682651519775,-4.0625810623168945
1403638129835097000,0.0503520667552948,-0.27177315950393677,-0.03763360530138016,9.706125259399414,-0.6546793580055237,-4.127933025360107
1403638129840097000,0.04826897382736206,-0.2759566307067871,-0.04741964489221573,9.820192337036133,-0.7038994431495667,-4.1524810791015625
1403638129845097000,0.045480430126190186,-0.2647705674171448,-0.05509071797132492,9.877290725708008,-0.6139578223228455,-4.20140266418457
1403638129850097000,0.051761507987976074,-0.2633781433105469,-0.05719178169965744,9.869162559509277,-0.6302778720855713,-4.2014007568359375
1403638129855097000,0.05036371946334839,-0.2543069124221802,-0.06417273730039597,9.787504196166992,-0.5811367630958557,-4.233974456787109
1403638129860097000,0.053850993514060974,-0.2515109181404114,-0.06207526475191116,9.795736312866211,-0.5729427933692932,-4.258488178253174
1403638129865097000,0.05245402455329895,-0.2494124323129654,-0.06206602603197098,9.779402732849121,-0.5074963569641113,-4.2911176681518555
1403638129870097000,0.05175809562206268,-0.2487073689699173,-0.06135968118906021,9.820211410522461,-0.474820077419281,-4.3238019943237305
1403638129875097000,0.057350680232048035,-0.23752383887767792,-0.06343133002519608,9.942665100097656,-0.3929978311061859,-4.380971431732178
1403638129880097000,0.0503842830657959,-0.23264147341251373,-0.06759298592805862,9.983321189880371,-0.2539474666118622,-4.421779632568359
1403638129885097000,0.0441126823425293,-0.21799015998840332,-0.06965474039316177,10.032164573669434,-0.16387620568275452,-4.4789018630981445
1403638129890097000,0.04480811953544617,-0.2033287137746811,-0.07104500383138657,10.048487663269043,-0.21283431351184845,-4.503323554992676
1403638129895097000,0.03855147957801819,-0.18518993258476257,-0.08288382738828659,10.11341381072998,-0.17181585729122162,-4.503206253051758
1403638129900097000,0.03295940160751343,-0.16704469919204712,-0.08497261255979538,10.039802551269531,-0.2043294459581375,-4.486710071563721
1403638129905097000,0.030880793929100037,-0.15029960870742798,-0.08564289659261703,10.096757888793945,-0.16328702867031097,-4.486600875854492
1403638129910097000,0.025986552238464355,-0.13424767553806305,-0.08912306278944016,10.047558784484863,-0.179457888007164,-4.519084930419922
1403638129915097000,0.02878546714782715,-0.11261779069900513,-0.08838891237974167,10.096294403076172,-0.12195730954408646,-4.559682369232178
1403638129920097000,0.02455577254295349,-0.09515833854675293,-0.08422737568616867,9.90042495727539,-0.21985980868339539,-4.494139671325684
1403638129925097000,0.028064623475074768,-0.07283024489879608,-0.08279960602521896,10.014476776123047,-0.21154296398162842,-4.493958473205566
1403638129930097000,0.02731892466545105,-0.04909911006689072,-0.07024765759706497,9.826798439025879,-0.24396900832653046,-4.420192241668701
1403638129935097000,0.03149227797985077,-0.028877362608909607,-0.0450887605547905,9.892208099365234,-0.18662065267562866,-4.444477558135986
1403638129940097000,0.0342690646648407,0.001817239448428154,-0.029021643102169037,9.908534049987793,-0.24378201365470886,-4.387086868286133
1403638129945097000,0.03290154039859772,0.031098466366529465,-0.017112337052822113,10.063298225402832,-0.21117131412029266,-4.32974100112915
1403638129950097000,0.0349603146314621,0.06388287991285324,0.007313959300518036,10.038895606994629,-0.2847807705402374,-4.280508995056152
1403638129955097000,0.04121840000152588,0.09944024682044983,0.029652081429958344,10.09573745727539,-0.2847452163696289,-4.337274074554443
1403638129960097000,0.043255046010017395,0.13850805163383484,0.05962339788675308,9.916048049926758,-0.2846822738647461,-4.320630073547363
1403638129965097000,0.048123180866241455,0.17059777677059174,0.09101247042417526,9.948498725891113,-0.29300209879875183,-4.344872951507568
1403638129970097000,0.054363638162612915,0.19711925089359283,0.12308084219694138,9.744344711303711,-0.22757917642593384,-4.352833271026611
1403638129975097000,0.061331018805503845,0.21666033565998077,0.14958474040031433,9.719611167907715,-0.2111813873052597,-4.4260945320129395
1403638129980097000,0.06271602213382721,0.24110448360443115,0.17750081419944763,9.564360618591309,-0.1458730846643448,-4.409657955169678
1403638129985097000,0.06480632722377777,0.2501744031906128,0.20472201704978943,9.539599418640137,-0.03964072838425636,-4.4503607749938965
1403638129990097000,0.06829950213432312,0.27044522762298584,0.2368534505367279,9.441575050354004,-0.06432309746742249,-4.425780773162842
1403638129995097000,0.07249225676059723,0.28230786323547363,0.2598991096019745,9.506497383117676,0.000985492835752666,-4.466487407684326
1403638130000097000,0.06830759346485138,0.29907459020614624,0.2787744998931885,9.555240631103516,0.025133753195405006,-4.417471408843994
1403638130005097000,0.07180498540401459,0.3172292113304138,0.2948472499847412,9.661023139953613,-0.007834364660084248,-4.417346954345703
1403638130010097000,0.06832024455070496,0.34587007761001587,0.30045631527900696,9.734136581420898,-0.008208277635276318,-4.3845930099487305
1403638130015097000,0.070418581366539,0.3689334988594055,0.30676811933517456,9.733997344970703,0.032352596521377563,-4.33560037612915
1403638130020097000,0.0634431391954422,0.39061129093170166,0.2991163432598114,9.701251029968262,0.14645026624202728,-4.2541093826293945
1403638130025097000,0.052958130836486816,0.4039123058319092,0.3061412274837494,9.546448707580566,0.0809115320444107,-4.1724324226379395
1403638130030097000,0.046671003103256226,0.4130074381828308,0.3040696978569031,9.456753730773926,0.08082975447177887,-4.123480796813965
1403638130035097000,0.04316224157810211,0.41372764110565186,0.31250378489494324,9.20423698425293,-0.0906762182712555,-4.0579962730407715
1403638130040097000,0.04594685137271881,0.4081500172615051,0.3223109543323517,9.098393440246582,-0.22129471600055695,-4.049670219421387
1403638130045097000,0.04593580961227417,0.3858029246330261,0.3328166902065277,8.992734909057617,-0.3356412351131439,-4.000616550445557
1403638130050097000,0.05082130432128906,0.3711378574371338,0.33070534467697144,9.08273696899414,-0.4092070162296295,-3.992448329925537
1403638130055097000,0.059196099638938904,0.3536844849586487,0.3349282145500183,9.026042938232422,-0.5808523297309875,-3.9352405071258545
1403638130060097000,0.06967425346374512,0.34390515089035034,0.3327951431274414,9.213796615600586,-0.6053470373153687,-3.9842872619628906
1403638130065097000,0.08084459602832794,0.33832502365112305,0.33141931891441345,9.205909729003906,-0.7035411596298218,-3.9271323680877686
1403638130070097000,0.08783192932605743,0.335527241230011,0.32440799474716187,9.287477493286133,-0.6463244557380676,-3.9517059326171875
1403638130075097000,0.094808429479599,0.33553212881088257,0.3153541088104248,9.189842224121094,-0.6710267066955566,-3.8374040126800537
1403638130080097000,0.10318931937217712,0.3369283080101013,0.29996752738952637,9.25519847869873,-0.6220582723617554,-3.8130035400390625
1403638130085097000,0.1080826073884964,0.32853955030441284,0.28950849175453186,9.075796127319336,-0.6301472187042236,-3.764127016067505
1403638130090097000,0.1136769950389862,0.31735146045684814,0.2720364034175873,9.002473831176758,-0.5401583313941956,-3.723551034927368
1403638130095097000,0.11018788814544678,0.3054583668708801,0.25806546211242676,8.855611801147461,-0.5727342963218689,-3.707307815551758
1403638130100097000,0.11506876349449158,0.27611225843429565,0.24196693301200867,8.89670181274414,-0.5889249444007874,-3.7074472904205322
1403638130105097000,0.1122705340385437,0.25163769721984863,0.2230936884880066,8.741774559020996,-0.6542087197303772,-3.6912307739257812
1403638130110097000,0.11225765943527222,0.22161273658275604,0.21048778295516968,8.864522933959961,-0.678617537021637,-3.683157205581665
1403638130115097000,0.11154814064502716,0.19296568632125854,0.20069876313209534,8.783124923706055,-0.7685772776603699,-3.6260716915130615
1403638130120097000,0.11363540589809418,0.16157549619674683,0.19088777899742126,9.003796577453613,-0.7929468154907227,-3.675236940383911
1403638130125097000,0.1206098198890686,0.14481188356876373,0.17972049117088318,8.979545593261719,-0.8175037503242493,-3.6018619537353516
1403638130130097000,0.12201210856437683,0.12039019912481308,0.16225600242614746,9.077802658081055,-0.7356168031692505,-3.593933582305908
1403638130135097000,0.12271800637245178,0.10223492980003357,0.14270731806755066,9.037182807922363,-0.6536859273910522,-3.610452651977539
1403638130140097000,0.12062916159629822,0.08269604295492172,0.12385708838701248,9.053704261779785,-0.6454158425331116,-3.5943000316619873
1403638130145097000,0.11017617583274841,0.07571917772293091,0.10082223266363144,9.070003509521484,-0.5716956853866577,-3.5862786769866943
1403638130150097000,0.10947369039058685,0.06456010043621063,0.07428961247205734,9.110922813415527,-0.6696427464485168,-3.6190497875213623
1403638130155097000,0.11226454377174377,0.0491991862654686,0.05752984434366226,9.029425621032715,-0.7104326486587524,-3.6191229820251465
1403638130160097000,0.11436787247657776,0.02897169068455696,0.037276722490787506,9.070367813110352,-0.7512563467025757,-3.6111209392547607
1403638130165097000,0.11577656865119934,0.019222375005483627,0.00933932512998581,9.168237686157227,-0.7592883706092834,-3.668377637863159
1403638130170097000,0.11927637457847595,0.01086343452334404,-0.006032414734363556,9.184431076049805,-0.693779706954956,-3.7663750648498535
1403638130175097000,0.11929529905319214,0.007380764931440353,-0.020695246756076813,9.184237480163574,-0.6201432347297668,-3.750028371810913
1403638130180097000,0.11652141809463501,-0.003092695027589798,-0.031876347959041595,9.077987670898438,-0.5547112822532654,-3.725529909133911
1403638130185097000,0.11376410722732544,-0.014933653175830841,-0.04095151275396347,9.167593002319336,-0.44846105575561523,-3.725667953491211
1403638130190097000,0.10749374330043793,-0.023316115140914917,-0.048643745481967926,9.08587646484375,-0.44027337431907654,-3.701180934906006
1403638130195097000,0.10751202702522278,-0.02189873531460762,-0.058410368859767914,9.232597351074219,-0.4075870215892792,-3.7175707817077637
1403638130200097000,0.10610331594944,-0.018416546285152435,-0.05841710418462753,9.232687950134277,-0.4893149435520172,-3.709364175796509
1403638130205097000,0.10610944032669067,-0.010731324553489685,-0.060500480234622955,9.314159393310547,-0.4647863507270813,-3.7175118923187256
1403638130210097000,0.10190056264400482,-0.010753177106380463,-0.05353306978940964,9.175567626953125,-0.5219596028327942,-3.7092905044555664
1403638130215097000,0.10050682723522186,-0.007250495254993439,-0.0444454625248909,9.314383506774902,-0.513831615447998,-3.74202823638916
1403638130220097000,0.10255950689315796,0.007385242730379105,-0.01721205562353134,9.282106399536133,-0.6119664907455444,-3.750129461288452
1403638130225097000,0.10742151737213135,0.01994975656270981,0.005836091935634613,9.412939071655273,-0.7020193934440613,-3.782806634902954
1403638130230097000,0.1150662750005722,0.028996385633945465,0.029569782316684723,9.274420738220215,-0.7756958603858948,-3.758213520050049
1403638130235097000,0.12622380256652832,0.045753657817840576,0.05052395910024643,9.380526542663574,-0.7349032759666443,-3.8152787685394287
1403638130240097000,0.1338941752910614,0.06457814574241638,0.06938464194536209,9.298836708068848,-0.6613757610321045,-3.7905924320220947
1403638130245097000,0.13670942187309265,0.07854735851287842,0.08336067944765091,9.510778427124023,-0.4815885126590729,-3.8722126483917236
1403638130250097000,0.13950151205062866,0.10713782906532288,0.10709845274686813,9.420637130737305,-0.3671378493309021,-3.8883450031280518
1403638130255097000,0.14160992205142975,0.13644449412822723,0.13432657718658447,9.542679786682129,-0.26925793290138245,-3.912706136703491
1403638130260097000,0.13533355295658112,0.16784816980361938,0.15109074115753174,9.419905662536621,-0.2040027678012848,-3.84731125831604
1403638130265097000,0.12627854943275452,0.19297662377357483,0.16645479202270508,9.47647762298584,-0.024332478642463684,-3.863705635070801
1403638130270097000,0.11440899968147278,0.2139243334531784,0.18111371994018555,9.370070457458496,-0.01617925427854061,-3.8636133670806885
1403638130275097000,0.10114002227783203,0.2292884886264801,0.19506308436393738,9.377975463867188,-0.057120613753795624,-3.887890100479126
1403638130280097000,0.08995793759822845,0.23907141387462616,0.21811577677726746,9.17403507232666,-0.1716819405555725,-3.8060250282287598
1403638130285097000,0.08156789839267731,0.24327298998832703,0.23697087168693542,9.214863777160645,-0.2536512613296509,-3.764955759048462
1403638130290097000,0.07876577973365784,0.25026386976242065,0.2607385516166687,9.157752990722656,-0.29470667243003845,-3.715787410736084
1403638130295097000,0.0773504376411438,0.256561815738678,0.2893986701965332,9.206856727600098,-0.3767559230327606,-3.6501872539520264
1403638130300097000,0.076633021235466,0.26355409622192383,0.30968382954597473,9.215174674987793,-0.49955883622169495,-3.592754364013672
1403638130305097000,0.07452476024627686,0.2663448452949524,0.3348526358604431,9.215286254882812,-0.5487125515937805,-3.5680859088897705
1403638130310097000,0.07172170281410217,0.2789122462272644,0.3607417345046997,9.174504280090332,-0.6713299751281738,-3.584157705307007
1403638130315097000,0.07869614660739899,0.29357224702835083,0.385943204164505,9.133797645568848,-0.7694584131240845,-3.567643404006958
1403638130320097000,0.08078531920909882,0.30054402351379395,0.4055514931678772,9.044093132019043,-0.8348435163497925,-3.543034076690674
1403638130325097000,0.09474503993988037,0.30053073167800903,0.41957613825798035,8.921832084655762,-0.9084395170211792,-3.469515562057495
1403638130330097000,0.10172826051712036,0.2956411838531494,0.4202786386013031,8.921871185302734,-0.9493235349655151,-3.453216552734375
1403638130335097000,0.11359673738479614,0.28935563564300537,0.4244624972343445,8.995443344116211,-1.0474586486816406,-3.4124491214752197
1403638130340097000,0.12686167657375336,0.2872745990753174,0.4223140776157379,9.232245445251465,-0.9738894701004028,-3.461519479751587
1403638130345097000,0.13524703681468964,0.29006457328796387,0.42440906167030334,9.248505592346191,-0.8839440941810608,-3.518702507019043
1403638130350097000,0.13735026121139526,0.2928593158721924,0.41808822751045227,9.321821212768555,-0.6960148215293884,-3.5759520530700684
1403638130355097000,0.13316306471824646,0.28517186641693115,0.4111489951610565,9.028128623962402,-0.6550331711769104,-3.4943525791168213
1403638130360097000,0.12829095125198364,0.2684161067008972,0.3922545313835144,9.011665344238281,-0.5650038123130798,-3.5353620052337646
1403638130365097000,0.1206217110157013,0.2530441880226135,0.3650100529193878,8.774873733520508,-0.47498276829719543,-3.470283031463623
1403638130370097000,0.1129516214132309,0.22789837419986725,0.33910706639289856,8.774832725524902,-0.3930891156196594,-3.4787042140960693
1403638130375097000,0.09968842566013336,0.20831291377544403,0.31464412808418274,8.521651268005371,-0.4093444347381592,-3.4135072231292725
1403638130380097000,0.0885142832994461,0.18526506423950195,0.28944408893585205,8.562499046325684,-0.47463345527648926,-3.413546323776245
1403638130385097000,0.08360710740089417,0.15312136709690094,0.26148587465286255,8.407310485839844,-0.7609031796455383,-3.315532922744751
1403638130390097000,0.08010894060134888,0.12591347098350525,0.24119994044303894,8.55418586730957,-0.9734981060028076,-3.258497476577759
1403638130395097000,0.08221662044525146,0.10566011071205139,0.22162991762161255,8.54525089263916,-1.3255695104599,-3.128232955932617
1403638130400097000,0.09341931343078613,0.08754730969667435,0.2062205970287323,8.82260513305664,-1.5218703746795654,-3.1043221950531006
1403638130405097000,0.10741560161113739,0.07777553051710129,0.19850245118141174,8.88748836517334,-1.693950891494751,-3.0803427696228027
1403638130410097000,0.1241919994354248,0.07361345738172531,0.1928919553756714,9.059070587158203,-1.751125693321228,-3.0888190269470215
1403638130415097000,0.13811570405960083,0.07779493182897568,0.18872395157814026,9.018745422363281,-1.652774691581726,-3.064030170440674
1403638130420097000,0.1471579670906067,0.07641208916902542,0.17897188663482666,9.10119915008545,-1.4970357418060303,-3.0964598655700684
1403638130425097000,0.15619724988937378,0.07218029350042343,0.16921746730804443,8.913713455200195,-1.4316797256469727,-3.153451681137085
1403638130430097000,0.16036775708198547,0.06729914247989655,0.15038415789604187,8.947128295898438,-1.267813801765442,-3.267698287963867
1403638130435097000,0.16035759449005127,0.06587378680706024,0.12526771426200867,8.81685733795166,-1.177638292312622,-3.292149305343628
1403638130440097000,0.1652471125125885,0.051917124539613724,0.09525997191667557,8.768414497375488,-1.0137782096862793,-3.398381233215332
1403638130445097000,0.16039296984672546,0.038664162158966064,0.055471159517765045,8.686969757080078,-0.8089787364006042,-3.46376895904541
1403638130450097000,0.15066614747047424,0.018456991761922836,0.024734415113925934,8.719520568847656,-0.653331458568573,-3.5210628509521484
1403638130455097000,0.1416286826133728,0.0045251064002513885,-0.018581636250019073,8.784485816955566,-0.612191379070282,-3.5537970066070557
1403638130460097000,0.12142571806907654,-0.016403231769800186,-0.055622197687625885,8.792308807373047,-0.6447561979293823,-3.537548065185547
1403638130465097000,0.10820044577121735,-0.03315001726150513,-0.09195560961961746,8.81647777557373,-0.7100861668586731,-3.4804210662841797
1403638130470097000,0.09289827942848206,-0.05967062711715698,-0.12200353294610977,8.816205024719238,-0.7182855010032654,-3.390683889389038
1403638130475097000,0.07341864705085754,-0.08616617321968079,-0.15553322434425354,8.946337699890137,-0.6938683390617371,-3.350015878677368
1403638130480097000,0.04694066941738129,-0.10360696911811829,-0.1779005229473114,9.141780853271484,-0.8002201914787292,-3.350163698196411
1403638130485097000,0.03302904963493347,-0.10149890184402466,-0.20442256331443787,9.28809928894043,-0.8819898962974548,-3.3173940181732178
1403638130490097000,0.02957293391227722,-0.09521417319774628,-0.22744572162628174,9.352982521057129,-0.9964121580123901,-3.3172223567962646
1403638130495097000,0.031712159514427185,-0.08053223043680191,-0.24906739592552185,9.53195571899414,-1.102679967880249,-3.349630355834961
1403638130500097000,0.023310959339141846,-0.08268299698829651,-0.25808507204055786,9.075350761413574,-1.127005696296692,-3.2842466831207275
1403638130505097000,0.013540610671043396,-0.09454506635665894,-0.2643359899520874,8.78957748413086,-0.8329675793647766,-3.3332018852233887
1403638130510097000,0.005117848515510559,-0.09945867955684662,-0.23717042803764343,8.618371963500977,-0.7103636264801025,-3.4067325592041016
1403638130515097000,0.0030001550912857056,-0.10155811160802841,-0.21838703751564026,8.887791633605957,-0.971880316734314,-3.5458076000213623
1403638130520097000,0.00860685110092163,-0.10861064493656158,-0.21909603476524353,8.733288764953613,-1.307173728942871,-3.488894462585449
1403638130525097000,0.009307250380516052,-0.1169411689043045,-0.23927918076515198,8.561617851257324,-0.8657022714614868,-3.4231269359588623
1403638130530097000,0.015578538179397583,-0.128095343708992,-0.21276846528053284,8.44751262664795,-0.5388950109481812,-3.3660590648651123
1403638130535097000,0.004396557807922363,-0.12523210048675537,-0.1939411461353302,9.026360511779785,-0.5471010804176331,-3.5461714267730713
1403638130540097000,-0.013063788414001465,-0.109206423163414,-0.19047811627388,9.042712211608887,-0.7757076621055603,-3.554220676422119
1403638130545097000,-0.008195549249649048,-0.08966389298439026,-0.17022103071212769,9.018610954284668,-0.7345899343490601,-3.399035692214966
1403638130550097000,0.0022409409284591675,-0.07224421203136444,-0.1422891616821289,8.913202285766602,-0.8079198598861694,-3.2275185585021973
1403638130555097000,-0.0012280195951461792,-0.058919183909893036,-0.13319042325019836,9.304452896118164,-0.677322268486023,-3.358370065689087
1403638130560097000,-0.008194997906684875,-0.03306867554783821,-0.1226707473397255,9.450823783874512,-0.5138993859291077,-3.4808661937713623
1403638130565097000,-0.01868036389350891,-0.0009727813303470612,-0.09890242666006088,9.450787544250488,-0.5056090354919434,-3.4562692642211914
1403638130570097000,-0.024289116263389587,0.025522183626890182,-0.0863259807229042,9.295758247375488,-0.570854127407074,-3.2927019596099854
1403638130575097000,-0.03197978436946869,0.038787469267845154,-0.059075139462947845,9.385614395141602,-0.4892241954803467,-3.4480092525482178
1403638130580097000,-0.03759799897670746,0.0729774534702301,-0.024155177175998688,9.524456024169922,-0.5954662561416626,-3.6274712085723877
1403638130585097000,-0.03622552752494812,0.11553286015987396,0.0009889975190162659,9.565079689025879,-0.6037657856941223,-3.610774040222168
1403638130590097000,-0.03416033089160919,0.14551012217998505,0.016345404088497162,9.369083404541016,-0.505862832069397,-3.504456043243408
1403638130595097000,-0.034182265400886536,0.1671183556318283,0.03308958560228348,9.238410949707031,-0.38339510560035706,-3.5452888011932373
1403638130600097000,-0.027935847640037537,0.18732663989067078,0.043540604412555695,9.075237274169922,-0.3588339388370514,-3.6350183486938477
1403638130605097000,-0.02376118302345276,0.201974555850029,0.049826107919216156,9.034467697143555,-0.3997599482536316,-3.6103994846343994
1403638130610097000,-0.018879160284996033,0.21870194375514984,0.05263525992631912,8.928329467773438,-0.3754241168498993,-3.52058482170105
1403638130615097000,-0.014699667692184448,0.2173224240541458,0.06519625335931778,8.977333068847656,-0.3346077799797058,-3.569603204727173
1403638130620097000,-0.011891663074493408,0.23200474679470062,0.07149770110845566,9.156506538391113,-0.2203696072101593,-3.6104722023010254
1403638130625097000,-0.00910709798336029,0.2410772293806076,0.08406815677881241,9.115747451782227,-0.19604676961898804,-3.545166254043579
1403638130630097000,-0.00770840048789978,0.25224822759628296,0.09525174647569656,9.09935188293457,-0.12276018410921097,-3.4554567337036133
1403638130635097000,-0.012619003653526306,0.2529362440109253,0.12177056819200516,8.944443702697754,-0.18015359342098236,-3.300147771835327
1403638130640097000,-0.016819939017295837,0.24947988986968994,0.1392020881175995,9.091355323791504,-0.22112371027469635,-3.3162364959716797
1403638130645097000,-0.017550870776176453,0.25020700693130493,0.1629207730293274,9.148594856262207,-0.37651336193084717,-3.291254758834839
1403638130650097000,-0.018957898020744324,0.25792616605758667,0.17896515130996704,9.377059936523438,-0.4094521999359131,-3.3236358165740967
1403638130655097000,-0.016891002655029297,0.26282280683517456,0.2062014937400818,9.32819938659668,-0.4259641170501709,-3.2989745140075684
1403638130660097000,-0.007847905158996582,0.27681273221969604,0.23484855890274048,9.369196891784668,-0.5324005484580994,-3.323096513748169
1403638130665097000,-0.002293139696121216,0.2823994755744934,0.26562973856925964,9.140920639038086,-0.7367081046104431,-3.257431745529175
1403638130670097000,0.011652693152427673,0.28939682245254517,0.2984987497329712,9.141247749328613,-0.8185858726501465,-3.289926528930664
1403638130675097000,0.030490294098854065,0.29637277126312256,0.3335062563419342,8.953835487365723,-0.8595805168151855,-3.257215738296509
1403638130680097000,0.04513828456401825,0.29846620559692383,0.3677496910095215,9.06037425994873,-0.8433260321617126,-3.2571730613708496
1403638130685097000,0.060485824942588806,0.30682289600372314,0.39718273282051086,8.799416542053223,-0.8515062928199768,-3.175530433654785
1403638130690097000,0.07233108580112457,0.3102952241897583,0.42444801330566406,8.73455810546875,-0.7206941246986389,-3.061414957046509
1403638130695097000,0.08348140120506287,0.3144580125808716,0.45034313201904297,8.571626663208008,-0.7205787897109985,-2.9472246170043945
1403638130700097000,0.09044365584850311,0.3123399019241333,0.4747520983219147,8.735377311706543,-0.7450146675109863,-2.947232723236084
1403638130705097000,0.09531764686107635,0.315804660320282,0.4936380088329315,8.678446769714355,-0.8184574842453003,-2.91453218460083
1403638130710097000,0.10298509895801544,0.32277554273605347,0.5110510587692261,8.915443420410156,-0.8429611325263977,-2.947161912918091
1403638130715097000,0.11065039038658142,0.33743423223495483,0.5236715078353882,8.793231010437012,-0.8265444040298462,-2.8493285179138184
1403638130720097000,0.11343592405319214,0.329719603061676,0.5362607836723328,8.73616886138916,-0.8264302015304565,-2.89819073677063
1403638130725097000,0.11762121319770813,0.3324934244155884,0.5460846424102783,8.630086898803711,-0.8835568428039551,-2.8736393451690674
1403638130730097000,0.12321293354034424,0.3149831295013428,0.5573149919509888,8.417662620544434,-1.0142031908035278,-2.865396022796631
1403638130735097000,0.13298046588897705,0.29469484090805054,0.5670464038848877,8.43417739868164,-1.0548638105392456,-2.849222183227539
1403638130740097000,0.13995860517024994,0.2716219425201416,0.5760797262191772,8.515785217285156,-1.0382599830627441,-2.97969913482666
1403638130745097000,0.15253540873527527,0.25066033005714417,0.5718958377838135,8.393014907836914,-1.0954182147979736,-2.97976016998291
1403638130750097000,0.16299200057983398,0.22691947221755981,0.5690306425094604,8.38503360748291,-1.1034420728683472,-2.8984317779541016
1403638130755097000,0.17065644264221191,0.20879532396793365,0.5515034794807434,8.368998527526855,-0.9889704585075378,-2.833360195159912
1403638130760097000,0.1685563325881958,0.18510909378528595,0.5332481861114502,8.532499313354492,-0.8663855791091919,-2.8417460918426514
1403638130765097000,0.16439059376716614,0.17749398946762085,0.5073550939559937,8.761034965515137,-0.7114083170890808,-2.882718563079834
1403638130770097000,0.15464136004447937,0.1698479801416397,0.48011255264282227,8.76892375946045,-0.7442431449890137,-2.8745875358581543
1403638130775097000,0.14350879192352295,0.17128293216228485,0.43961405754089355,8.727653503417969,-0.8180021643638611,-2.8093347549438477
1403638130780097000,0.1351519674062729,0.1608130782842636,0.4026125371456146,8.555593490600586,-0.8835219144821167,-2.8011138439178467
1403638130785097000,0.13168711960315704,0.15036962926387787,0.364174485206604,8.645143508911133,-0.8427407741546631,-2.841926097869873
1403638130790097000,0.12541741132736206,0.13220623135566711,0.327851802110672,8.513935089111328,-0.9409252405166626,-2.890902042388916
1403638130795097000,0.11706571280956268,0.11964741349220276,0.2852199971675873,8.570929527282715,-0.9326751828193665,-2.9236559867858887
1403638130800097000,0.11148351430892944,0.10006178170442581,0.2530883848667145,8.350092887878418,-1.022726058959961,-2.9156334400177
1403638130805097000,0.10869947075843811,0.08818355202674866,0.2279376983642578,8.333847045898438,-1.0145033597946167,-2.9647302627563477
1403638130810097000,0.10241594910621643,0.07487580180168152,0.2104831039905548,8.0480375289917,-0.973824679851532,-2.92402982711792
1403638130815097000,0.101035937666893,0.06091637909412384,0.1902288794517517,8.056702613830566,-0.8345842957496643,-2.9650158882141113
1403638130820097000,0.09406039118766785,0.04693286120891571,0.17416858673095703,7.901524543762207,-0.8674641847610474,-2.94882869720459
1403638130825097000,0.09198582172393799,0.03647605702280998,0.15252548456192017,8.007935523986816,-0.8426262736320496,-2.9652717113494873
1403638130830097000,0.08989128470420837,0.03575338050723076,0.138572096824646,7.844425201416016,-0.9327672123908997,-2.8673391342163086
1403638130835097000,0.09129120409488678,0.03297083079814911,0.13159269094467163,7.901553153991699,-0.9652946591377258,-2.810192108154297
1403638130840097000,0.09268602728843689,0.0385417565703392,0.12880828976631165,7.746405124664307,-0.9409261345863342,-2.744872570037842
1403638130845097000,0.09199756383895874,0.04065096005797386,0.13229921460151672,7.836296558380127,-0.883467435836792,-2.7285327911376953
1403638130850097000,0.09129142761230469,0.05319490283727646,0.1350880265235901,7.762539863586426,-0.9654792547225952,-2.7366411685943604
1403638130855097000,0.08919747173786163,0.060878872871398926,0.14275822043418884,7.8848443031311035,-1.014472246170044,-2.7773993015289307
1403638130860097000,0.09128427505493164,0.07342786341905594,0.14345818758010864,7.7702178955078125,-1.0965458154678345,-2.7365264892578125
1403638130865097000,0.09826198220252991,0.07971236109733582,0.14835074543952942,7.811348915100098,-1.0065031051635742,-2.7773404121398926
1403638130870097000,0.10522913932800293,0.08249411731958389,0.15324288606643677,7.656217575073242,-0.982265830039978,-2.7365379333496094
1403638130875097000,0.10594642162322998,0.08461395651102066,0.15813860297203064,7.811728000640869,-0.8101003766059875,-2.736569881439209
1403638130880097000,0.09899604320526123,0.09369233250617981,0.15884003043174744,7.869023323059082,-0.6301087141036987,-2.8019840717315674
1403638130885097000,0.08228139579296112,0.10696934908628464,0.1553477942943573,8.007644653320312,-0.4745287597179413,-2.818394660949707
1403638130890097000,0.05927124619483948,0.12442074716091156,0.1497596800327301,8.056191444396973,-0.4416833817958832,-2.7693891525268555
1403638130895097000,0.034852534532547,0.1453534960746765,0.15324318408966064,8.063861846923828,-0.40893539786338806,-2.7448434829711914
1403638130900097000,0.009030252695083618,0.17466594278812408,0.1490454077720642,8.128664016723633,-0.4170251190662384,-2.7365617752075195
1403638130905097000,-0.015400141477584839,0.19769267737865448,0.14485153555870056,8.119994163513184,-0.5068330764770508,-2.6710433959960938
1403638130910097000,-0.043326541781425476,0.23397506773471832,0.1378648281097412,8.152193069458008,-0.6457352042198181,-2.695253849029541
1403638130915097000,-0.059384092688560486,0.2598140835762024,0.13646671175956726,8.200814247131348,-0.7927756905555725,-2.6460113525390625
1403638130920097000,-0.06986504793167114,0.29608672857284546,0.1357879340648651,8.143460273742676,-0.8255800008773804,-2.6540377140045166
1403638130925097000,-0.07546518743038177,0.32328975200653076,0.1421036720275879,7.939181804656982,-0.8338732719421387,-2.556191921234131
1403638130930097000,-0.08036711812019348,0.3498004674911499,0.14281603693962097,7.906345844268799,-0.7766561508178711,-2.4990768432617188
1403638130935097000,-0.0922498106956482,0.36444562673568726,0.14634031057357788,7.6694793701171875,-0.8422251343727112,-2.458444833755493
1403638130940097000,-0.10621383786201477,0.3811671733856201,0.142157644033432,7.71013879776001,-0.8095215559005737,-2.5072433948516846
1403638130945097000,-0.10833227634429932,0.40282684564590454,0.14566755294799805,7.587667942047119,-0.8749444484710693,-2.368759870529175
1403638130950097000,-0.11321887373924255,0.4160699248313904,0.14286655187606812,7.693689823150635,-0.809408962726593,-2.360478162765503
1403638130955097000,-0.11464253067970276,0.4321286082267761,0.1470717489719391,7.563084602355957,-0.776691198348999,-2.2628653049468994
1403638130960097000,-0.12302795052528381,0.4488585591316223,0.14498215913772583,7.5792975425720215,-0.7357790470123291,-2.2465312480926514
1403638130965097000,-0.12864983081817627,0.45867884159088135,0.15825966000556946,7.407954692840576,-0.8339911103248596,-2.140843152999878
1403638130970097000,-0.132811039686203,0.462181031703949,0.15264633297920227,7.522566795349121,-1.0057733058929443,-2.116468667984009
1403638130975097000,-0.12932497262954712,0.46016526222229004,0.155416339635849,7.449429988861084,-1.2681846618652344,-2.0597641468048096
1403638130980097000,-0.12162652611732483,0.4553219676017761,0.159549742937088,7.580373764038086,-1.3581528663635254,-2.0192019939422607
1403638130985097000,-0.11816361546516418,0.4497987627983093,0.1665048599243164,7.450102806091309,-1.4323567152023315,-1.9137214422225952
1403638130990097000,-0.11115366220474243,0.43797028064727783,0.17133641242980957,7.58112907409668,-1.4648141860961914,-1.8732450008392334
1403638130995097000,-0.1006912887096405,0.428973913192749,0.17754843831062317,7.565402507781982,-1.5799219608306885,-1.775993824005127
1403638131000097000,-0.0908895879983902,0.42063605785369873,0.18658962845802307,7.696353912353516,-1.5713105201721191,-1.7517832517623901
1403638131005097000,-0.08182427287101746,0.4199857711791992,0.19634100794792175,7.656038761138916,-1.5797333717346191,-1.6706873178482056
1403638131010097000,-0.0762195885181427,0.4101969003677368,0.1970759630203247,7.696638107299805,-1.472665786743164,-1.702907919883728
1403638131015097000,-0.07274296879768372,0.3969342112541199,0.19710472226142883,7.557680130004883,-1.4318221807479858,-1.686328649520874
1403638131020097000,-0.06573699414730072,0.37250208854675293,0.1922168731689453,7.55767297744751,-1.3823012113571167,-1.6860766410827637
1403638131025097000,-0.06224095821380615,0.3543354868888855,0.18035727739334106,7.5327887535095215,-1.398676872253418,-1.7426981925964355
1403638131030097000,-0.06567639112472534,0.3305596113204956,0.16499808430671692,7.7041521072387695,-1.2996655702590942,-1.7995376586914062
1403638131035097000,-0.06635221838951111,0.31934064626693726,0.1461666226387024,7.671644687652588,-1.1683902740478516,-1.7749449014663696
1403638131040097000,-0.0663250982761383,0.29487520456314087,0.1301213800907135,7.598397254943848,-1.0126491785049438,-1.7095712423324585
1403638131045097000,-0.0753895491361618,0.2738742232322693,0.11131357401609421,7.459422588348389,-0.873577356338501,-1.7092876434326172
1403638131050097000,-0.085844486951828,0.24317331612110138,0.09455624967813492,7.361846446990967,-0.8243932127952576,-1.6114025115966797
1403638131055097000,-0.0976887196302414,0.21733911335468292,0.06804239004850388,7.42711877822876,-0.8243120312690735,-1.660233736038208
1403638131060097000,-0.1019071489572525,0.19085584580898285,0.05129549652338028,7.337394714355469,-1.0289920568466187,-1.7089506387710571
1403638131065097000,-0.10050167143344879,0.16994808614253998,0.0205618217587471,7.435814380645752,-1.1515244245529175,-1.7171783447265625
1403638131070097000,-0.10196222364902496,0.13861966133117676,0.0030779317021369934,7.395107269287109,-1.3645961284637451,-1.7086859941482544
1403638131075097000,-0.0901721715927124,0.11007729917764664,-0.013029120862483978,7.394986152648926,-1.5531694889068604,-1.7082328796386719
1403638131080097000,-0.07145527005195618,0.07386977970600128,-0.017991386353969574,7.345305919647217,-1.7339563369750977,-1.6991467475891113
1403638131085097000,-0.053272753953933716,0.043163545429706573,-0.02501075714826584,7.53321647644043,-1.823498010635376,-1.7569758892059326
1403638131090097000,-0.040733516216278076,0.01247607171535492,-0.029244177043437958,7.582075595855713,-1.897189974784851,-1.7652337551116943
1403638131095097000,-0.032914191484451294,-0.017610102891921997,-0.03409261256456375,7.77871036529541,-1.797987699508667,-1.8396767377853394
1403638131100097000,-0.026632070541381836,-0.04902394860982895,-0.03968564420938492,7.721667766571045,-1.748779296875,-1.8148751258850098
1403638131105097000,-0.025822937488555908,-0.07837118208408356,-0.04875112324953079,7.861262798309326,-1.592553734779358,-1.8154466152191162
1403638131110097000,-0.02579931914806366,-0.10559482872486115,-0.06062418967485428,7.788015842437744,-1.4941908121109009,-1.7743014097213745
1403638131115097000,-0.025025159120559692,-0.12446834146976471,-0.0676056370139122,7.919102191925049,-1.363098382949829,-1.8073115348815918
1403638131120097000,-0.03477895259857178,-0.14957790076732635,-0.07877633720636368,7.83767032623291,-1.297564148902893,-1.7663313150405884
1403638131125097000,-0.035422250628471375,-0.1691531091928482,-0.09624265879392624,7.960501194000244,-1.2321001291275024,-1.8482158184051514
1403638131130097000,-0.040307700634002686,-0.19706952571868896,-0.110890232026577,7.797303676605225,-1.2320278882980347,-1.8478738069534302
1403638131135097000,-0.04445415735244751,-0.2215123325586319,-0.12977293133735657,7.936652660369873,-1.2892330884933472,-1.9137637615203857
1403638131140097000,-0.043738096952438354,-0.24596355855464935,-0.15002447366714478,7.904219627380371,-1.3219718933105469,-1.954596757888794
1403638131145097000,-0.04578059911727905,-0.27114254236221313,-0.16122230887413025,8.116974830627441,-1.2894803285598755,-2.0775744915008545
1403638131150097000,-0.04296359419822693,-0.2900056838989258,-0.18430215120315552,8.21527099609375,-1.3223991394042969,-2.0860111713409424
1403638131155097000,-0.042221665382385254,-0.30680572986602783,-0.20597976446151733,8.411280632019043,-1.3718600273132324,-2.19252872467041
1403638131160097000,-0.04148828983306885,-0.32009798288345337,-0.22694867849349976,8.492884635925293,-1.4866863489151,-2.2255778312683105
1403638131165097000,-0.0344775915145874,-0.33477234840393066,-0.24653851985931396,8.631814956665039,-1.495262622833252,-2.23388671875
1403638131170097000,-0.030963361263275146,-0.33963608741760254,-0.27023348212242126,8.680878639221191,-1.3891924619674683,-2.241734504699707
1403638131175097000,-0.025362223386764526,-0.3486987352371216,-0.2855512201786041,8.76237678527832,-1.2422958612442017,-2.314868927001953
1403638131180097000,-0.03440949320793152,-0.3535487651824951,-0.30151909589767456,8.737748146057129,-1.1524243354797363,-2.3636646270751953
1403638131185097000,-0.04066884517669678,-0.35908544063568115,-0.31470736861228943,8.70505428314209,-1.0380243062973022,-2.3798177242279053
1403638131190097000,-0.04831835627555847,-0.36669909954071045,-0.327862024307251,8.598901748657227,-0.8745108246803284,-2.4121992588043213
1403638131195097000,-0.05807989835739136,-0.38135772943496704,-0.32850515842437744,8.468634605407715,-0.8661429286003113,-2.4610650539398193
1403638131200097000,-0.06852340698242188,-0.3882743716239929,-0.3382311165332794,8.533673286437988,-0.7437593936920166,-2.501798152923584
1403638131205097000,-0.07479655742645264,-0.4050642251968384,-0.3396361172199249,8.53398323059082,-0.8418091535568237,-2.534611463546753
1403638131210097000,-0.07336556911468506,-0.4134414792060852,-0.3529253602027893,8.705016136169434,-0.8748595118522644,-2.5756635665893555
1403638131215097000,-0.07475456595420837,-0.41837817430496216,-0.35364657640457153,8.7213773727417,-0.9811664819717407,-2.6002840995788574
1403638131220097000,-0.06848010420799255,-0.41908055543899536,-0.3523023724555969,8.867895126342773,-0.973262369632721,-2.6411566734313965
1403638131225097000,-0.06154492497444153,-0.4135175943374634,-0.33696797490119934,8.827048301696777,-0.948624312877655,-2.673673391342163
1403638131230097000,-0.053198426961898804,-0.40162092447280884,-0.3286058306694031,8.899998664855957,-0.842454195022583,-2.722496271133423
1403638131235097000,-0.04484623670578003,-0.39817893505096436,-0.31885266304016113,8.826558113098145,-0.8832049369812012,-2.7632293701171875
1403638131240097000,-0.03929781913757324,-0.38490378856658936,-0.306318998336792,8.940214157104492,-0.8179421424865723,-2.836618185043335
1403638131245097000,-0.03515288233757019,-0.3842441439628601,-0.28679680824279785,8.842549324035645,-0.8259047865867615,-2.8283963203430176
1403638131250097000,-0.026806384325027466,-0.36888837814331055,-0.2742837965488434,8.98895263671875,-0.8096483945846558,-2.877420663833618
1403638131255097000,-0.021960079669952393,-0.35078132152557373,-0.2519735097885132,8.915458679199219,-0.8420802354812622,-2.893665313720703
1403638131260097000,-0.015021085739135742,-0.3374742865562439,-0.23105254769325256,9.045791625976562,-0.6949719786643982,-2.901869297027588
1403638131265097000,-0.010864228010177612,-0.32073837518692017,-0.20941117405891418,8.947884559631348,-0.6702075004577637,-2.9017601013183594
1403638131270097000,-0.009496599435806274,-0.2997814416885376,-0.1843092143535614,9.110891342163086,-0.6292664408683777,-2.9427454471588135
1403638131275097000,-0.008116811513900757,-0.2788517475128174,-0.17172694206237793,9.029131889343262,-0.6290950775146484,-2.975292205810547
1403638131280097000,-0.001857161521911621,-0.25929486751556396,-0.1514926552772522,9.184000968933105,-0.6045815348625183,-3.0652806758880615
1403638131285097000,0.007188946008682251,-0.2307152897119522,-0.1333313286304474,9.028992652893066,-0.6942228078842163,-3.08145809173584
1403638131290097000,0.012758955359458923,-0.21743641793727875,-0.11936476081609726,9.135153770446777,-0.669705331325531,-3.1060779094696045
1403638131295097000,0.01902131736278534,-0.20138385891914368,-0.10468917340040207,9.135220527648926,-0.6860051155090332,-3.13875150680542
1403638131300097000,0.021813124418258667,-0.190169095993042,-0.08999253064393997,9.274051666259766,-0.5226175785064697,-3.163386344909668
1403638131305097000,0.0197160542011261,-0.17619194090366364,-0.08086959272623062,9.18409252166748,-0.38364794850349426,-3.220454692840576
1403638131310097000,0.020410701632499695,-0.16361314058303833,-0.05917779356241226,9.135252952575684,-0.24468989670276642,-3.2041425704956055
1403638131315097000,0.005057021975517273,-0.15034185349941254,-0.04866067320108414,9.06151008605957,-0.11391440778970718,-3.2286291122436523
1403638131320097000,-0.00891229510307312,-0.14335907995700836,-0.03676898032426834,9.028580665588379,-0.03221174702048302,-3.326662063598633
1403638131325097000,-0.02496759593486786,-0.12451216578483582,-0.031863100826740265,9.069121360778809,-0.015818996354937553,-3.3512139320373535
1403638131330097000,-0.03894558548927307,-0.11336229741573334,-0.018604658544063568,9.036587715148926,-0.1709829568862915,-3.342965841293335
1403638131335097000,-0.050124526023864746,-0.09034798294305801,-0.015118546783924103,9.011964797973633,-0.3015788197517395,-3.310162305831909
1403638131340097000,-0.05362662672996521,-0.07081802934408188,-0.0018446072936058044,8.99563980102539,-0.3587445020675659,-3.244736671447754
1403638131345097000,-0.05574660003185272,-0.04850194603204727,0.012112192809581757,8.96290111541748,-0.45677104592323303,-3.252728223800659
1403638131350097000,-0.058567941188812256,-0.028981082141399384,0.033047981560230255,8.930166244506836,-0.5875605344772339,-3.236205577850342
1403638131355097000,-0.05580011010169983,-0.0003718845546245575,0.05119701474905014,8.970758438110352,-0.6121731400489807,-3.203291177749634
1403638131360097000,-0.054441437125205994,0.01565765216946602,0.07491347938776016,8.880857467651367,-0.7267270088195801,-3.2438676357269287
1403638131365097000,-0.052369147539138794,0.028909020125865936,0.09445121139287949,8.839941024780273,-0.7186868190765381,-3.2599992752075195
1403638131370097000,-0.04889988899230957,0.029572781175374985,0.11748986691236496,8.643908500671387,-0.7679429054260254,-3.2353129386901855
1403638131375097000,-0.046814918518066406,0.03028567135334015,0.132145494222641,8.741820335388184,-0.7353181838989258,-3.2189064025878906
1403638131380097000,-0.04542629420757294,0.028863556683063507,0.14332860708236694,8.586523056030273,-0.7926812171936035,-3.1698012351989746
1403638131385097000,-0.042645424604415894,0.026797953993082047,0.15867415070533752,8.774338722229004,-0.7600274085998535,-3.169759750366211
1403638131390097000,-0.03846234083175659,0.02469446137547493,0.16427060961723328,8.717056274414062,-0.8255075812339783,-3.1125376224517822
1403638131395097000,-0.026604175567626953,0.027516577392816544,0.16565388441085815,8.92951774597168,-0.8255347609519958,-3.128877639770508
1403638131400097000,-0.024506956338882446,0.03240590542554855,0.16356241703033447,8.953973770141602,-0.8091613054275513,-3.071671724319458
1403638131405097000,-0.025896042585372925,0.04569846764206886,0.15586650371551514,9.198974609375,-0.7274283766746521,-3.128875732421875
1403638131410097000,-0.02658417820930481,0.0575605072081089,0.13982146978378296,9.149906158447266,-0.7109640836715698,-3.1288533210754395
1403638131415097000,-0.032854899764060974,0.07293032109737396,0.12306661158800125,9.2640962600708,-0.6863573789596558,-3.235041618347168
1403638131420097000,-0.03423374891281128,0.08617279678583145,0.10145295411348343,9.108838081359863,-0.6371421217918396,-3.161531448364258
1403638131425097000,-0.044675394892692566,0.0882740318775177,0.0791277065873146,9.149526596069336,-0.5716264843940735,-3.2025253772735596
1403638131430097000,-0.05092880129814148,0.08826834708452225,0.05262305587530136,9.075928688049316,-0.5142452120780945,-3.186323881149292
1403638131435097000,-0.06346072256565094,0.08896791189908981,0.03169365972280502,9.059353828430176,-0.391569048166275,-3.2355189323425293
1403638131440097000,-0.0759846568107605,0.08896204084157944,-0.01018545776605606,8.977290153503418,-0.3994905352592468,-3.2028238773345947
1403638131445097000,-0.08224219083786011,0.07850054651498795,-0.03882046788930893,8.952523231506348,-0.3748319745063782,-3.2273595333099365
1403638131450097000,-0.09546944499015808,0.06873289495706558,-0.07444942742586136,8.88664436340332,-0.284906268119812,-3.1946682929992676
1403638131455097000,-0.10522273182868958,0.05129220336675644,-0.10240738838911057,8.8535737991333,-0.22769862413406372,-3.2028236389160156
1403638131460097000,-0.11777490377426147,0.03940659016370773,-0.13666865229606628,8.690057754516602,-0.24405911564826965,-3.1290276050567627
1403638131465097000,-0.13312393426895142,0.019837260246276855,-0.15136069059371948,8.543397903442383,-0.3093723654747009,-3.0635299682617188
1403638131470097000,-0.1421802043914795,0.005867283791303635,-0.15834477543830872,8.470298767089844,-0.40730351209640503,-2.981739044189453
1403638131475097000,-0.14982616901397705,-0.018567614257335663,-0.1527370810508728,8.39764404296875,-0.5949347019195557,-2.9001882076263428
1403638131480097000,-0.15327537059783936,-0.03250127285718918,-0.14572271704673767,8.520256996154785,-0.7173064947128296,-2.843230962753296
1403638131485097000,-0.14766162633895874,-0.04715477675199509,-0.12753266096115112,8.529027938842773,-0.9540848731994629,-2.8437418937683105
1403638131490097000,-0.13787907361984253,-0.05621635913848877,-0.11285429447889328,8.61086368560791,-1.076664686203003,-2.8196258544921875
1403638131495097000,-0.12047430872917175,-0.05414147675037384,-0.07862196117639542,8.529596328735352,-1.1995370388031006,-2.8036577701568604
1403638131500097000,-0.09470567107200623,-0.05974312126636505,-0.05349411815404892,8.521629333496094,-1.2407702207565308,-2.811957597732544
1403638131505097000,-0.07590976357460022,-0.07023303210735321,-0.0213790163397789,8.497215270996094,-1.2739509344100952,-2.8120968341827393
1403638131510097000,-0.05641128122806549,-0.08139900863170624,-0.0032507702708244324,8.636214256286621,-1.1842612028121948,-2.9100558757781982
1403638131515097000,-0.03341981768608093,-0.08699685335159302,0.019796259701251984,8.579232215881348,-1.1272664070129395,-2.852701187133789
1403638131520097000,-0.015999868512153625,-0.09463901817798615,0.036539383232593536,8.783806800842285,-0.9393392205238342,-2.9179728031158447
1403638131525097000,-0.00972779095172882,-0.09951911121606827,0.051920659840106964,8.702363967895508,-0.8004453778266907,-2.909626007080078
1403638131530097000,-0.0013477355241775513,-0.10715736448764801,0.06030624359846115,8.833436965942383,-0.5961806178092957,-2.9015398025512695
1403638131535097000,0.0014448463916778564,-0.11133399605751038,0.06799594312906265,8.841758728027344,-0.5063333511352539,-2.901552677154541
1403638131540097000,5.653500556945801e-05,-0.11060532927513123,0.07147783786058426,9.029678344726562,-0.37568390369415283,-3.056945323944092
1403638131545097000,-0.0048180073499679565,-0.10222532600164413,0.07079397886991501,8.996930122375488,-0.28575894236564636,-3.040583610534668
1403638131550097000,-0.011779353022575378,-0.09383205324411392,0.06311865895986557,9.086592674255371,-0.1795133799314499,-3.1224019527435303
1403638131555097000,-0.016664475202560425,-0.08966078609228134,0.0540471151471138,8.923084259033203,-0.19572411477565765,-3.1222336292266846
1403638131560097000,-0.02014908194541931,-0.09035683423280716,0.04496597498655319,8.939346313476562,-0.22017422318458557,-3.138597011566162
1403638131565097000,-0.02432912588119507,-0.09805180877447128,0.032400451600551605,8.75145149230957,-0.22823551297187805,-3.1221063137054443
1403638131570097000,-0.02292598783969879,-0.11339148879051208,0.02471163123846054,8.833202362060547,-0.24458394944667816,-3.1549134254455566
1403638131575097000,-0.02082209289073944,-0.12595628201961517,0.007940597832202911,8.849603652954102,-0.3343946933746338,-3.1059391498565674
1403638131580097000,-0.024997085332870483,-0.13920214772224426,-0.0032459571957588196,8.988433837890625,-0.3671001195907593,-3.1143219470977783
1403638131585097000,-0.020809069275856018,-0.14758197963237762,-0.013043873012065887,9.021095275878906,-0.44064173102378845,-3.147026538848877
