#timestamp [ns],w_RS_S_x [rad s^-1],w_RS_S_y [rad s^-1],w_RS_S_z [rad s^-1],a_RS_S_x [m s^-2],a_RS_S_y [m s^-2],a_RS_S_z [m s^-2]
1403638127270097000,-0.010471975511965976,0.01117010721276371,0.06562437987498679,8.956740333333332,0.08172208333333333,-3.930832208333333
1403638127275097000,-0.012566370614359173,0.0153588974175501,0.059341194567807204,9.095667875,0.04903325,-3.947176625
1403638127280097000,-0.01117010721276371,0.0153588974175501,0.059341194567807204,9.07115125,-0.04086104166666667,-3.955348833333333
1403638127285097000,-0.011868238913561441,0.021642082724729686,0.04817108735504349,9.201906583333333,-0.08989429166666667,-3.9962098749999995
1403638127290097000,-0.01117010721276371,0.02722713633111154,0.050963614158234416,9.005773583333333,-0.16344416666666667,-3.947176625
1403638127295097000,-0.006283185307179587,0.03420845333908886,0.05305800926062762,8.964912541666667,-0.17978858333333333,-3.930832208333333
1403638127300097000,-0.006981317007977318,0.030019663134302467,0.05864306286700947,8.7279185,-0.196133,-3.87362675
1403638127305097000,-0.006981317007977318,0.019547687622336492,0.0614355896702004,8.77695175,-0.17978858333333333,-3.87362675
1403638127310097000,-0.013962634015954637,0.01117010721276371,0.06771877497737998,8.695229666666666,-0.24516625,-3.8491101249999997
1403638127315097000,-0.014660765716752367,0.010471975511965976,0.07330382858376185,8.842329416666665,-0.26151066666666667,-3.898143375
1403638127320097000,-0.014660765716752367,0.00767944870877505,0.08447393579652555,8.858673833333333,-0.4004382083333333,-3.8654545416666664
1403638127325097000,-0.008377580409572781,0.013962634015954637,0.09285151620609833,9.087495666666666,-0.392266,-3.92266
1403638127330097000,0.0020943951023931952,0.016755160819145562,0.10471975511965977,8.964912541666667,-0.43312704166666666,-3.97169325
1403638127335097000,0.017453292519943295,0.024434609527920613,0.11030480872604163,9.103840083333333,-0.34323275000000003,-3.97169325
1403638127340097000,0.01815142422074103,0.028623399732707,0.10471975511965977,8.891362666666666,-0.269682875,-3.930832208333333
1403638127345097000,0.020943951023931952,0.021642082724729686,0.10192722831646883,8.948568125,-0.04903325,-3.97169325
1403638127350097000,0.0153588974175501,0.016057029118347832,0.1054178868204575,8.825985,0.04903325,-3.955348833333333
1403638127355097000,0.010471975511965976,0.014660765716752367,0.10821041362364843,8.858673833333333,0.0980665,-3.9635210416666666
1403638127360097000,0.0020943951023931952,0.00767944870877505,0.1054178868204575,8.77695175,0.0980665,-3.92266
1403638127365097000,0.0,0.003490658503988659,0.10471975511965977,8.997601374999999,0.13892754166666665,-3.906315583333333
1403638127370097000,-0.004886921905584123,0.0020943951023931952,0.09704030641088471,8.981256958333333,0.06537766666666667,-3.9144877916666663
1403638127375097000,-0.009075712110370514,0.0013962634015954637,0.08587019919812101,9.1201845,0.08172208333333333,-3.92266
1403638127380097000,-0.009075712110370514,0.004886921905584123,0.0747000919853573,9.030290208333332,0.016344416666666667,-3.857282333333333
1403638127385097000,-0.004886921905584123,0.005585053606381855,0.06632251157578452,9.087495666666666,0.016344416666666667,-3.8654545416666664
1403638127390097000,-0.0041887902047863905,0.013264502315156905,0.060039326268604934,9.030290208333332,-0.016344416666666667,-3.906315583333333
1403638127395097000,-0.003490658503988659,0.014660765716752367,0.057246799465414,8.989429166666666,-0.016344416666666667,-3.9635210416666666
1403638127400097000,0.0006981317007977319,0.019547687622336492,0.04817108735504349,8.97308475,0.04903325,-3.97169325
1403638127405097000,-0.0027925268031909274,0.023736477827122883,0.04537856055185257,9.062979041666667,0.13075533333333333,-4.069759749999999
1403638127410097000,-0.005585053606381855,0.0307177948351002,0.05166174585903216,8.997601374999999,0.11441091666666667,-4.086104166666667
1403638127415097000,-0.013429385609924793,0.03037172555923462,0.0523906908929348,8.94564437866211,0.09826674312353134,-4.116368770599365
1403638127420097000,-0.016139429062604904,0.03307469189167023,0.05991790443658829,8.815415382385254,0.02624610997736454,-4.001929759979248
1403638127425097000,-0.018375109881162643,0.027476489543914795,0.05906852334737778,8.880837440490723,-0.04640858992934227,-3.9785709381103516
1403638127430097000,-0.021737944334745407,0.03155682981014252,0.06124131754040718,8.816051483154297,-0.12725244462490082,-3.994227886199951
1403638127435097000,-0.014198166318237782,0.034449756145477295,0.07383738458156586,8.937765121459961,-0.17670713365077972,-4.010127067565918
1403638127440097000,-0.006388497538864613,0.04211442172527313,0.07690003514289856,8.945981979370117,-0.2590714693069458,-4.0342326164245605
1403638127445097000,-0.0010769488289952278,0.04614059627056122,0.0824916735291481,9.067193984985352,-0.23575112223625183,-4.001248359680176
1403638127450097000,0.0018860874697566032,0.05316132307052612,0.08018610626459122,9.09150218963623,-0.15558049082756042,-3.976917266845703
1403638127455097000,0.008009213022887707,0.060790374875068665,0.08702833950519562,9.00174331665039,-0.09191868454217911,-3.8790526390075684
1403638127460097000,0.007788795046508312,0.06634613871574402,0.09084425121545792,8.789347648620605,-0.09943316876888275,-3.788639545440674
1403638127465097000,0.0018741367384791374,0.04973180592060089,0.09494335204362869,8.79763412475586,-0.04217017441987991,-3.7728724479675293
1403638127470097000,-0.009473812766373158,0.04205842316150665,0.09280389547348022,8.83901309967041,0.005444816779345274,-3.7657928466796875
1403638127475097000,-0.022301416844129562,0.03584359586238861,0.09206385165452957,8.87997817993164,-0.08274558186531067,-3.7497708797454834
1403638127480097000,-0.02598051354289055,0.026990652084350586,0.08856528997421265,8.807698249816895,-0.21194538474082947,-3.6765336990356445
1403638127485097000,-0.020474236458539963,0.011569485068321228,0.08954460173845291,8.840327262878418,-0.3099236786365509,-3.635972261428833
1403638127490097000,-0.017558496445417404,0.008652806282043457,0.08129850029945374,8.905815124511719,-0.37532705068588257,-3.652726173400879
1403638127495097000,-0.006886851973831654,0.003753259778022766,0.08101427555084229,8.897785186767578,-0.4249873459339142,-3.701434850692749
1403638127500097000,0.009398209862411022,0.013555631041526794,0.0735287219285965,9.02704906463623,-0.33710217475891113,-3.8156611919403076
1403638127505097000,0.014218377880752087,0.014812633395195007,0.07693792134523392,8.945426940917969,-0.22334985435009003,-3.847095251083374
1403638127510097000,0.01577972248196602,0.00917614996433258,0.07148174196481705,9.035005569458008,-0.029079630970954895,-4.010420322418213
1403638127515097000,0.01291604619473219,0.016845613718032837,0.0796186551451683,8.985705375671387,0.028372326865792274,-4.066444396972656
1403638127520097000,0.008179443888366222,0.013652101159095764,0.0830293670296669,8.888387680053711,0.10303525626659393,-4.074527740478516
1403638127525097000,0.008919852785766125,0.011452287435531616,0.0871526449918747,8.831084251403809,0.022289829328656197,-3.992553234100342
1403638127530097000,0.006652402691543102,0.0037852078676223755,0.0754408910870552,8.791284561157227,0.09601376950740814,-3.8636527061462402
1403638127535097000,-0.002205383963882923,-0.005876123905181885,0.07458207756280899,8.904778480529785,0.16210903227329254,-3.986426591873169
1403638127540097000,-0.014667433686554432,0.003911331295967102,0.07663385570049286,9.002178192138672,0.20296306908130646,-3.98694109916687
1403638127545097000,-0.023886781185865402,0.0010353773832321167,0.08633959293365479,8.953391075134277,0.06568247079849243,-3.9459805488586426
1403638127550097000,-0.02564726397395134,0.00837145745754242,0.08504944294691086,9.05960750579834,-0.13701960444450378,-3.841132164001465
1403638127555097000,-0.018420826643705368,0.0014425069093704224,0.0862848237156868,8.90648078918457,-0.32455602288246155,-3.7591702938079834
1403638127560097000,-0.00335500854998827,0.013461202383041382,0.07191397994756699,9.182856559753418,-0.36006471514701843,-3.849592924118042
1403638127565097000,0.009422975592315197,0.019096389412879944,0.06088858097791672,9.011834144592285,-0.2796785235404968,-3.848748207092285
1403638127570097000,0.011311369948089123,0.027552008628845215,0.05350377410650253,8.921972274780273,-0.059395454823970795,-3.9385013580322266
1403638127575097000,0.009312200360000134,0.019177958369255066,0.06439008563756943,8.742082595825195,-0.017688890919089317,-3.937495470046997
1403638127580097000,0.0012077270075678825,0.01430685818195343,0.07314492017030716,8.709668159484863,0.01589365489780903,-3.9449574947357178
1403638127585097000,-0.003801298327744007,0.0026512444019317627,0.08126569539308548,8.741976737976074,-0.07992074638605118,-3.9607956409454346
1403638127590097000,-0.006957155652344227,0.005317255854606628,0.07728534936904907,8.91358757019043,-0.032443318516016006,-4.034590721130371
1403638127595097000,-0.009790641255676746,0.0010037273168563843,0.08571112900972366,8.889603614807129,-0.1304633766412735,-3.9772589206695557
1403638127600097000,-0.0035174312070012093,0.007413133978843689,0.07985503226518631,9.084253311157227,-0.13003404438495636,-4.018094062805176
1403638127605097000,-0.002160114236176014,0.00870908796787262,0.08331117779016495,8.978507041931152,-0.15386052429676056,-3.943830728530884
1403638127610097000,0.005914199165999889,0.018406540155410767,0.08457963168621063,9.059197425842285,-0.17809969186782837,-3.944476366043091
1403638127615097000,0.011573481373488903,0.020430967211723328,0.0897788554430008,8.896378517150879,-0.09011461585760117,-3.919374942779541
1403638127620097000,0.01690186932682991,0.02813299000263214,0.08439141511917114,9.010433197021484,-0.009709443897008896,-3.95308256149292
1403638127625097000,0.012146192602813244,0.027583152055740356,0.07895326614379883,8.855732917785645,0.045683473348617554,-3.927663803100586
1403638127630097000,0.005383896641433239,0.031119883060455322,0.07151885330677032,8.928794860839844,0.16666404902935028,-4.017236709594727
1403638127635097000,-0.005263668484985828,0.02477957308292389,0.0685807392001152,8.814546585083008,0.19234775006771088,-3.9440419673919678
1403638127640097000,-0.011792314238846302,0.022781282663345337,0.061475563794374466,8.961545944213867,0.2412405163049698,-3.9695608615875244
1403638127645097000,-0.017046373337507248,0.018606945872306824,0.06273464113473892,8.856078147888184,0.08870665729045868,-3.8719675540924072
1403638127650097000,-0.02170000597834587,0.013846948742866516,0.054382529109716415,9.0441255569458,-0.015989085659384727,-3.921602725982666
1403638127655097000,-0.01962960883975029,0.016389921307563782,0.05217240750789642,8.954779624938965,-0.19407786428928375,-3.9296505451202393
1403638127660097000,-0.017032872885465622,0.019120559096336365,0.04491506516933441,9.019204139709473,-0.26781904697418213,-3.9147801399230957
1403638127665097000,-0.00845442432910204,0.029498964548110962,0.05186128616333008,8.856728553771973,-0.2770785987377167,-3.8643815517425537
1403638127670097000,-0.003796887584030628,0.030992791056632996,0.0587506927549839,8.961801528930664,-0.17208757996559143,-3.93746018409729
1403638127675097000,-0.0008854689076542854,0.03786219656467438,0.0696638897061348,8.896743774414062,-0.1969061940908432,-3.9357779026031494
1403638127680097000,-0.012812626548111439,0.03578333556652069,0.07235314697027206,8.96236515045166,-0.11639062315225601,-3.9373583793640137
1403638127685097000,-0.013496351428329945,0.037764087319374084,0.0848429873585701,8.783064842224121,-0.28635361790657043,-3.928117036819458
1403638127690097000,-0.00941495317965746,0.03567935526371002,0.09417711943387985,8.91306209564209,-0.3102046549320221,-3.9111928939819336
1403638127695097000,-0.001767200417816639,0.03352479636669159,0.1041300967335701,8.725882530212402,-0.3509938418865204,-3.8693573474884033
1403638127700097000,0.005082922987639904,0.02389964461326599,0.10146766155958176,8.847826957702637,-0.26931673288345337,-3.8862698078155518
1403638127705097000,0.01209788303822279,0.020485177636146545,0.10469181835651398,8.734442710876465,-0.17021749913692474,-3.8617217540740967
1403638127710097000,0.012260007672011852,0.009468182921409607,0.0998951867222786,8.78303337097168,-0.08142399787902832,-3.798248529434204
1403638127715097000,0.0018215654417872429,0.0018032342195510864,0.09432148188352585,8.823246002197266,-0.05741497501730919,-3.7500696182250977
1403638127720097000,0.001159357838332653,0.0010067075490951538,0.09437283128499985,9.017898559570312,0.0631461963057518,-3.8638312816619873
1403638127725097000,-0.002251964993774891,0.010032355785369873,0.09219183027744293,9.09121036529541,0.03696276992559433,-3.872297525405884
1403638127730097000,-0.007722717709839344,0.02040928602218628,0.08990325778722763,9.245879173278809,0.08470860868692398,-3.889007568359375
1403638127735097000,-0.007453036494553089,0.025952309370040894,0.08781887590885162,9.03499698638916,0.020650772377848625,-3.8722050189971924
1403638127740097000,-0.003464830107986927,0.023136302828788757,0.07901063561439514,9.09195613861084,-0.002879556268453598,-3.9049601554870605
1403638127745097000,-0.003989380784332752,0.027383312582969666,0.07130852341651917,8.905057907104492,0.006138173397630453,-3.9205918312072754
1403638127750097000,-0.007141334004700184,0.0226590633392334,0.06567738205194473,8.87240219116211,0.03950868174433708,-3.9698476791381836
1403638127755097000,-0.005278450436890125,0.020625561475753784,0.06021978706121445,8.70998764038086,-0.040554776787757874,-3.9369845390319824
1403638127760097000,-0.0055893780663609505,0.015017062425613403,0.05875501409173012,8.807764053344727,0.006922654341906309,-4.018374919891357
1403638127765097000,-0.006474536843597889,0.010949969291687012,0.05989964306354523,8.775395393371582,-0.02504945732653141,-4.018209934234619
1403638127770097000,-0.007222217507660389,0.0068176984786987305,0.0668756291270256,8.953662872314453,-0.008745052851736546,-4.026792526245117
1403638127775097000,-0.010315430350601673,0.009517833590507507,0.07453212887048721,9.018926620483398,-0.026118990033864975,-4.018954277038574
1403638127780097000,-0.009428960271179676,0.011377111077308655,0.07800819724798203,9.116828918457031,-0.1055159643292427,-4.019017696380615
1403638127785097000,-0.010548693127930164,0.021727755665779114,0.07884174585342407,9.002863883972168,-0.14599381387233734,-3.929126501083374
1403638127790097000,-0.007947874255478382,0.02726934850215912,0.08712548762559891,8.994972229003906,-0.23516233265399933,-3.928464412689209
1403638127795097000,-0.005858969874680042,0.03413580358028412,0.08995958417654037,8.88125228881836,-0.25876304507255554,-3.8956971168518066
1403638127800097000,-0.0023993374779820442,0.031391441822052,0.09149250388145447,8.962098121643066,-0.23596930503845215,-3.8961803913116455
1403638127805097000,-0.003035944886505604,0.03230336308479309,0.09064998477697372,8.84073257446289,-0.1874883472919464,-3.8629150390625
1403638127810097000,-0.001506519503891468,0.02476520836353302,0.09201439470052719,8.815938949584961,-0.16310402750968933,-3.8546125888824463
1403638127815097000,0.00022025685757398605,0.02545863389968872,0.09289540350437164,8.726055145263672,-0.18002818524837494,-3.870558023452759
1403638127820097000,0.0025622425600886345,0.018388137221336365,0.09983370453119278,8.880200386047363,-0.15560589730739594,-3.8949294090270996
1403638127825097000,0.0030141351744532585,0.021888285875320435,0.09298638254404068,8.83871078491211,-0.04270961508154869,-3.87925386428833
1403638127830097000,0.001693624071776867,0.014325320720672607,0.09622421860694885,8.863001823425293,0.03828961029648781,-3.928323268890381
1403638127835097000,-0.0002022506669163704,0.012216106057167053,0.09478086233139038,8.96088981628418,0.07986591756343842,-3.944157123565674
1403638127840097000,-0.0009733261540532112,0.015605464577674866,0.08944964408874512,9.12363338470459,0.0628666952252388,-3.9690608978271484
1403638127845097000,-0.007604521699249744,0.02677278220653534,0.08252953737974167,9.059263229370117,0.006551734637469053,-3.9693191051483154
1403638127850097000,-0.007873785682022572,0.02811311185359955,0.08641771227121353,9.067025184631348,-0.025725873187184334,-3.944045305252075
1403638127855097000,-0.007648748345673084,0.03225517272949219,0.08310001343488693,8.985777854919434,-0.051808539777994156,-3.9516804218292236
1403638127860097000,-0.007227164693176746,0.02874395251274109,0.08505705744028091,8.977781295776367,-0.07540954649448395,-3.919282913208008
1403638127865097000,-0.008492154069244862,0.033027589321136475,0.07951963692903519,8.913064002990723,-0.06704165786504745,-3.8954432010650635
1403638127870097000,-0.006658506579697132,0.025463908910751343,0.07963869720697403,8.75894832611084,-0.18029454350471497,-3.8303780555725098
1403638127875097000,-0.0024827541783452034,0.021290436387062073,0.0699363499879837,8.783329010009766,-0.1715560257434845,-3.847355842590332
1403638127880097000,-0.0030290009453892708,0.014914751052856445,0.07536257803440094,8.84026050567627,-0.13155072927474976,-3.871533155441284
1403638127885097000,-0.0018256427720189095,0.011607572436332703,0.07286098599433899,8.962882995605469,-0.10712698101997375,-3.872800827026367
1403638127890097000,-0.00018726009875535965,0.010844409465789795,0.08285598456859589,9.059956550598145,-0.09891972690820694,-3.872626781463623
1403638127895097000,-0.002285999245941639,0.018415674567222595,0.08212190121412277,9.0598783493042,-0.058120016008615494,-3.8887500762939453
1403638127900097000,-0.005824399180710316,0.021800488233566284,0.08848638832569122,9.059094429016113,-0.0737091600894928,-3.9209227561950684
1403638127905097000,-0.004172933287918568,0.028094574809074402,0.08304554969072342,9.01047420501709,-0.06523612141609192,-3.9535181522369385
1403638127910097000,-0.0017008306458592415,0.026653379201889038,0.08577781170606613,8.912837028503418,-0.07308326661586761,-4.025859832763672
1403638127915097000,0.00608824472874403,0.032169148325920105,0.08117175102233887,8.93702507019043,-0.05711064487695694,-3.98564076423645
1403638127920097000,0.008620458655059338,0.020497232675552368,0.07890626788139343,8.734254837036133,-0.03282153978943825,-3.887880802154541
1403638127925097000,0.003308701328933239,0.017929404973983765,0.07181628048419952,9.076319694519043,0.08807580173015594,-3.962366819381714
1403638127930097000,-0.008571517653763294,0.01856406033039093,0.06966409087181091,8.913354873657227,0.07964219152927399,-3.847928047180176
1403638127935097000,-0.02107570692896843,0.02204848825931549,0.06836205720901489,8.978069305419922,0.07121355086565018,-3.9380223751068115
1403638127940097000,-0.02519143745303154,0.021942853927612305,0.07662131637334824,8.782598495483398,-0.07379823923110962,-3.839174509048462
1403638127945097000,-0.026026111096143723,0.015565052628517151,0.07753614336252213,8.8161039352417,-0.21197575330734253,-3.815180540084839
1403638127950097000,-0.015083742327988148,0.005754366517066956,0.07882804423570633,8.945785522460938,-0.3505338430404663,-3.9041364192962646
1403638127955097000,-0.005877328105270863,0.01207701861858368,0.07127084583044052,8.987247467041016,-0.33474376797676086,-3.920701026916504
1403638127960097000,0.0030539212748408318,0.01499888300895691,0.06509605050086975,8.873339653015137,-0.3270391523838043,-3.8721601963043213
1403638127965097000,0.007272887043654919,0.017843440175056458,0.06376922130584717,8.970453262329102,-0.12363962084054947,-3.9050509929656982
1403638127970097000,0.005341458134353161,0.0184469074010849,0.06779425591230392,8.775110244750977,-0.01802739128470421,-3.8633153438568115
1403638127975097000,-0.00028992909938097,0.015797138214111328,0.06771683692932129,8.944862365722656,0.11964661628007889,-4.027080059051514
1403638127980097000,-0.00769729632884264,0.01435554027557373,0.07230889052152634,8.896452903747559,0.10437757521867752,-4.026247978210449
1403638127985097000,-0.009987724013626575,0.012868672609329224,0.07375045865774155,8.978218078613281,0.03930890932679176,-3.961982011795044
1403638127990097000,-0.01887507364153862,0.009975641965866089,0.07325772196054459,8.896873474121094,-0.05826225131750107,-3.945284605026245
1403638127995097000,-0.01907719299197197,0.012823447585105896,0.0712948739528656,8.954237937927246,-0.05690649524331093,-3.9207446575164795
1403638128000097000,-0.015713971108198166,0.016391724348068237,0.07263588905334473,8.864663124084473,-0.11325094848871231,-3.888390064239502
1403638128005097000,-0.01470975298434496,0.022599831223487854,0.07331498712301254,9.027241706848145,-0.1145152896642685,-3.897279977798462
1403638128010097000,-0.01233066339045763,0.02537176012992859,0.0718010887503624,8.970538139343262,-0.1465674340724945,-3.929048538208008
1403638128015097000,-0.002906245179474354,0.02825276553630829,0.06841903179883957,9.068121910095215,-0.11561286449432373,-3.961179256439209
1403638128020097000,0.0016463873907923698,0.026859581470489502,0.06089315935969353,8.872147560119629,-0.08448539674282074,-3.8800487518310547
1403638128025097000,-0.00235102791339159,0.019235864281654358,0.05936558172106743,8.92053508758545,0.004872957710176706,-3.864072561264038
1403638128030097000,-0.008042377419769764,0.017026886343955994,0.0573425367474556,8.742317199707031,0.005132893566042185,-3.871866464614868
1403638128035097000,-0.014905822463333607,0.009481266140937805,0.05869702622294426,8.864343643188477,0.0704810619354248,-3.9056143760681152
1403638128040097000,-0.019555162638425827,0.011715084314346313,0.06677629053592682,8.930414199829102,-0.032952092587947845,-3.928656816482544
1403638128045097000,-0.021946709603071213,0.011597126722335815,0.07371356338262558,9.092996597290039,-0.08159777522087097,-3.913344383239746
1403638128050097000,-0.01740546151995659,0.010727167129516602,0.07466074824333191,9.003372192382812,-0.29209908843040466,-3.8887598514556885
1403638128055097000,-0.011345905251801014,0.009938865900039673,0.07612908631563187,9.085038185119629,-0.3328958749771118,-3.92087459564209
1403638128060097000,-0.007857006974518299,0.01685340702533722,0.07414882630109787,8.921608924865723,-0.310257226228714,-3.848212957382202
1403638128065097000,-0.0022797705605626106,0.018372565507888794,0.07211005687713623,8.929823875427246,-0.22098210453987122,-3.8881373405456543
1403638128070097000,-0.00022367853671312332,0.019800156354904175,0.07747188955545425,8.816437721252441,-0.12392409145832062,-3.879436731338501
1403638128075097000,0.0009380457922816277,0.01838226616382599,0.0892239362001419,8.823192596435547,-0.018740609288215637,-3.9284541606903076
1403638128080097000,-0.005133909173309803,0.016392767429351807,0.09273339062929153,8.896221160888672,0.022255949676036835,-4.057603359222412
1403638128085097000,-0.011336308903992176,0.012937620282173157,0.09672751277685165,8.944681167602539,0.005833260249346495,-4.016815662384033
1403638128090097000,-0.014175784774124622,0.017715752124786377,0.09349764138460159,8.95317268371582,-0.01866934634745121,-3.992854595184326
1403638128095097000,-0.016093414276838303,0.017595648765563965,0.0950671061873436,8.945747375488281,-0.12282681465148926,-4.000227928161621
1403638128100097000,-0.011480671353638172,0.02388596534729004,0.08744438737630844,8.815860748291016,-0.15471160411834717,-3.943831205368042
1403638128105097000,-0.002289694733917713,0.01698574423789978,0.08875337988138199,8.863903999328613,-0.10607292503118515,-3.879047155380249
1403638128110097000,-0.001720142550766468,0.01559235155582428,0.08593422919511795,8.872194290161133,-0.08905325829982758,-3.879246950149536
1403638128115097000,-0.0031068744137883186,0.003817230463027954,0.08845597505569458,8.945271492004395,-0.0822712704539299,-3.8474133014678955
1403638128120097000,-0.007056248374283314,0.006652697920799255,0.08581050485372543,9.0106782913208,-0.042906466871500015,-3.8807053565979004
1403638128125097000,-0.008670699782669544,0.009388506412506104,0.09219104051589966,8.978828430175781,-0.1973644495010376,-3.8472700119018555
1403638128130097000,-0.0029515447095036507,0.011497706174850464,0.0894276425242424,8.962782859802246,-0.18224582076072693,-3.830990791320801
1403638128135097000,-0.00043825525790452957,0.008568450808525085,0.0886533260345459,8.864507675170898,-0.17339280247688293,-3.8713629245758057
1403638128140097000,0.0018125353381037712,0.006548941135406494,0.08383648097515106,8.970057487487793,-0.0755009651184082,-3.9773361682891846
1403638128145097000,-0.0008458616212010384,0.011391028761863708,0.09133771806955338,8.937355041503906,-0.07393492013216019,-4.025186538696289
1403638128150097000,-0.0009369673207402229,0.01904602348804474,0.0893787071108818,9.075769424438477,-0.0327569916844368,-4.082973003387451
1403638128155097000,-0.0034170569851994514,0.025220781564712524,0.09485062211751938,8.856151580810547,-0.09707096964120865,-4.048877239227295
1403638128160097000,-0.0008493484929203987,0.025958240032196045,0.09355243295431137,8.823606491088867,-0.04826202243566513,-4.057162284851074
1403638128165097000,-0.0037165703251957893,0.023195356130599976,0.09486017376184464,8.692764282226562,-0.0649837851524353,-3.9996883869171143
1403638128170097000,-4.76958230137825e-05,0.019919797778129578,0.0901169404387474,8.85612964630127,-0.06619321554899216,-4.056907653808594
1403638128175097000,-0.0016769291833043098,0.015732541680336,0.09284547716379166,8.782289505004883,-0.08175987005233765,-3.951801300048828
1403638128180097000,-0.0009270729497075081,0.013645529747009277,0.0901123583316803,8.912506103515625,0.031776320189237595,-3.993659257888794
1403638128185097000,-0.0010414542630314827,0.011508822441101074,0.0892115980386734,8.896531105041504,-0.017386898398399353,-3.863063335418701
1403638128190097000,-0.000415814109146595,0.010814294219017029,0.08094830065965652,9.083970069885254,-0.04119819030165672,-3.856919050216675
1403638128195097000,0.0010815439745783806,0.014229163527488708,0.07887635380029678,8.994840621948242,-0.033870335668325424,-3.8234200477600098
1403638128200097000,-0.0016528191044926643,0.014968961477279663,0.06918419897556305,9.101186752319336,0.04599831625819206,-3.8163950443267822
1403638128205097000,-0.0009434344246983528,0.021275043487548828,0.06766019016504288,8.995071411132812,0.015233300626277924,-3.848548173904419
1403638128210097000,-0.00503878016024828,0.021317213773727417,0.0635298490524292,9.092798233032227,0.07947659492492676,-3.8645875453948975
1403638128215097000,-0.010519725270569324,0.02748189866542816,0.06196501851081848,8.978129386901855,0.038853585720062256,-3.864192485809326
1403638128220097000,-0.012090426869690418,0.03924588859081268,0.061952318996191025,9.075385093688965,0.06492427736520767,-3.9625465869903564
1403638128225097000,-0.016679327934980392,0.04070483148097992,0.0641191378235817,8.799116134643555,-0.08935554325580597,-3.920403242111206
1403638128230097000,-0.013746571727097034,0.031028524041175842,0.0642746314406395,8.82394027709961,-0.17112143337726593,-3.9613399505615234
1403638128235097000,-0.014032882638275623,0.026845738291740417,0.06422728300094604,8.669882774353027,-0.23523534834384918,-3.9120373725891113
1403638128240097000,-0.011596632190048695,0.019939780235290527,0.06636437028646469,8.832194328308105,-0.22805848717689514,-3.9694015979766846
1403638128245097000,-0.006516230292618275,0.0185747891664505,0.07054031640291214,8.782792091369629,-0.24488598108291626,-3.9447081089019775
1403638128250097000,0.0017686663195490837,0.012959063053131104,0.07267554849386215,8.872611045837402,-0.22790281474590302,-3.9368526935577393
1403638128255097000,0.003046858124434948,0.01286230981349945,0.07330889254808426,8.946081161499023,-0.18038566410541534,-3.9369847774505615
1403638128260097000,0.00469930749386549,0.010828867554664612,0.0774758905172348,8.970428466796875,-0.03469950333237648,-3.929086685180664
1403638128265097000,0.00505025964230299,0.016457274556159973,0.07812615483999252,8.962035179138184,0.03891141340136528,-3.9211173057556152
1403638128270097000,-0.004888010211288929,0.021145522594451904,0.08024363964796066,8.986251831054688,0.030640196055173874,-3.9124865531921387
1403638128275097000,-0.006527078337967396,0.024568960070610046,0.0788940042257309,8.945749282836914,0.046750377863645554,-3.8881428241729736
1403638128280097000,-0.0071402015164494514,0.030809834599494934,0.0802002027630806,9.07533073425293,-0.032963480800390244,-3.9288899898529053
1403638128285097000,-0.006309849210083485,0.0392032116651535,0.07473314553499222,8.96201229095459,-0.1138908639550209,-3.9447169303894043
1403638128290097000,-0.008001101203262806,0.030267223715782166,0.07197880744934082,8.994701385498047,-0.10744094848632812,-3.970015525817871
1403638128295097000,-0.00846604723483324,0.034376949071884155,0.07270552963018417,8.880772590637207,-0.09023991227149963,-3.969367504119873
1403638128300097000,-0.00805769581347704,0.03031519055366516,0.07964091002941132,8.66080379486084,-0.12214981019496918,-3.9113285541534424
1403638128305097000,-0.005082559771835804,0.02148914337158203,0.0775720551609993,8.70899486541748,-0.058917056769132614,-3.936586380004883
1403638128310097000,-0.0026350142434239388,0.013598784804344177,0.08301709592342377,8.806344985961914,-0.026303574442863464,-3.968439817428589
1403638128315097000,-0.0049978019669651985,0.017662107944488525,0.07686403393745422,8.920492172241211,-0.08329290896654129,-4.0020670890808105
1403638128320097000,-0.0010419907048344612,0.015041530132293701,0.07267346233129501,8.969376564025879,-0.07565370947122574,-3.977529525756836
1403638128325097000,-0.004468482919037342,0.024095356464385986,0.07129143178462982,8.98638916015625,0.013736186549067497,-3.961536169052124
1403638128330097000,-0.0020772935822606087,0.027429252862930298,0.07753100991249084,9.010366439819336,-0.033989205956459045,-3.9446938037872314
1403638128335097000,-0.0037202956154942513,0.032938212156295776,0.07264556735754013,9.075758934020996,0.015439788810908794,-3.969289779663086
1403638128340097000,-0.007052046246826649,0.03642450273036957,0.07169490307569504,8.913217544555664,-0.024126539006829262,-3.912064552307129
1403638128345097000,-0.012020868249237537,0.03100655972957611,0.06141127645969391,8.954320907592773,-0.04088685289025307,-3.8723931312561035
1403638128350097000,-0.011982363648712635,0.021887362003326416,0.06979145109653473,8.823846817016602,-0.0730707049369812,-3.8390228748321533
1403638128355097000,-0.014165562577545643,0.02953791618347168,0.06920263916254044,8.970504760742188,-0.10654986649751663,-3.8719871044158936
1403638128360097000,-0.010053080506622791,0.024133354425430298,0.07402712851762772,8.8486909866333,-0.1960717737674713,-3.790221691131592
1403638128365097000,-0.007354122586548328,0.02141834795475006,0.06910926103591919,9.027838706970215,-0.17232473194599152,-3.8082971572875977
1403638128370097000,-0.013596844859421253,0.019083872437477112,0.07225853204727173,8.865056037902832,-0.2136078029870987,-3.839355945587158
1403638128375097000,-0.012032848782837391,0.01973418891429901,0.07190428674221039,9.019078254699707,-0.1563471555709839,-3.8564116954803467
1403638128380097000,-0.010995549149811268,0.020553693175315857,0.07828756421804428,8.8883638381958,-0.15571074187755585,-3.8151419162750244
1403638128385097000,-0.004396182484924793,0.02187986671924591,0.08102308958768845,8.929025650024414,-0.11605942994356155,-3.871983289718628
1403638128390097000,-0.003193807788193226,0.024421274662017822,0.08500844985246658,8.854782104492188,-0.09913818538188934,-3.895725965499878
1403638128395097000,-0.0037092091515660286,0.022593781352043152,0.08225109428167343,8.986546516418457,-0.07405787706375122,-3.9935216903686523
1403638128400097000,-0.0036593498662114143,0.026799961924552917,0.08714041113853455,8.856573104858398,-0.14010494947433472,-3.968108654022217
1403638128405097000,-0.003460627980530262,0.026711255311965942,0.09090106934309006,8.937067031860352,-0.08308174461126328,-4.0173726081848145
1403638128410097000,-0.0031955661252141,0.02670121192932129,0.09285932779312134,8.766507148742676,-0.09748043864965439,-3.902637004852295
1403638128415097000,0.003362405113875866,0.01769392192363739,0.09425089508295059,8.806524276733398,-0.06628492474555969,-3.9438815116882324
1403638128420097000,-0.00036151427775621414,0.01559537649154663,0.08935194462537766,8.8229398727417,-0.04227064549922943,-3.911688804626465
1403638128425097000,-0.003861469216644764,0.01011723279953003,0.08935423940420151,8.929458618164062,-0.024485483765602112,-3.9124958515167236
1403638128430097000,-0.007009577937424183,0.008613154292106628,0.09007328003644943,8.83169174194336,-0.07478015124797821,-3.871699094772339
1403638128435097000,-0.00952459592372179,0.005202621221542358,0.09082643687725067,8.962162017822266,-0.07531024515628815,-3.856003999710083
1403638128440097000,-0.005712044425308704,0.012226313352584839,0.09071014821529388,9.035429954528809,-0.0906277671456337,-3.863934278488159
1403638128445097000,0.00033335667103528976,0.017683684825897217,0.0850803330540657,9.116128921508789,-0.08391324430704117,-3.896505832672119
1403638128450097000,0.0004202602431178093,0.02740192413330078,0.0775035172700882,8.969964981079102,-0.08310773968696594,-3.872114896774292
1403638128455097000,-0.0070588113740086555,0.02392558753490448,0.07407116889953613,8.970105171203613,-0.04976935684680939,-3.896928548812866
1403638128460097000,-0.012791168875992298,0.02730517089366913,0.07401405274868011,8.872217178344727,-0.0014700613683089614,-3.961357355117798
1403638128465097000,-0.01264036912471056,0.01976606249809265,0.08026082068681717,8.831538200378418,-0.0730692446231842,-3.985110282897949
1403638128470097000,-0.016022633761167526,0.02264729142189026,0.08289699256420135,8.839811325073242,-0.06543852388858795,-3.9768052101135254
1403638128475097000,-0.012340527959167957,0.016261085867881775,0.0953168198466301,8.791288375854492,-0.21984684467315674,-3.9111404418945312
1403638128480097000,-0.005006921477615833,0.012169823050498962,0.09079071134328842,8.800210952758789,-0.2925596833229065,-3.895426034927368
1403638128485097000,0.0002846596762537956,0.012891501188278198,0.08731266856193542,8.889326095581055,-0.2533379793167114,-3.8627803325653076
1403638128490097000,0.003164219669997692,0.013673409819602966,0.0783793106675148,8.905378341674805,-0.15570753812789917,-3.9285950660705566
1403638128495097000,0.004625814966857433,0.009369060397148132,0.08111868053674698,8.969990730285645,-0.12283060699701309,-3.945049285888672
1403638128500097000,0.004605072550475597,0.01901473104953766,0.0851147249341011,8.985896110534668,0.03840292990207672,-3.9777040481567383
1403638128505097000,0.0005563376471400261,0.021120741963386536,0.091226726770401,8.945038795471191,0.05562499538064003,-3.976511001586914
1403638128510097000,-0.005811554379761219,0.0288640558719635,0.08428724110126495,8.95362377166748,0.08813070505857468,-3.9527015686035156
1403638128515097000,-0.010583323426544666,0.023965269327163696,0.08280815929174423,8.81510066986084,0.06318066269159317,-3.9119412899017334
1403638128520097000,-0.009965729899704456,0.02677689492702484,0.0740429162979126,8.921082496643066,0.023328695446252823,-3.920419931411743
1403638128525097000,-0.012207609601318836,0.020599007606506348,0.06937853246927261,8.864714622497559,-0.05729522928595543,-3.8553667068481445
1403638128530097000,-0.011262965388596058,0.01657022535800934,0.06652585417032242,9.003462791442871,-0.1145436242222786,-3.8887693881988525
1403638128535097000,-0.008716863580048084,0.01499706506729126,0.07101244479417801,8.929704666137695,-0.1465093046426773,-3.8959925174713135
1403638128540097000,-0.007200104184448719,0.021185949444770813,0.0696805790066719,8.994876861572266,-0.12281688302755356,-3.9378156661987305
1403638128545097000,-0.005883228965103626,0.024716123938560486,0.07448264211416245,8.913142204284668,-0.13946913182735443,-3.8802385330200195
1403638128550097000,-0.009900313802063465,0.023352280259132385,0.07196558266878128,9.002681732177734,-0.11636696755886078,-3.9293830394744873
1403638128555097000,-0.007269633002579212,0.02252867817878723,0.07552855461835861,8.839765548706055,-0.14841939508914948,-3.944277286529541
1403638128560097000,-0.0022988440468907356,0.020477324724197388,0.0761200413107872,8.96208381652832,-0.09135909378528595,-3.9448955059051514
1403638128565097000,-0.0010174931958317757,0.0239923894405365,0.0767703726887703,8.839978218078613,-0.14843633770942688,-3.879532814025879
1403638128570097000,-0.005141151137650013,0.019243821501731873,0.08088450133800507,8.978248596191406,-0.08254873007535934,-3.880310535430908
1403638128575097000,-0.0023348452523350716,0.021863847970962524,0.07799898833036423,8.847962379455566,-0.05706128850579262,-3.8632652759552
1403638128580097000,-0.0030783237889409065,0.01776789128780365,0.07883507758378983,8.913047790527344,-0.017158212140202522,-3.8800172805786133
1403638128585097000,-0.009069007821381092,0.017848581075668335,0.07965289801359177,8.856452941894531,-0.11331404000520706,-3.8716702461242676
1403638128590097000,-0.003098738379776478,0.012189984321594238,0.08655480295419693,9.035372734069824,-0.04875998944044113,-3.9045841693878174
1403638128595097000,-0.0036251069977879524,0.01964382827281952,0.08730360120534897,8.96202278137207,-0.15623587369918823,-3.903592586517334
1403638128600097000,-0.00028060097247362137,0.023872345685958862,0.08930016309022903,9.018918991088867,-0.11504392325878143,-3.9445717334747314
1403638128605097000,-0.0017445208504796028,0.030219942331314087,0.08160848170518875,8.880444526672363,-0.09100774675607681,-3.871748924255371
1403638128610097000,-0.00301401037722826,0.02537405490875244,0.07752861082553864,8.929337501525879,-0.018922563642263412,-3.9291882514953613
1403638128615097000,-0.005221289582550526,0.028825461864471436,0.07410774379968643,8.847752571105957,0.014466051012277603,-3.953240394592285
1403638128620097000,-0.00718612689524889,0.0261734277009964,0.0789845883846283,8.855528831481934,0.015220741741359234,-3.944612741470337
1403638128625097000,-0.009470892138779163,0.022816449403762817,0.07478277385234833,8.798749923706055,0.02295076660811901,-3.9120588302612305
1403638128630097000,-0.011775595135986805,0.018430665135383606,0.075884610414505,8.88012981414795,-0.08220818638801575,-3.936326742172241
1403638128635097000,-0.015032303519546986,0.019086197018623352,0.0649074837565422,8.921537399291992,-0.15522971749305725,-3.9044840335845947
1403638128640097000,-0.014180314727127552,0.012236833572387695,0.06494390219449997,8.824108123779297,-0.11487657576799393,-3.8480112552642822
1403638128645097000,-0.015316558070480824,0.008101150393486023,0.06783929467201233,8.856816291809082,-0.18736742436885834,-3.8726186752319336
1403638128650097000,-0.015878092497587204,0.0030844658613204956,0.07476945221424103,8.954666137695312,-0.2038765698671341,-3.9212377071380615
1403638128655097000,-0.01117656845599413,0.010660812258720398,0.08023422956466675,8.954835891723633,-0.27717262506484985,-3.8883752822875977
1403638128660097000,-0.005423796363174915,0.012107819318771362,0.08835253864526749,8.864645004272461,-0.2609400749206543,-3.839097261428833
1403638128665097000,-0.005098474211990833,0.013506636023521423,0.08717118203639984,8.91347599029541,-0.16471299529075623,-3.8636412620544434
1403638128670097000,-0.007269364781677723,0.006321951746940613,0.09835218638181686,8.937543869018555,-0.19752128422260284,-3.8950929641723633
1403638128675097000,-0.008594316430389881,0.007810533046722412,0.0991702601313591,9.092456817626953,-0.1486629843711853,-3.9202871322631836
1403638128680097000,-0.012684476561844349,0.0058538466691970825,0.10533062368631363,8.92994499206543,-0.16430440545082092,-3.830592155456543
1403638128685097000,-0.013555062003433704,0.002400532364845276,0.10524465888738632,8.929741859436035,-0.15657874941825867,-3.806368350982666
1403638128690097000,-0.019666504114866257,-0.006156012415885925,0.1120467483997345,8.856104850769043,-0.19548210501670837,-3.853879928588867
1403638128695097000,-0.019098322838544846,-0.017257660627365112,0.11516142636537552,8.929542541503906,-0.17990931868553162,-3.8305211067199707
1403638128700097000,-0.014242005534470081,-0.017185762524604797,0.11862519383430481,8.888313293457031,-0.17256568372249603,-3.8142833709716797
1403638128705097000,-0.014070463366806507,-0.010899737477302551,0.11928572505712509,9.091896057128906,-0.07536719739437103,-3.928060293197632
1403638128710097000,-0.008008074946701527,-0.0019616633653640747,0.11312132328748703,8.978174209594727,-0.09139151126146317,-3.935396432876587
1403638128715097000,-0.0056765200570225716,0.004353359341621399,0.10325264930725098,9.15713882446289,0.004836157895624638,-4.009393692016602
1403638128720097000,-0.003940952010452747,0.014097988605499268,0.09628855437040329,8.920576095581055,0.11859898269176483,-4.017099380493164
1403638128725097000,-0.009767633862793446,0.01554076373577118,0.09352738410234451,8.960646629333496,0.29025888442993164,-4.0914130210876465
1403638128730097000,-0.014226478524506092,0.018284648656845093,0.09403536468744278,8.797410011291504,0.21010370552539825,-4.065633773803711
1403638128735097000,-0.016282211989164352,0.019097670912742615,0.08368346095085144,8.880411148071289,0.20200422406196594,-4.04242467880249
1403638128740097000,-0.022323500365018845,0.018536150455474854,0.07733097672462463,8.79930305480957,0.13092052936553955,-3.969254732131958
1403638128745097000,-0.028343122452497482,0.006849274039268494,0.0662703588604927,8.832022666931152,0.07380794733762741,-3.9700536727905273
1403638128750097000,-0.03201131150126457,0.003246590495109558,0.06491570919752121,8.73482894897461,-0.08008255064487457,-3.912461996078491
1403638128755097000,-0.03371269628405571,-0.0030770599842071533,0.0684252604842186,8.962969779968262,-0.20201846957206726,-3.91394305229187
1403638128760097000,-0.030926775187253952,0.003901556134223938,0.07245323807001114,8.889993667602539,-0.267993688583374,-3.8728067874908447
1403638128765097000,-0.021032582968473434,0.005956336855888367,0.07373832911252975,8.963091850280762,-0.27599766850471497,-3.9050114154815674
1403638128770097000,-0.010222566314041615,0.0203513503074646,0.07863811403512955,9.051861763000488,-0.26103851199150085,-4.010372161865234
1403638128775097000,-0.0001722993329167366,0.03347010910511017,0.07827214151620865,8.978568077087402,-0.20455999672412872,-4.058705806732178
1403638128780097000,0.007126498036086559,0.03918351233005524,0.07637099921703339,8.807340621948242,-0.15443822741508484,-4.106027126312256
1403638128785097000,0.006791877560317516,0.035189539194107056,0.07136962562799454,8.700785636901855,0.06471194326877594,-4.057741641998291
1403638128790097000,-0.003712308593094349,0.028308674693107605,0.06489050388336182,8.717643737792969,0.2678684592247009,-4.059128761291504
1403638128795097000,-0.016174297779798508,0.02484402060508728,0.06752195954322815,8.815044403076172,0.2526572644710541,-4.042738914489746
1403638128800097000,-0.027086328715085983,0.025676250457763672,0.059242166578769684,8.799240112304688,0.09889642894268036,-3.977872848510742
1403638128805097000,-0.03973020240664482,0.008254721760749817,0.05651431530714035,8.775093078613281,-0.06315255165100098,-3.871929407119751
1403638128810097000,-0.0418822281062603,0.0010526776313781738,0.05994701758027077,8.823912620544434,-0.27485191822052,-3.8479363918304443
1403638128815097000,-0.032891225069761276,-0.0010925382375717163,0.06835382431745529,8.897737503051758,-0.4635857939720154,-3.921393871307373
1403638128820097000,-0.0266178660094738,0.0025277286767959595,0.07132528722286224,8.97188663482666,-0.44924843311309814,-3.904839038848877
1403638128825097000,-0.026803087443113327,0.00019058585166931152,0.080193430185318,8.922840118408203,-0.4659402370452881,-3.8313980102539062
1403638128830097000,-0.0212867371737957,0.0020301491022109985,0.09195162355899811,9.004172325134277,-0.4436199367046356,-3.7906272411346436
1403638128835097000,-0.015495491214096546,0.011620521545410156,0.1149485781788826,9.06044864654541,-0.4848838746547699,-3.9107706546783447
1403638128840097000,-0.010776502080261707,0.018065348267555237,0.12688995897769928,8.962505340576172,-0.4277610778808594,-3.828563690185547
1403638128845097000,-0.003787321038544178,0.013875454664230347,0.14225399494171143,8.864447593688965,-0.322888046503067,-3.900702476501465
1403638128850097000,0.0025636134669184685,0.019986987113952637,0.14707431197166443,8.863181114196777,-0.13542231917381287,-3.8602349758148193
1403638128855097000,0.013665813021361828,0.009106263518333435,0.14502348005771637,8.76535415649414,-0.07567590475082397,-3.9250223636627197
1403638128860097000,0.014653909020125866,0.01224498450756073,0.11759152263402939,9.205528259277344,0.11987500637769699,-4.138541221618652
1403638128865097000,0.008245456032454967,0.015619233250617981,0.09939917922019958,8.837936401367188,0.33233606815338135,-4.050408363342285
1403638128870097000,0.004161315970122814,0.016984254121780396,0.08255772292613983,8.943548202514648,0.503055214881897,-4.150514125823975
1403638128875097000,0.0006237206980586052,0.025378704071044922,0.07138852775096893,8.919575691223145,0.479484885931015,-4.149538516998291
1403638128880097000,-0.002881002612411976,0.02635139226913452,0.046410173177719116,8.897368431091309,0.4546396732330322,-4.093889236450195
1403638128885097000,-0.01657552644610405,0.024151310324668884,0.025305116549134254,8.87261962890625,0.3893376588821411,-4.134862422943115
1403638128890097000,-0.024047832936048508,0.031589388847351074,0.012687813490629196,8.930577278137207,0.3086240887641907,-4.029102325439453
1403638128895097000,-0.029298406094312668,0.028997913002967834,0.007812317926436663,8.840677261352539,0.03258182853460312,-4.004309177398682
1403638128900097000,-0.027381520718336105,0.03396114706993103,0.007966909557580948,8.913333892822266,-0.08268073946237564,-3.9386377334594727
1403638128905097000,-0.0164763443171978,0.030433595180511475,0.01738641783595085,8.759815216064453,-0.210899218916893,-3.8075454235076904
1403638128910097000,-0.0057762982323765755,0.020717203617095947,0.024704908952116966,9.020095825195312,-0.2683447599411011,-3.7764463424682617
1403638128915097000,-0.0074503542855381966,0.019997775554656982,0.022607002407312393,8.963507652282715,-0.2296467274427414,-3.7687299251556396
1403638128920097000,-0.010367614217102528,0.024246349930763245,0.023714615032076836,9.191427230834961,-0.20382077991962433,-3.834904193878174
1403638128925097000,-0.015197587199509144,0.03723342716693878,0.03770414739847183,9.060298919677734,-0.30897361040115356,-3.8905744552612305
1403638128930097000,-0.009128314442932606,0.039205387234687805,0.052351512014865875,8.864294052124023,-0.36556485295295715,-3.86478590965271
1403638128935097000,-0.0035068513825535774,0.04329530894756317,0.06817545741796494,8.750273704528809,-0.3560596704483032,-3.936526298522949
1403638128940097000,0.00030423980206251144,0.04184931516647339,0.07797599583864212,8.734333038330078,-0.33166804909706116,-4.001183032989502
1403638128945097000,0.011147099547088146,0.039971351623535156,0.08032643795013428,8.774733543395996,-0.3157713711261749,-4.146751880645752
1403638128950097000,0.009581225924193859,0.04071798920631409,0.08254938572645187,8.823657989501953,-0.2668674886226654,-4.161516189575195
1403638128955097000,0.00739701371639967,0.04133744537830353,0.08010024577379227,8.635501861572266,-0.1702607274055481,-4.024279594421387
1403638128960097000,0.008880156092345715,0.024163007736206055,0.08914767950773239,8.71603012084961,-0.07426875084638596,-3.9838638305664062
1403638128965097000,0.008014309220016003,0.017101362347602844,0.08742207288742065,8.838969230651855,-0.018606843426823616,-4.015888214111328
1403638128970097000,-0.002321016974747181,0.00592552125453949,0.08915167301893234,8.984436988830566,0.02765735797584057,-3.944518804550171
1403638128975097000,-0.009226066060364246,0.012957632541656494,0.08022123575210571,9.083635330200195,0.13964210450649261,-3.871490001678467
1403638128980097000,-0.01439253706485033,0.012166202068328857,0.07547380775213242,9.01140308380127,0.06774618476629257,-3.7910451889038086
1403638128985097000,-0.016794424504041672,0.010762274265289307,0.06660512089729309,9.067496299743652,0.035997211933135986,-3.823606491088867
1403638128990097000,-0.02205110713839531,0.017521291971206665,0.06314343214035034,9.026908874511719,-0.09321019053459167,-3.798011302947998
1403638128995097000,-0.01636705920100212,0.02457226812839508,0.05811343342065811,9.002721786499023,-0.10999766737222672,-3.758899211883545
1403638129000097000,-0.00998909492045641,0.02545623481273651,0.07037525624036789,8.596586227416992,-0.19746345281600952,-3.578720808029175
1403638129005097000,-0.0008107544854283333,0.0011192262172698975,0.08439010381698608,8.523871421813965,-0.18770359456539154,-3.4573233127593994
1403638129010097000,0.008084136061370373,-0.008181467652320862,0.09495057910680771,8.945825576782227,-0.3112674653530121,-3.6854283809661865
1403638129015097000,0.014733421616256237,0.016847968101501465,0.0888902023434639,9.767721176147461,-0.19130092859268188,-4.060582160949707
1403638129020097000,0.011465656571090221,0.04832139611244202,0.0763256698846817,9.775394439697266,-0.09312724322080612,-4.256346702575684
1403638129025097000,0.0038021085783839226,0.07939466834068298,0.05492863059043884,9.63707160949707,-0.1423497498035431,-4.207127571105957
1403638129030097000,0.003506558947265148,0.0723625123500824,0.035299815237522125,8.913089752197266,-0.229839488863945,-3.928384780883789
1403638129035097000,0.008306371979415417,0.04352591931819916,0.008916197344660759,8.970185279846191,-0.13036379218101501,-4.019427299499512
1403638129040097000,0.005003291182219982,0.040185824036598206,-0.01358521543443203,9.116256713867188,-0.04915602505207062,-4.305327415466309
1403638129045097000,-0.003370833583176136,0.0348740816116333,-0.04030638560652733,9.224006652832031,0.16214992105960846,-4.300647735595703
1403638129050097000,-0.020420651882886887,0.033479586243629456,-0.05164186656475067,9.134765625,0.14637473225593567,-4.161532402038574
1403638129055097000,-0.03197536990046501,0.025055035948753357,-0.061937201768159866,9.078582763671875,0.048563212156295776,-3.9724605083465576
1403638129060097000,-0.042879294604063034,0.016771629452705383,-0.06983646005392075,9.060644149780273,-0.1552589237689972,-3.972917318344116
1403638129065097000,-0.04607165977358818,0.013128817081451416,-0.08394079655408859,9.238136291503906,-0.39294368028640747,-4.031954288482666
1403638129070097000,-0.043930720537900925,0.015656784176826477,-0.09463804215192795,8.979134559631348,-0.38723328709602356,-3.935744047164917
1403638129075097000,-0.04408521577715874,0.0071114301681518555,-0.08483745902776718,9.076828956604004,-0.31342288851737976,-3.9519827365875244
1403638129080097000,-0.04828635975718498,0.009108960628509521,-0.073520727455616,8.882148742675781,-0.2884199619293213,-3.9823973178863525
1403638129085097000,-0.05022967979311943,-0.0018568933010101318,-0.0630234107375145,8.938138961791992,-0.23898513615131378,-4.031520843505859
1403638129090097000,-0.04969720169901848,0.005143553018569946,-0.054932329803705215,9.001616477966309,-0.2548193335533142,-4.138242244720459
1403638129095097000,-0.04402966424822807,0.010965734720230103,-0.04241679608821869,9.002618789672852,-0.30494606494903564,-4.137334823608398
1403638129100097000,-0.03137586638331413,0.01965828239917755,-0.039879053831100464,8.996039390563965,-0.22528769075870514,-4.119287490844727
1403638129105097000,-0.02870289608836174,0.029214471578598022,-0.03190091997385025,8.995737075805664,-0.012065806426107883,-4.08554744720459
1403638129110097000,-0.03133530542254448,0.028943032026290894,-0.02901960350573063,8.994781494140625,0.27373045682907104,-4.086599826812744
1403638129115097000,-0.04130006954073906,0.03332267701625824,-0.009796317666769028,9.107062339782715,0.3729257881641388,-4.143790245056152
1403638129120097000,-0.05075911805033684,0.05006709694862366,0.0027554710395634174,9.115464210510254,0.408268004655838,-4.1604905128479
1403638129125097000,-0.05789915844798088,0.05627189576625824,0.02094711922109127,9.133320808410645,0.34104421734809875,-3.996262311935425
1403638129130097000,-0.05801839753985405,0.06612248718738556,0.02261407859623432,9.143857955932617,0.39566609263420105,-3.9223415851593018
1403638129135097000,-0.06292597949504852,0.06325934827327728,0.02243817038834095,9.126797676086426,0.41302016377449036,-3.9064199924468994
1403638129140097000,-0.06624822318553925,0.07232555747032166,0.009523725137114525,9.32233715057373,0.508046567440033,-3.9880993366241455
1403638129145097000,-0.0704614669084549,0.08397883176803589,0.0061523099429905415,9.279226303100586,0.40392065048217773,-3.978877544403076
1403638129150097000,-0.0655493289232254,0.0951320230960846,0.0012639057822525501,9.374950408935547,0.16252990067005157,-4.002339839935303
1403638129155097000,-0.05642714723944664,0.1073368489742279,0.00866181030869484,9.333778381347656,-0.10624874383211136,-3.9684300422668457
1403638129160097000,-0.03465847298502922,0.11636364459991455,0.029453253373503685,9.106831550598145,-0.13830409944057465,-3.9041755199432373
1403638129165097000,-0.01214821357280016,0.11716783046722412,0.06212204322218895,8.975883483886719,-0.2288721799850464,-3.9032132625579834
1403638129170097000,0.005187886767089367,0.10948927700519562,0.09436266869306564,9.105829238891602,-0.15597447752952576,-3.9347691535949707
1403638129175097000,0.021269936114549637,0.10945272445678711,0.12764526903629303,8.884146690368652,0.0011958874529227614,-3.900092601776123
1403638129180097000,0.03555934503674507,0.10090877115726471,0.17626819014549255,9.210159301757812,-0.02440720982849598,-3.997483491897583
1403638129185097000,0.05774994567036629,0.12065984308719635,0.211340069770813,9.275951385498047,-0.21142873167991638,-4.02183198928833
1403638129190097000,0.08354341983795166,0.13115713000297546,0.24209322035312653,9.422581672668457,-0.10687580704689026,-4.094489574432373
1403638129195097000,0.10720425844192505,0.15050572156906128,0.26979824900627136,9.281031608581543,0.07031691819429398,-4.043008327484131
1403638129200097000,0.12042106688022614,0.16662901639938354,0.2955355644226074,9.417410850524902,0.3949785530567169,-4.034551620483398
1403638129205097000,0.1269018054008484,0.18478283286094666,0.32257068157196045,9.480734825134277,0.5750886797904968,-4.089398384094238
1403638129210097000,0.13011105358600616,0.2062261998653412,0.35607749223709106,9.618656158447266,0.6320663094520569,-4.111471652984619
1403638129215097000,0.13102474808692932,0.23078998923301697,0.38051751255989075,9.422901153564453,0.5671907663345337,-4.004444122314453
1403638129220097000,0.12775960564613342,0.2378915548324585,0.4101985991001129,9.511752128601074,0.5576315522193909,-3.9378609657287598
1403638129225097000,0.12781599164009094,0.254052072763443,0.4427343010902405,9.486268043518066,0.5714116096496582,-3.993595838546753
1403638129230097000,0.1258479356765747,0.2620706856250763,0.47597017884254456,9.610597610473633,0.46988070011138916,-4.098665237426758
1403638129235097000,0.12496331334114075,0.2839052975177765,0.5122882723808289,9.604016304016113,0.33633995056152344,-4.099114894866943
1403638129240097000,0.12790228426456451,0.30636468529701233,0.547577977180481,9.614758491516113,0.1787116378545761,-4.116394996643066
1403638129245097000,0.1366840898990631,0.3262099027633667,0.5799412727355957,9.642227172851562,-0.03624042496085167,-4.109614849090576
1403638129250097000,0.14386937022209167,0.33731552958488464,0.6112091541290283,9.732701301574707,-0.15650486946105957,-4.199166774749756
1403638129255097000,0.15212079882621765,0.3652346730232239,0.6406806707382202,9.734189987182617,-0.04741387069225311,-4.271718978881836
1403638129260097000,0.15849757194519043,0.38472840189933777,0.6768224835395813,9.806828498840332,-0.03176748380064964,-4.264271259307861
1403638129265097000,0.1593255251646042,0.41261574625968933,0.697585940361023,9.87870979309082,-0.0348510816693306,-4.27254056930542
1403638129270097000,0.1559722125530243,0.43307778239250183,0.7184251546859741,9.751060485839844,-0.06890501827001572,-4.217682838439941
1403638129275097000,0.15327276289463043,0.45787736773490906,0.7392812967300415,9.813094139099121,-0.04387670010328293,-4.185902118682861
1403638129280097000,0.15199625492095947,0.4788701832294464,0.7568460702896118,9.731010437011719,-0.08554879575967789,-4.100717544555664
1403638129285097000,0.1478157937526703,0.49554160237312317,0.7718626260757446,9.707584381103516,-0.01558691542595625,-4.109881401062012
1403638129290097000,0.14170028269290924,0.5156295299530029,0.7899138331413269,9.6188325881958,-0.0057105207815766335,-4.055898666381836
1403638129295097000,0.1341012418270111,0.5424282550811768,0.7952374815940857,9.482364654541016,0.028327349573373795,-3.960355043411255
1403638129300097000,0.12380531430244446,0.5451372861862183,0.8016656637191772,9.263558387756348,-0.01179623231291771,-3.833700656890869
1403638129305097000,0.11371834576129913,0.5461347103118896,0.800865113735199,9.275847434997559,0.030194800347089767,-3.7680203914642334
1403638129310097000,0.10519011318683624,0.5452308654785156,0.8091062307357788,9.013496398925781,-0.21724778413772583,-3.685924768447876
1403638129315097000,0.09952926635742188,0.5420746803283691,0.8170435428619385,9.086174964904785,-0.3617008626461029,-3.688124418258667
1403638129320097000,0.09846150875091553,0.5433312654495239,0.8322353363037109,8.798677444458008,-0.5923773050308228,-3.5822594165802
1403638129325097000,0.10480588674545288,0.5319803953170776,0.8418655395507812,8.768851280212402,-0.8136107921600342,-3.5559425354003906
1403638129330097000,0.1119774580001831,0.5215535163879395,0.8485071659088135,8.535248756408691,-1.0583255290985107,-3.4664857387542725
1403638129335097000,0.1181064248085022,0.5019985437393188,0.8461413383483887,8.624152183532715,-1.1970231533050537,-3.4774227142333984
1403638129340097000,0.1248922049999237,0.48694947361946106,0.8451233506202698,8.62990951538086,-1.3739150762557983,-3.4152448177337646
1403638129345097000,0.12971754372119904,0.46278151869773865,0.8404272794723511,8.98270320892334,-1.465157151222229,-3.4870975017547607
1403638129350097000,0.13979989290237427,0.4490148723125458,0.8374453783035278,8.923022270202637,-1.5523977279663086,-3.350613832473755
1403638129355097000,0.1461101472377777,0.434734970331192,0.832435131072998,9.01086139678955,-1.4359029531478882,-3.33931565284729
1403638129360097000,0.1480543166399002,0.4210071861743927,0.826172947883606,8.798225402832031,-1.3751899003982544,-3.2317001819610596
1403638129365097000,0.14569561183452606,0.38825806975364685,0.8136253356933594,8.82778549194336,-1.2576193809509277,-3.1774468421936035
1403638129370097000,0.13868041336536407,0.3618411421775818,0.783252477645874,8.75365924835205,-1.145748496055603,-3.16444993019104
1403638129375097000,0.1313522309064865,0.3298649787902832,0.7465865612030029,8.824750900268555,-0.960602879524231,-3.14064884185791
1403638129380097000,0.1150573343038559,0.30154862999916077,0.699482798576355,8.712475776672363,-0.893054187297821,-3.2181625366210938
1403638129385097000,0.0992908626794815,0.2659298777580261,0.6522207856178284,8.561507225036621,-0.8220332860946655,-3.0894079208374023
1403638129390097000,0.08764258027076721,0.2276017963886261,0.605562686920166,8.501882553100586,-0.8256316184997559,-3.0195600986480713
1403638129395097000,0.07230745255947113,0.1834791600704193,0.5519006252288818,8.427225112915039,-0.9706194996833801,-3.0081629753112793
1403638129400097000,0.0512702651321888,0.12357936799526215,0.5028923749923706,8.449007987976074,-1.042981505393982,-2.9550859928131104
1403638129405097000,0.03804070129990578,0.08193019032478333,0.4570610225200653,8.456581115722656,-1.1461985111236572,-2.870781898498535
1403638129410097000,0.023206491023302078,0.04038694500923157,0.40883031487464905,8.465331077575684,-1.3014496564865112,-2.904003143310547
1403638129415097000,0.010961460880935192,-0.006260961294174194,0.360636442899704,8.46417236328125,-1.45621657371521,-2.929255247116089
1403638129420097000,0.0025403527542948723,-0.04438704252243042,0.3143672049045563,8.441286087036133,-1.585456132888794,-2.914872884750366
1403638129425097000,0.007322954945266247,-0.08621585369110107,0.28050512075424194,8.520103454589844,-1.833441972732544,-2.9426302909851074
1403638129430097000,0.008320259861648083,-0.12213671207427979,0.226168692111969,8.549026489257812,-1.902115821838379,-2.8558309078216553
1403638129435097000,0.007711875252425671,-0.1581817865371704,0.1779431849718094,8.578657150268555,-1.8540887832641602,-2.9422621726989746
1403638129440097000,0.007940995506942272,-0.18408463895320892,0.13482140004634857,8.66423511505127,-1.7984284162521362,-2.8547756671905518
1403638129445097000,0.010536896996200085,-0.21462303400039673,0.0838845819234848,8.553669929504395,-1.8726444244384766,-2.8672964572906494
1403638129450097000,0.013953137211501598,-0.2533385157585144,0.026793351396918297,8.680251121520996,-1.735131025314331,-2.8955230712890625
1403638129455097000,0.014256256632506847,-0.28846126794815063,-0.008225051686167717,8.608338356018066,-1.6457209587097168,-2.888683557510376
1403638129460097000,0.005151945166289806,-0.31497400999069214,-0.059092823415994644,8.846394538879395,-1.5073637962341309,-3.0382466316223145
1403638129465097000,-0.0026600779965519905,-0.33389490842819214,-0.10269216448068619,8.87874698638916,-1.5090619325637817,-3.0471043586730957
1403638129470097000,-0.008585107512772083,-0.36198967695236206,-0.1501535028219223,8.900829315185547,-1.5584784746170044,-3.1053550243377686
1403638129475097000,-0.011291665025055408,-0.38861504197120667,-0.19176097214221954,8.77401065826416,-1.5494893789291382,-3.1366114616394043
1403638129480097000,-0.020250361412763596,-0.41566115617752075,-0.23100776970386505,8.795463562011719,-1.4606715440750122,-3.225250244140625
1403638129485097000,-0.026681941002607346,-0.4397589862346649,-0.25842002034187317,8.62065315246582,-1.4600956439971924,-3.2719779014587402
1403638129490097000,-0.025911133736371994,-0.46117064356803894,-0.2846452593803406,8.862092018127441,-1.4338812828063965,-3.377281904220581
1403638129495097000,-0.027875106781721115,-0.4764437675476074,-0.31476345658302307,8.841540336608887,-1.522112250328064,-3.3822784423828125
1403638129500097000,-0.03248698636889458,-0.4832097887992859,-0.34638747572898865,8.951983451843262,-1.4240467548370361,-3.477999687194824
1403638129505097000,-0.03172333166003227,-0.48056861758232117,-0.3853541612625122,8.880736351013184,-1.486565113067627,-3.433896780014038
1403638129510097000,-0.03495676442980766,-0.4838138222694397,-0.4132586121559143,9.083014488220215,-1.4129276275634766,-3.473724365234375
1403638129515097000,-0.03436155244708061,-0.4749603569507599,-0.4352491497993469,9.210325241088867,-1.4355491399765015,-3.5537092685699463
1403638129520097000,-0.03248373791575432,-0.47017136216163635,-0.45264461636543274,9.456463813781738,-1.3986417055130005,-3.612257719039917
1403638129525097000,-0.034003835171461105,-0.45558199286460876,-0.4703383445739746,9.412970542907715,-1.4956480264663696,-3.5856475830078125
1403638129530097000,-0.03254006430506706,-0.4486560523509979,-0.48448070883750916,9.436083793640137,-1.4394458532333374,-3.6332192420959473
1403638129535097000,-0.02508361265063286,-0.4430462419986725,-0.49932458996772766,9.368180274963379,-1.3738309144973755,-3.6476118564605713
1403638129540097000,-0.021654020994901657,-0.4375593066215515,-0.511238157749176,9.467795372009277,-1.268366813659668,-3.6884748935699463
1403638129545097000,-0.021980803459882736,-0.4305571913719177,-0.5246968269348145,9.502470970153809,-1.0926209688186646,-3.737416982650757
1403638129550097000,-0.02452315017580986,-0.4237942695617676,-0.5269632339477539,9.48971176147461,-0.8732841610908508,-3.777763605117798
1403638129555097000,-0.027270209044218063,-0.41133132576942444,-0.5410606861114502,9.49073600769043,-0.7595409154891968,-3.7939703464508057
1403638129560097000,-0.034306060522794724,-0.40161558985710144,-0.5432778000831604,9.558622360229492,-0.5574690699577332,-3.8527941703796387
1403638129565097000,-0.04507197067141533,-0.38048216700553894,-0.549155056476593,9.494790077209473,-0.4280487596988678,-3.8928563594818115
1403638129570097000,-0.05119762942194939,-0.3628745377063751,-0.5498085618019104,9.3899507522583,-0.3488255739212036,-3.8926379680633545
1403638129575097000,-0.06383641064167023,-0.3424452245235443,-0.5630168914794922,9.405618667602539,-0.3562769591808319,-3.957047939300537
1403638129580097000,-0.0758153647184372,-0.32634979486465454,-0.5637598037719727,9.268128395080566,-0.3338293135166168,-3.9797143936157227
1403638129585097000,-0.0806288868188858,-0.3128191828727722,-0.5602872371673584,9.29184627532959,-0.39851507544517517,-4.004428386688232
1403638129590097000,-0.08351196348667145,-0.296658992767334,-0.5479122400283813,9.1993408203125,-0.5946177244186401,-4.002650260925293
1403638129595097000,-0.08378331363201141,-0.27970415353775024,-0.5358985662460327,9.234292030334473,-0.6279625296592712,-3.9798922538757324
1403638129600097000,-0.08291788399219513,-0.27255165576934814,-0.5122068524360657,9.18653392791748,-0.6862284541130066,-3.963906764984131
1403638129605097000,-0.07905222475528717,-0.25561678409576416,-0.48916468024253845,9.44307804107666,-0.7240739464759827,-4.040286064147949
1403638129610097000,-0.07329992949962616,-0.23721809685230255,-0.45631030201911926,9.495138168334961,-0.7159855961799622,-4.074528217315674
1403638129615097000,-0.06860010325908661,-0.19923023879528046,-0.4348476827144623,9.702584266662598,-0.6144452691078186,-4.18342399597168
1403638129620097000,-0.05725003406405449,-0.16594283282756805,-0.40330052375793457,9.532102584838867,-0.6473190188407898,-4.125609874725342
1403638129625097000,-0.04921523854136467,-0.14129279553890228,-0.3882400095462799,9.623559951782227,-0.5149876475334167,-4.1673054695129395
1403638129630097000,-0.046429168432950974,-0.11374817788600922,-0.3605819642543793,9.437939643859863,-0.30125731229782104,-4.132632255554199
1403638129635097000,-0.0485670380294323,-0.0874573141336441,-0.3326648771762848,9.489832878112793,-0.08407387882471085,-4.197683334350586
1403638129640097000,-0.056025516241788864,-0.05986623466014862,-0.3080308139324188,9.409326553344727,0.014844857156276703,-4.254397392272949
1403638129645097000,-0.06152821704745293,-0.02826230227947235,-0.28264403343200684,9.483403205871582,0.11569179594516754,-4.195982933044434
1403638129650097000,-0.06601722538471222,0.002634778618812561,-0.25533685088157654,9.254819869995117,0.12501268088817596,-4.128548622131348
1403638129655097000,-0.07042299211025238,0.019536390900611877,-0.22714391350746155,9.293936729431152,0.066259004175663,-4.128057956695557
1403638129660097000,-0.07296858727931976,0.03974391520023346,-0.19698862731456757,9.163538932800293,0.08178418129682541,-4.110764503479004
1403638129665097000,-0.07866568863391876,0.057841554284095764,-0.16409239172935486,9.227570533752441,-7.108077261364087e-05,-4.1348724365234375
1403638129670097000,-0.07596099376678467,0.08502145111560822,-0.13340891897678375,9.078756332397461,-0.19721081852912903,-4.0680928230285645
1403638129675097000,-0.06874729692935944,0.10046117007732391,-0.10404571145772934,9.175007820129395,-0.2886994779109955,-4.116039752960205
1403638129680097000,-0.059338923543691635,0.12391719222068787,-0.06922763586044312,9.124513626098633,-0.35374361276626587,-4.10530424118042
1403638129685097000,-0.0473024956882,0.14035725593566895,-0.030572382733225822,9.19649600982666,-0.3703129291534424,-4.088362693786621
1403638129690097000,-0.040362950414419174,0.1576671302318573,-0.0028041922487318516,9.171549797058105,-0.46949508786201477,-4.071223735809326
1403638129695097000,-0.027196448296308517,0.16861650347709656,0.028368612751364708,9.293543815612793,-0.48486167192459106,-4.062512397766113
1403638129700097000,-0.017813097685575485,0.1885923445224762,0.04935537278652191,9.358636856079102,-0.4913758635520935,-3.981184959411621
1403638129705097000,-0.01184652466326952,0.19260883331298828,0.07085863500833511,9.37571907043457,-0.4756914973258972,-3.948626756668091
1403638129710097000,-0.001977694220840931,0.20928290486335754,0.08896727114915848,9.326955795288086,-0.3288005590438843,-3.947751998901367
1403638129715097000,0.0035750148817896843,0.21416231989860535,0.11119633167982101,9.24555778503418,-0.3099978566169739,-3.9227232933044434
1403638129720097000,0.007454472593963146,0.22098708152770996,0.13047336041927338,9.131701469421387,-0.35175612568855286,-3.938002824783325
1403638129725097000,0.010510223917663097,0.21174278855323792,0.14900316298007965,9.05042839050293,-0.42579665780067444,-3.9538087844848633
1403638129730097000,0.017718631774187088,0.20221218466758728,0.1609557569026947,9.019171714782715,-0.33511117100715637,-3.913148880004883
1403638129735097000,0.024194110184907913,0.1817176640033722,0.17282673716545105,8.954100608825684,-0.3933078944683075,-3.921156406402588
1403638129740097000,0.026953835040330887,0.16358426213264465,0.174223855137825,9.036020278930664,-0.3791770339012146,-3.9378645420074463
1403638129745097000,0.028819698840379715,0.13773560523986816,0.18110954761505127,8.996997833251953,-0.48435670137405396,-3.8972647190093994
1403638129750097000,0.03550984337925911,0.12033922970294952,0.17431727051734924,9.112367630004883,-0.4925788640975952,-3.9069294929504395
1403638129755097000,0.037288833409547806,0.09254190325737,0.16576366126537323,9.105695724487305,-0.5271199345588684,-3.8747305870056152
1403638129760097000,0.03902842476963997,0.06412136554718018,0.15398050844669342,9.303556442260742,-0.5508196949958801,-3.8449926376342773
1403638129765097000,0.04466255381703377,0.0368618369102478,0.14911381900310516,9.304611206054688,-0.6156477332115173,-3.861339569091797
1403638129770097000,0.04614328220486641,0.013284951448440552,0.14147573709487915,9.582715034484863,-0.592745304107666,-3.8955044746398926
1403638129775097000,0.041414935141801834,-0.011050641536712646,0.12743711471557617,9.477337837219238,-0.6399057507514954,-3.8397128582000732
1403638129780097000,0.04127093032002449,-0.035237669944763184,0.11610899120569229,9.542927742004395,-0.5818670988082886,-3.841071605682373
1403638129785097000,0.03658531978726387,-0.06305880844593048,0.10069257020950317,9.412872314453125,-0.5735217332839966,-3.8416805267333984
1403638129790097000,0.03566308692097664,-0.08596348762512207,0.08395089209079742,9.502409934997559,-0.5082627534866333,-3.9159772396087646
1403638129795097000,0.035033244639635086,-0.10393887758255005,0.07064713537693024,9.32341480255127,-0.5311849117279053,-3.964799642562866
1403638129800097000,0.03906385973095894,-0.1262815296649933,0.05381767451763153,9.380819320678711,-0.5628452301025391,-4.031965255737305
1403638129805097000,0.041926611214876175,-0.1502063125371933,0.026245838031172752,9.267724990844727,-0.6209603548049927,-4.009680271148682
1403638129810097000,0.04582800343632698,-0.18314668536186218,0.006428008433431387,9.324127197265625,-0.6123117208480835,-4.027661323547363
1403638129815097000,0.043129730969667435,-0.20352691411972046,-0.008979285135865211,9.242706298828125,-0.5710821151733398,-3.987804889678955
1403638129820097000,0.04801290109753609,-0.22881977260112762,-0.018152926117181778,9.356053352355957,-0.5636059045791626,-4.01431941986084
1403638129825097000,0.04727568104863167,-0.24651385843753815,-0.021267561241984367,9.387961387634277,-0.6292664408683777,-3.9987668991088867
1403638129830097000,0.04450439289212227,-0.26861077547073364,-0.029816193506121635,9.614493370056152,-0.6363041400909424,-4.057282447814941
1403638129835097000,0.04743068292737007,-0.27293139696121216,-0.038991011679172516,9.688135147094727,-0.6461927890777588,-4.123393535614014
1403638129840097000,0.04522903636097908,-0.2773364782333374,-0.04887804761528969,9.802013397216797,-0.6955977082252502,-4.148345470428467
1403638129845097000,0.04254727438092232,-0.26607775688171387,-0.056274380534887314,9.859861373901367,-0.6054295897483826,-4.196155548095703
1403638129850097000,0.04868321493268013,-0.2646399140357971,-0.05832375958561897,9.852368354797363,-0.6218861937522888,-4.19632625579834
1403638129855097000,0.04745255783200264,-0.2553063631057739,-0.06557810306549072,9.771811485290527,-0.5720006823539734,-4.228049278259277
1403638129860097000,0.0507347472012043,-0.2522639036178589,-0.06353773176670074,9.779932975769043,-0.5633264183998108,-4.252379417419434
1403638129865097000,0.04956098273396492,-0.24987247586250305,-0.06334944814443588,9.76352596282959,-0.4977702796459198,-4.284578800201416
1403638129870097000,0.048488277941942215,-0.24913376569747925,-0.06257408857345581,9.80355167388916,-0.4644725024700165,-4.3163604736328125
1403638129875097000,0.054434169083833694,-0.2376306802034378,-0.0643477588891983,9.926101684570312,-0.3828018009662628,-4.372200012207031
1403638129880097000,0.047027815133333206,-0.23248200118541718,-0.06851766258478165,9.966451644897461,-0.2441023737192154,-4.411261558532715
1403638129885097000,0.040775198489427567,-0.21767030656337738,-0.07069512456655502,10.015188217163086,-0.15403079986572266,-4.466741561889648
1403638129890097000,0.041863132268190384,-0.20304159820079803,-0.07196632772684097,10.0318021774292,-0.20286515355110168,-4.490807056427002
1403638129895097000,0.03521563485264778,-0.1847449094057083,-0.08367542177438736,10.096736907958984,-0.16270652413368225,-4.4899139404296875
1403638129900097000,0.030004430562257767,-0.16636885702610016,-0.08584416657686234,10.023327827453613,-0.19603322446346283,-4.473000526428223
1403638129905097000,0.027953732758760452,-0.14942671358585358,-0.08639785647392273,10.080511093139648,-0.15571337938308716,-4.471961498260498
1403638129910097000,0.022771019488573074,-0.13333256542682648,-0.08975522220134735,10.032161712646484,-0.17278210818767548,-4.504585266113281
1403638129915097000,0.026158351451158524,-0.11143259704113007,-0.08885956555604935,10.081233024597168,-0.1156105250120163,-4.544474124908447
1403638129920097000,0.021578092128038406,-0.0936860740184784,-0.08473697304725647,9.885665893554688,-0.21329763531684875,-4.47929573059082
1403638129925097000,0.025163281708955765,-0.07133930921554565,-0.08301924914121628,9.99857234954834,-0.20599722862243652,-4.478203773498535
1403638129930097000,0.024772752076387405,-0.04757380485534668,-0.07040920108556747,9.810562133789062,-0.23838494718074799,-4.404354572296143
1403638129935097000,0.02837999537587166,-0.02738890051841736,-0.045041777193546295,9.875090599060059,-0.1810346245765686,-4.428002834320068
1403638129940097000,0.0318254716694355,0.0031078308820724487,-0.02857724390923977,9.889457702636719,-0.23947609961032867,-4.370346546173096
1403638129945097000,0.0303223617374897,0.0321868360042572,-0.01680947281420231,10.043664932250977,-0.20587339997291565,-4.313597202301025
1403638129950097000,0.032123345881700516,0.06468236446380615,0.007546188775449991,10.017897605895996,-0.27929621934890747,-4.263711929321289
1403638129955097000,0.039056409150362015,0.10006320476531982,0.030352212488651276,10.07382869720459,-0.28075507283210754,-4.320190906524658
1403638129960097000,0.040754903107881546,0.13892385363578796,0.0601721853017807,9.893056869506836,-0.28105825185775757,-4.30238151550293
1403638129965097000,0.0456475205719471,0.1707160770893097,0.0914994403719902,9.925111770629883,-0.289818674325943,-4.3266191482543945
1403638129970097000,0.051897574216127396,0.19711503386497498,0.12357378751039505,9.720549583435059,-0.22539633512496948,-4.332357883453369
1403638129975097000,0.05834593251347542,0.21647855639457703,0.14993298053741455,9.696208000183105,-0.21032997965812683,-4.404507637023926
1403638129980097000,0.0601479597389698,0.24081596732139587,0.17781931161880493,9.541219711303711,-0.14480921626091003,-4.386333465576172
1403638129985097000,0.06158556416630745,0.25008073449134827,0.20543673634529114,9.517370223999023,-0.03951036185026169,-4.426697254180908
1403638129990097000,0.06533624231815338,0.27015480399131775,0.23719213902950287,9.419471740722656,-0.06570664048194885,-4.400573253631592
1403638129995097000,0.06930138170719147,0.28208354115486145,0.2600227892398834,9.485180854797363,-0.001569654792547226,-4.441166877746582
1403638130000097000,0.06512320041656494,0.29901888966560364,0.27899423241615295,9.534613609313965,0.022276394069194794,-4.392421722412109
1403638130005097000,0.06867675483226776,0.3171520233154297,0.29510536789894104,9.641436576843262,-0.012816991657018661,-4.392818927764893
1403638130010097000,0.06521697342395782,0.34582579135894775,0.3007652163505554,9.715704917907715,-0.014264746569097042,-4.360678672790527
1403638130015097000,0.06714116036891937,0.3689279854297638,0.3073158264160156,9.716333389282227,0.02696429379284382,-4.311582565307617
1403638130020097000,0.06057790294289589,0.390679270029068,0.2996121644973755,9.68303394317627,0.14136937260627747,-4.230605602264404
1403638130025097000,0.04994494095444679,0.4039439260959625,0.3061434328556061,9.528100967407227,0.07702939957380295,-4.148965835571289
1403638130030097000,0.043786827474832535,0.4130168855190277,0.30398768186569214,9.439054489135742,0.07854900509119034,-4.100124835968018
1403638130035097000,0.04020809009671211,0.4136205017566681,0.3119186460971832,9.1868314743042,-0.0909370630979538,-4.035621166229248
1403638130040097000,0.042709801346063614,0.4080221951007843,0.3215097486972809,9.081950187683105,-0.22181710600852966,-4.028296947479248
1403638130045097000,0.04272589460015297,0.38545045256614685,0.3318950831890106,8.976223945617676,-0.33460649847984314,-3.980827808380127
1403638130050097000,0.047208983451128006,0.37058308720588684,0.3298749625682831,9.0663423538208,-0.40789175033569336,-3.97411847114563
1403638130055097000,0.055443499237298965,0.3528711497783661,0.3339685797691345,9.010614395141602,-0.5782951712608337,-3.918217897415161
1403638130060097000,0.06613869965076447,0.34302082657814026,0.33207276463508606,9.19867992401123,-0.6030323505401611,-3.967532157897949
1403638130065097000,0.07666477560997009,0.33716556429862976,0.33057647943496704,9.191072463989258,-0.7006531953811646,-3.9105758666992188
1403638130070097000,0.08427892625331879,0.33429768681526184,0.32352307438850403,9.272828102111816,-0.643648087978363,-3.934788703918457
1403638130075097000,0.09069615602493286,0.33427920937538147,0.3143517076969147,9.174159049987793,-0.66633141040802,-3.82049822807312
1403638130080097000,0.09963227808475494,0.3357416093349457,0.29917463660240173,9.23919677734375,-0.6169514656066895,-3.796262264251709
1403638130085097000,0.10439547896385193,0.3272181749343872,0.2884245812892914,9.058959007263184,-0.6221913695335388,-3.746232748031616
1403638130090097000,0.10987219214439392,0.31622228026390076,0.27128732204437256,8.984390258789062,-0.5312196612358093,-3.705211877822876
1403638130095097000,0.10670264065265656,0.3042756915092468,0.2571159303188324,8.83640193939209,-0.5626993179321289,-3.68856143951416
1403638130100097000,0.11123685538768768,0.27496424317359924,0.24090813100337982,8.875716209411621,-0.5776538252830505,-3.6883208751678467
1403638130105097000,0.10896429419517517,0.25031235814094543,0.2220650315284729,8.719304084777832,-0.6428349614143372,-3.6712212562561035
1403638130110097000,0.10866601765155792,0.22023692727088928,0.20964060723781586,8.841202735900879,-0.6685137152671814,-3.6634573936462402
1403638130115097000,0.10807569324970245,0.1915750801563263,0.19974887371063232,8.759872436523438,-0.7575075626373291,-3.6062750816345215
1403638130120097000,0.11034530401229858,0.16022184491157532,0.19022323191165924,8.980364799499512,-0.7834579348564148,-3.6563944816589355
1403638130125097000,0.11715123057365417,0.14341190457344055,0.17896316945552826,8.95625114440918,-0.8092380166053772,-3.5828635692596436
1403638130130097000,0.1190323680639267,0.11917044222354889,0.1615789532661438,9.054804801940918,-0.7279563546180725,-3.5766005516052246
1403638130135097000,0.11946889758110046,0.10134166479110718,0.14223679900169373,9.014243125915527,-0.6463143229484558,-3.5936362743377686
1403638130140097000,0.11772029101848602,0.08195328712463379,0.12349272519350052,9.031695365905762,-0.6389660239219666,-3.57869029045105
1403638130145097000,0.1074478030204773,0.07510074973106384,0.10047660022974014,9.048243522644043,-0.5651424527168274,-3.5719165802001953
1403638130150097000,0.10657478868961334,0.06417027115821838,0.07411443442106247,9.09036922454834,-0.6616452932357788,-3.605350971221924
1403638130155097000,0.1098928302526474,0.049035683274269104,0.057125214487314224,9.010608673095703,-0.7030209302902222,-3.606045722961426
1403638130160097000,0.11130855977535248,0.028949707746505737,0.036935146898031235,9.052581787109375,-0.7429757118225098,-3.599242687225342
1403638130165097000,0.11330951750278473,0.01943032443523407,0.00923820398747921,9.151278495788574,-0.7512328624725342,-3.6576998233795166
1403638130170097000,0.11646302044391632,0.011300653219223022,-0.0062700058333575726,9.16751480102539,-0.6868321895599365,-3.7560601234436035
1403638130175097000,0.11660704016685486,0.008051306009292603,-0.020930204540491104,9.167235374450684,-0.6129087805747986,-3.7401304244995117
1403638130180097000,0.11385990679264069,-0.0023680180311203003,-0.032159578055143356,9.061990737915039,-0.5475372076034546,-3.7162883281707764
1403638130185097000,0.11064344644546509,-0.014208510518074036,-0.04143885523080826,9.151420593261719,-0.4420017600059509,-3.7170932292938232
1403638130190097000,0.10477936267852783,-0.022399097681045532,-0.049164023250341415,9.070317268371582,-0.43353018164634705,-3.6926567554473877
1403638130195097000,0.10450021922588348,-0.020960047841072083,-0.058892715722322464,9.216322898864746,-0.400907963514328,-3.709534168243408
1403638130200097000,0.10316665470600128,-0.01761983335018158,-0.05906401947140694,9.216643333435059,-0.4830196499824524,-3.700852632522583
1403638130205097000,0.10336050391197205,-0.009892717003822327,-0.060772884637117386,9.29788589477539,-0.4574819803237915,-3.709498882293701
1403638130210097000,0.0989467054605484,-0.009794145822525024,-0.05384945869445801,9.16024112701416,-0.5143340229988098,-3.7005138397216797
1403638130215097000,0.09766259789466858,-0.006396591663360596,-0.044969137758016586,9.298121452331543,-0.5061562657356262,-3.7332570552825928
1403638130220097000,0.09976699948310852,0.008135080337524414,-0.017647935077548027,9.264991760253906,-0.6035895943641663,-3.7399630546569824
1403638130225097000,0.10472144186496735,0.020631849765777588,0.005803811829537153,9.39492416381836,-0.6941810846328735,-3.7714712619781494
1403638130230097000,0.11206027865409851,0.02963966131210327,0.029435651376843452,9.256814002990723,-0.7680487036705017,-3.745392084121704
1403638130235097000,0.12330853939056396,0.046178221702575684,0.05071656033396721,9.361279487609863,-0.7276257276535034,-3.801024913787842
1403638130240097000,0.13087201118469238,0.06492283940315247,0.06968116760253906,9.278434753417969,-0.6551865935325623,-3.7748727798461914
1403638130245097000,0.1337229460477829,0.07898148894309998,0.08375142514705658,9.488497734069824,-0.4753188192844391,-3.8571510314941406
1403638130250097000,0.1366288959980011,0.107484832406044,0.10747400671243668,9.397634506225586,-0.36086732149124146,-3.8712642192840576
1403638130255097000,0.13856928050518036,0.13662376999855042,0.13465134799480438,9.519264221191406,-0.2636115849018097,-3.89506459236145
1403638130260097000,0.1325073093175888,0.16801878809928894,0.15115420520305634,9.395480155944824,-0.1966991275548935,-3.828460693359375
1403638130265097000,0.1233464777469635,0.19318708777427673,0.16643381118774414,9.45252513885498,-0.018598081544041634,-3.844712734222412
1403638130270097000,0.11167976260185242,0.21397069096565247,0.18119826912879944,9.345531463623047,-0.009997709654271603,-3.8430416584014893
1403638130275097000,0.09837408363819122,0.2293127179145813,0.19533637166023254,9.3541841506958,-0.05026235803961754,-3.867450475692749
1403638130280097000,0.08698716759681702,0.239151269197464,0.21808896958827972,9.150349617004395,-0.16384060680866241,-3.7851715087890625
1403638130285097000,0.07853899896144867,0.243287593126297,0.23693802952766418,9.192037582397461,-0.2456216812133789,-3.744734764099121
1403638130290097000,0.07552850246429443,0.2501506507396698,0.2603878080844879,9.135599136352539,-0.28736504912376404,-3.695868730545044
1403638130295097000,0.07398168742656708,0.2564002573490143,0.288786381483078,9.184993743896484,-0.3703082501888275,-3.6317710876464844
1403638130300097000,0.0730813592672348,0.2634026110172272,0.30933910608291626,9.194202423095703,-0.4936840236186981,-3.57499623298645
1403638130305097000,0.07100236415863037,0.26616740226745605,0.3346530497074127,9.195650100708008,-0.5436655879020691,-3.5513014793395996
1403638130310097000,0.06805254518985748,0.2784312069416046,0.36027225852012634,9.156341552734375,-0.6674967408180237,-3.568546772003174
1403638130315097000,0.07472957670688629,0.29313191771507263,0.3854607045650482,9.116730690002441,-0.7663243412971497,-3.5534417629241943
1403638130320097000,0.07702705264091492,0.3003411591053009,0.40509477257728577,9.02807331085205,-0.8318249583244324,-3.5304172039031982
1403638130325097000,0.09042364358901978,0.30033543705940247,0.4190661609172821,8.906176567077637,-0.9030199646949768,-3.4579849243164062
1403638130330097000,0.09757991135120392,0.29539069533348083,0.41999682784080505,8.906829833984375,-0.942420244216919,-3.4418435096740723
1403638130335097000,0.10910558700561523,0.28935837745666504,0.42431992292404175,8.980644226074219,-1.0382071733474731,-3.400556802749634
1403638130340097000,0.12253311276435852,0.28744956851005554,0.4222373962402344,9.217328071594238,-0.9667490720748901,-3.4485812187194824
1403638130345097000,0.1310785412788391,0.2901967167854309,0.42438337206840515,9.23410415649414,-0.8788027167320251,-3.505258798599243
1403638130350097000,0.13314254581928253,0.2929595410823822,0.4177796542644501,9.30715560913086,-0.6928361058235168,-3.5614795684814453
1403638130355097000,0.12929069995880127,0.28508660197257996,0.41029486060142517,9.012322425842285,-0.6499391198158264,-3.480323076248169
1403638130360097000,0.12425562739372253,0.26804491877555847,0.39146897196769714,8.994939804077148,-0.560338020324707,-3.5202338695526123
1403638130365097000,0.11696964502334595,0.2524155080318451,0.36408403515815735,8.755998611450195,-0.46761536598205566,-3.454279661178589
1403638130370097000,0.10939836502075195,0.22719144821166992,0.33816707134246826,8.754496574401855,-0.3856894373893738,-3.462337017059326
1403638130375097000,0.0959765613079071,0.20759406685829163,0.31359219551086426,8.500300407409668,-0.40050753951072693,-3.3967154026031494
1403638130380097000,0.08541500568389893,0.18441376090049744,0.28822940587997437,8.541353225708008,-0.4637613296508789,-3.3965675830841064
1403638130385097000,0.07978779077529907,0.15207484364509583,0.26017531752586365,8.387200355529785,-0.746166467666626,-3.297334671020508
1403638130390097000,0.07677909731864929,0.12469692528247833,0.23993684351444244,8.535676956176758,-0.9571844339370728,-3.240368127822876
1403638130395097000,0.07827164232730865,0.10445398092269897,0.220318004488945,8.528761863708496,-1.3054105043411255,-3.108299493789673
1403638130400097000,0.08943463861942291,0.0862259715795517,0.2049749344587326,8.806904792785645,-1.503000020980835,-3.0837514400482178
1403638130405097000,0.10341997444629669,0.07629641890525818,0.19709593057632446,8.872486114501953,-1.6744872331619263,-3.057462453842163
1403638130410097000,0.12011916935443878,0.07202443480491638,0.1913265734910965,9.043963432312012,-1.7331082820892334,-3.065757989883423
1403638130415097000,0.13422410190105438,0.07626062631607056,0.18705129623413086,9.003844261169434,-1.6367278099060059,-3.041321039199829
1403638130420097000,0.143307164311409,0.07509109377861023,0.1775330901145935,9.086008071899414,-1.4826273918151855,-3.0756683349609375
1403638130425097000,0.15265293419361115,0.07107299566268921,0.1680576503276825,8.898880004882812,-1.4169460535049438,-3.1327102184295654
1403638130430097000,0.1569940447807312,0.06632456183433533,0.14956630766391754,8.931231498718262,-1.2553894519805908,-3.2491555213928223
1403638130435097000,0.15725016593933105,0.06525512039661407,0.12462810426950455,8.800787925720215,-1.1651766300201416,-3.274258613586426
1403638130440097000,0.16226878762245178,0.05175749957561493,0.0949774906039238,8.751749992370605,-1.0020077228546143,-3.3822829723358154
1403638130445097000,0.15751893818378448,0.038969486951828,0.05539751052856445,8.670452117919922,-0.7986676692962646,-3.44976806640625
1403638130450097000,0.1479794979095459,0.01914133131504059,0.02457854337990284,8.70407772064209,-0.6432587504386902,-3.5093886852264404
1403638130455097000,0.13906215131282806,0.00556907057762146,-0.018577301874756813,8.770538330078125,-0.6037233471870422,-3.5444860458374023
1403638130460097000,0.11891068518161774,-0.015059173107147217,-0.05574246123433113,8.779814720153809,-0.6387937068939209,-3.5296874046325684
1403638130465097000,0.10572919249534607,-0.03188967704772949,-0.09225986152887344,8.804987907409668,-0.7063183188438416,-3.4738850593566895
1403638130470097000,0.09045672416687012,-0.0586220920085907,-0.1224687471985817,8.804679870605469,-0.7183068990707397,-3.385776996612549
1403638130475097000,0.07073463499546051,-0.08522133529186249,-0.15605179965496063,8.933758735656738,-0.6960569620132446,-3.346562623977661
1403638130480097000,0.044438499957323074,-0.10290010273456573,-0.17874093353748322,9.128323554992676,-0.8028438687324524,-3.3482248783111572
1403638130485097000,0.030032385140657425,-0.10101194679737091,-0.205256849527359,9.27498722076416,-0.8861463069915771,-3.3179054260253906
1403638130490097000,0.02656896784901619,-0.09463994204998016,-0.22837351262569427,9.339661598205566,-1.0007938146591187,-3.3196520805358887
1403638130495097000,0.028664011508226395,-0.07996782660484314,-0.24995237588882446,9.51846694946289,-1.107221245765686,-3.3538875579833984
1403638130500097000,0.02007325366139412,-0.08187350630760193,-0.25926822423934937,9.06130313873291,-1.1339939832687378,-3.2880282402038574
1403638130505097000,0.01060511451214552,-0.09410408139228821,-0.2655285894870758,8.775091171264648,-0.8386974930763245,-3.335010290145874
1403638130510097000,0.0022512851282954216,-0.09902606904506683,-0.23886945843696594,8.605579376220703,-0.7142244577407837,-3.4068198204040527
1403638130515097000,-8.611101657152176e-05,-0.10068926215171814,-0.21975833177566528,8.873733520507812,-0.9722458124160767,-3.5474159717559814
1403638130520097000,0.005985247902572155,-0.1069822609424591,-0.22049808502197266,8.720441818237305,-1.3069769144058228,-3.4915168285369873
1403638130525097000,0.005908089689910412,-0.1159372627735138,-0.240406334400177,8.548810005187988,-0.8701164722442627,-3.4240360260009766
1403638130530097000,0.012027221731841564,-0.12730498611927032,-0.21376550197601318,8.436200141906738,-0.5398737788200378,-3.364314317703247
1403638130535097000,0.0008797226473689079,-0.12470723688602448,-0.19429540634155273,9.011290550231934,-0.5436580181121826,-3.5432164669036865
1403638130540097000,-0.016384582966566086,-0.1085444837808609,-0.19096273183822632,9.028186798095703,-0.7749478220939636,-3.5521116256713867
1403638130545097000,-0.011709881015121937,-0.08898802101612091,-0.17097589373588562,9.0056734085083,-0.7320119738578796,-3.396028757095337
1403638130550097000,-0.0009576501324772835,-0.07145777344703674,-0.14304238557815552,8.901766777038574,-0.80511873960495,-3.223449945449829
1403638130555097000,-0.004853439517319202,-0.058331072330474854,-0.13317817449569702,9.290770530700684,-0.6755570769309998,-3.352844715118408
1403638130560097000,-0.011359077878296375,-0.03239704668521881,-0.12212324887514114,9.435877799987793,-0.5128541588783264,-3.4731192588806152
1403638130565097000,-0.02186672016978264,1.099705696105957e-05,-0.09803052991628647,9.436223983764648,-0.503595769405365,-3.4489104747772217
1403638130570097000,-0.027097444981336594,0.02680365741252899,-0.08599425852298737,9.282388687133789,-0.5673857927322388,-3.285616636276245
1403638130575097000,-0.034606825560331345,0.039961814880371094,-0.059307750314474106,9.370116233825684,-0.48493149876594543,-3.438856601715088
1403638130580097000,-0.04044969007372856,0.07375729084014893,-0.023847686126828194,9.506014823913574,-0.5919604897499084,-3.61667537689209
1403638130585097000,-0.038403015583753586,0.115986168384552,0.001682455651462078,9.544885635375977,-0.6008576154708862,-3.6004388332366943
1403638130590097000,-0.0368470661342144,0.1461174190044403,0.01623598113656044,9.34790325164795,-0.501615583896637,-3.4940145015716553
1403638130595097000,-0.036544572561979294,0.16778212785720825,0.033209867775440216,9.217101097106934,-0.3787219822406769,-3.5322487354278564
1403638130600097000,-0.0301290862262249,0.18787768483161926,0.044336866587400436,9.054099082946777,-0.3539676368236542,-3.618647336959839
1403638130605097000,-0.026502083986997604,0.2027222216129303,0.05015387013554573,9.011773109436035,-0.3929203152656555,-3.5936684608459473
1403638130610097000,-0.02151217684149742,0.21975263953208923,0.05278497561812401,8.904898643493652,-0.3669518530368805,-3.503469228744507
1403638130615097000,-0.017066311091184616,0.21806925535202026,0.06547848880290985,8.952983856201172,-0.32762882113456726,-3.551964044570923
1403638130620097000,-0.014460277743637562,0.232609361410141,0.07152309268712997,9.133208274841309,-0.21605996787548065,-3.592397928237915
1403638130625097000,-0.01152214128524065,0.24198976159095764,0.0840841755270958,9.094021797180176,-0.18774710595607758,-3.5264928340911865
1403638130630097000,-0.010348674841225147,0.25323328375816345,0.09562965482473373,9.077794075012207,-0.11322496086359024,-3.437718391418457
1403638130635097000,-0.015099850483238697,0.25355443358421326,0.12152449786663055,8.924041748046875,-0.1721845418214798,-3.2838525772094727
1403638130640097000,-0.01916370913386345,0.24969524145126343,0.13877102732658386,9.072418212890625,-0.2116755247116089,-3.301156759262085
1403638130645097000,-0.020129617303609848,0.25028088688850403,0.16247588396072388,9.129108428955078,-0.36249059438705444,-3.2762880325317383
1403638130650097000,-0.02131601795554161,0.25788581371307373,0.17847003042697906,9.357571601867676,-0.3991193473339081,-3.309918165206909
1403638130655097000,-0.019243236631155014,0.262504905462265,0.20548221468925476,9.308554649353027,-0.4178251028060913,-3.2850890159606934
1403638130660097000,-0.010488015599548817,0.27610549330711365,0.2342970371246338,9.350005149841309,-0.5199763774871826,-3.3094780445098877
1403638130665097000,-0.004977223463356495,0.28176096081733704,0.2648923993110657,9.122210502624512,-0.7241721153259277,-3.242602825164795
1403638130670097000,0.00853565614670515,0.2886940836906433,0.29766911268234253,9.122346878051758,-0.810006856918335,-3.2743351459503174
1403638130675097000,0.027041975408792496,0.29544755816459656,0.33250805735588074,8.934906959533691,-0.8491910099983215,-3.241659164428711
1403638130680097000,0.04158254340291023,0.29775336384773254,0.3670254945755005,9.041646003723145,-0.835860550403595,-3.243401050567627
1403638130685097000,0.05672866478562355,0.3064914047718048,0.3966366946697235,8.780603408813477,-0.8453577160835266,-3.1624526977539062
1403638130690097000,0.0686858594417572,0.3106919229030609,0.4240863621234894,8.71324634552002,-0.7132197618484497,-3.047269582748413
1403638130695097000,0.07990309596061707,0.3153028190135956,0.4500384032726288,8.549113273620605,-0.7118071913719177,-2.9329378604888916
1403638130700097000,0.08696508407592773,0.31329479813575745,0.47456851601600647,8.71247673034668,-0.7383440136909485,-2.934424877166748
1403638130705097000,0.09160171449184418,0.31708353757858276,0.49365225434303284,8.655768394470215,-0.8115387558937073,-2.9030253887176514
1403638130710097000,0.09938107430934906,0.32425424456596375,0.5111884474754333,8.891979217529297,-0.8378664255142212,-2.9347848892211914
1403638130715097000,0.10706664621829987,0.3391166627407074,0.5238263607025146,8.768619537353516,-0.8220465779304504,-2.8367931842803955
1403638130720097000,0.1095946729183197,0.33140259981155396,0.5363253951072693,8.711490631103516,-0.8223211169242859,-2.8873555660247803
1403638130725097000,0.114108607172966,0.3342726528644562,0.5464233160018921,8.605971336364746,-0.8793460726737976,-2.8648436069488525
1403638130730097000,0.11936065554618835,0.3171207010746002,0.557806134223938,8.39416217803955,-1.0079272985458374,-2.8570480346679688
1403638130735097000,0.12894871830940247,0.2970505356788635,0.5674181580543518,8.408764839172363,-1.048511266708374,-2.8391284942626953
1403638130740097000,0.13619104027748108,0.27363839745521545,0.5760836601257324,8.49060344696045,-1.0328174829483032,-2.9704060554504395
1403638130745097000,0.14835596084594727,0.2525350749492645,0.5718958973884583,8.367315292358398,-1.0871165990829468,-2.969689130783081
1403638130750097000,0.15890373289585114,0.22867944836616516,0.568893313407898,8.354866027832031,-1.0928351879119873,-2.8854925632476807
1403638130755097000,0.1664332002401352,0.21040016412734985,0.5511226654052734,8.338059425354004,-0.9761475324630737,-2.8175885677337646
1403638130760097000,0.16462893784046173,0.18626490235328674,0.5324845314025879,8.50182819366455,-0.8537691235542297,-2.8239219188690186
1403638130765097000,0.1607556939125061,0.17822515964508057,0.5063780546188354,8.73284912109375,-0.7002639770507812,-2.8648295402526855
1403638130770097000,0.1510457694530487,0.17030194401741028,0.4790478050708771,8.742302894592285,-0.7312728762626648,-2.85629940032959
1403638130775097000,0.13993918895721436,0.1713770031929016,0.4386962950229645,8.701581954956055,-0.803200364112854,-2.790454387664795
1403638130780097000,0.13163097202777863,0.16028380393981934,0.40155676007270813,8.529753684997559,-0.8678638935089111,-2.781745433807373
1403638130785097000,0.12815023958683014,0.14964863657951355,0.3631831705570221,8.621659278869629,-0.8277435302734375,-2.8230862617492676
1403638130790097000,0.12188780307769775,0.13121169805526733,0.32681289315223694,8.492046356201172,-0.9233428239822388,-2.8719089031219482
1403638130795097000,0.11337244510650635,0.11878065764904022,0.2841143310070038,8.551214218139648,-0.9160580635070801,-2.905937433242798
1403638130800097000,0.1078673005104065,0.09920218586921692,0.25172996520996094,8.332294464111328,-1.005075454711914,-2.896427869796753
1403638130805097000,0.10492397844791412,0.08731386065483093,0.22658832371234894,8.31627368927002,-0.9969049692153931,-2.9461545944213867
1403638130810097000,0.09881949424743652,0.07437972724437714,0.20899581909179688,8.030614852905273,-0.9567705988883972,-2.905052900314331
1403638130815097000,0.09730836749076843,0.06063419580459595,0.18893831968307495,8.039440155029297,-0.8203105330467224,-2.9478580951690674
1403638130820097000,0.09068594872951508,0.04679842293262482,0.17277871072292328,7.885962009429932,-0.8521323800086975,-2.9320011138916016
1403638130825097000,0.0883483737707138,0.036545008420944214,0.15119388699531555,7.993925094604492,-0.8269827365875244,-2.9496402740478516
1403638130830097000,0.08642838895320892,0.03599214553833008,0.13723552227020264,7.832709312438965,-0.9156017303466797,-2.8507473468780518
1403638130835097000,0.08765853941440582,0.03334459662437439,0.13054019212722778,7.888735771179199,-0.9478105306625366,-2.793670892715454
1403638130840097000,0.08907938003540039,0.038985028862953186,0.12772254645824432,7.734179973602295,-0.922884464263916,-2.7279105186462402
1403638130845097000,0.08833606541156769,0.04093565046787262,0.13106852769851685,7.822979927062988,-0.8670943379402161,-2.712693214416504
1403638130850097000,0.0875793993473053,0.05354514718055725,0.13377594947814941,7.750417709350586,-0.9477022290229797,-2.7201876640319824
1403638130855097000,0.08564233779907227,0.06117938458919525,0.14169055223464966,7.872946262359619,-0.9951361417770386,-2.7603585720062256
1403638130860097000,0.08741062879562378,0.0736723244190216,0.14265090227127075,7.758857727050781,-1.0767507553100586,-2.7180731296539307
1403638130865097000,0.09436185657978058,0.07988953590393066,0.14774978160858154,7.797911643981934,-0.9889672994613647,-2.7600138187408447
1403638130870097000,0.10143496096134186,0.08288618922233582,0.1527533233165741,7.643045425415039,-0.9641250371932983,-2.718386650085449
1403638130875097000,0.10194697976112366,0.08513674139976501,0.1576903611421585,7.795331001281738,-0.795794665813446,-2.7198431491851807
1403638130880097000,0.09557731449604034,0.09437476098537445,0.15839138627052307,7.851120948791504,-0.6176120042800903,-2.7867226600646973
1403638130885097000,0.07890103757381439,0.10777464509010315,0.15500570833683014,7.988768100738525,-0.46253785490989685,-2.80521821975708
1403638130890097000,0.05642089620232582,0.1253500133752823,0.14942818880081177,8.037646293640137,-0.431363970041275,-2.757370948791504
1403638130895097000,0.03219519928097725,0.1462407112121582,0.15282174944877625,8.045693397521973,-0.3990098237991333,-2.733041763305664
1403638130900097000,0.006635504774749279,0.17549529671669006,0.14873827993869781,8.111542701721191,-0.40686896443367004,-2.7256383895874023
1403638130905097000,-0.01763593778014183,0.1986132562160492,0.1444522887468338,8.105195999145508,-0.49723902344703674,-2.66147780418396
1403638130910097000,-0.04555549845099449,0.23494639992713928,0.13729017972946167,8.13932991027832,-0.6352452635765076,-2.6863462924957275
1403638130915097000,-0.06167895719408989,0.2608340084552765,0.13583044707775116,8.188549995422363,-0.7805905938148499,-2.6372053623199463
1403638130920097000,-0.07217320799827576,0.29738083481788635,0.1352502852678299,8.131619453430176,-0.8159233331680298,-2.645029306411743
1403638130925097000,-0.07805624604225159,0.32503262162208557,0.14152757823467255,7.927994728088379,-0.826134443283081,-2.546989679336548
1403638130930097000,-0.08296312391757965,0.35187074542045593,0.14221736788749695,7.896059989929199,-0.7710538506507874,-2.491480827331543
1403638130935097000,-0.09496155381202698,0.3668079078197479,0.14550544321537018,7.660070419311523,-0.8387893438339233,-2.4508676528930664
1403638130940097000,-0.10893043875694275,0.38369616866111755,0.1412133276462555,7.700890064239502,-0.8068392872810364,-2.5008697509765625
1403638130945097000,-0.11105263233184814,0.4054955542087555,0.1449730098247528,7.580074787139893,-0.8725890517234802,-2.362861156463623
1403638130950097000,-0.11578118801116943,0.4187643229961395,0.1423257440328598,7.686702728271484,-0.8083531856536865,-2.3568971157073975
1403638130955097000,-0.11732757836580276,0.4349081218242645,0.14636173844337463,7.55641508102417,-0.7774426341056824,-2.2593958377838135
1403638130960097000,-0.1254233568906784,0.45168110728263855,0.14430846273899078,7.573797225952148,-0.7370094060897827,-2.2452168464660645
1403638130965097000,-0.1314598172903061,0.46163490414619446,0.15757869184017181,7.403693675994873,-0.8351245522499084,-2.138603687286377
1403638130970097000,-0.1353151649236679,0.46495112776756287,0.15228883922100067,7.519654273986816,-1.003485918045044,-2.112553834915161
1403638130975097000,-0.13268809020519257,0.46268877387046814,0.15518958866596222,7.447559833526611,-1.2623231410980225,-2.0520882606506348
1403638130980097000,-0.12496016919612885,0.45746734738349915,0.15949027240276337,7.5792975425720215,-1.350403904914856,-2.008901834487915
1403638130985097000,-0.12156815826892853,0.45198479294776917,0.16668805480003357,7.448646068572998,-1.4252493381500244,-1.9001530408859253
1403638130990097000,-0.11479746550321579,0.4398443400859833,0.17172671854496002,7.5792717933654785,-1.4572041034698486,-1.8579280376434326
1403638130995097000,-0.10410910844802856,0.43051984906196594,0.17799213528633118,7.562921047210693,-1.5685194730758667,-1.756434679031372
1403638131000097000,-0.09416824579238892,0.4217958152294159,0.18714389204978943,7.692816257476807,-1.559386134147644,-1.7300341129302979
1403638131005097000,-0.08526680618524551,0.42110976576805115,0.1969781517982483,7.651494026184082,-1.5685724020004272,-1.6463801860809326
1403638131010097000,-0.07897446304559708,0.4112415015697479,0.19777202606201172,7.690461158752441,-1.4644776582717896,-1.6793161630630493
1403638131015097000,-0.07573142647743225,0.3979093134403229,0.19787785410881042,7.5498948097229,-1.4242314100265503,-1.6616731882095337
1403638131020097000,-0.06822577118873596,0.3733671009540558,0.19285784661769867,7.548521041870117,-1.3744243383407593,-1.6615186929702759
1403638131025097000,-0.06497013568878174,0.35537004470825195,0.18068796396255493,7.52328634262085,-1.3888882398605347,-1.7183219194412231
1403638131030097000,-0.06796436011791229,0.3316066563129425,0.16539520025253296,7.694231033325195,-1.2914267778396606,-1.776968002319336
1403638131035097000,-0.06856805086135864,0.32036712765693665,0.14644712209701538,7.662481784820557,-1.1649558544158936,-1.7548695802688599
1403638131040097000,-0.06852905452251434,0.2959528863430023,0.13032977283000946,7.5887322425842285,-1.0131549835205078,-1.6917473077774048
1403638131045097000,-0.07731492817401886,0.27506110072135925,0.11152441054582596,7.450079441070557,-0.8775443434715271,-1.6950677633285522
1403638131050097000,-0.08803592622280121,0.24422189593315125,0.09486132860183716,7.351819038391113,-0.8294600248336792,-1.5990740060806274
1403638131055097000,-0.09980444610118866,0.21838805079460144,0.06837131083011627,7.4175262451171875,-0.8275125026702881,-1.650557518005371
1403638131060097000,-0.10412491858005524,0.1919930875301361,0.05138364061713219,7.328410625457764,-1.0265895128250122,-1.6982965469360352
1403638131065097000,-0.10276857018470764,0.1712111532688141,0.020686883479356766,7.427627086639404,-1.1465855836868286,-1.707975149154663
1403638131070097000,-0.10427722334861755,0.14027228951454163,0.003106215503066778,7.3878703117370605,-1.3537673950195312,-1.698884129524231
1403638131075097000,-0.09259597957134247,0.11197026073932648,-0.013236356899142265,7.390219688415527,-1.5378992557525635,-1.6993352174758911
1403638131080097000,-0.07379938662052155,0.0760798454284668,-0.01853974722325802,7.343479156494141,-1.7141752243041992,-1.6909791231155396
1403638131085097000,-0.05561673268675804,0.0454057902097702,-0.025804324075579643,7.532250881195068,-1.8041573762893677,-1.748996376991272
1403638131090097000,-0.04272684082388878,0.014779224991798401,-0.03027675859630108,7.582127571105957,-1.879114031791687,-1.756946325302124
1403638131095097000,-0.035044413059949875,-0.015657320618629456,-0.03508075326681137,7.7774834632873535,-1.7864230871200562,-1.831765055656433
1403638131100097000,-0.028636466711759567,-0.04716514050960541,-0.040602099150419235,7.721412181854248,-1.7388014793395996,-1.807726263999939
1403638131105097000,-0.027479108422994614,-0.07689201831817627,-0.04950196295976639,7.859085559844971,-1.5871304273605347,-1.8088163137435913
1403638131110097000,-0.027751993387937546,-0.10422837734222412,-0.06132819131016731,7.786747455596924,-1.4900403022766113,-1.7695496082305908
1403638131115097000,-0.026810120791196823,-0.12356141209602356,-0.06836499273777008,7.917845726013184,-1.3597877025604248,-1.8026163578033447
1403638131120097000,-0.03659607097506523,-0.14883676171302795,-0.07971244305372238,7.837556838989258,-1.2937676906585693,-1.763007402420044
1403638131125097000,-0.03755338117480278,-0.16880863904953003,-0.0969553217291832,7.959636688232422,-1.229546308517456,-1.845381259918213
1403638131130097000,-0.041808243840932846,-0.19667424261569977,-0.11184322834014893,7.797553539276123,-1.22954261302948,-1.8463367223739624
1403638131135097000,-0.046606894582509995,-0.2212125062942505,-0.13083834946155548,7.935646057128906,-1.2889741659164429,-1.911887288093567
1403638131140097000,-0.045709576457738876,-0.24560904502868652,-0.15123113989830017,7.903185844421387,-1.3242743015289307,-1.9534168243408203
1403638131145097000,-0.04798209294676781,-0.27130213379859924,-0.1626945436000824,8.11547565460205,-1.2958331108093262,-2.0743818283081055
1403638131150097000,-0.04547625407576561,-0.2903478443622589,-0.1858372539281845,8.212480545043945,-1.331172227859497,-2.082335948944092
1403638131155097000,-0.04470371827483177,-0.30744442343711853,-0.20776617527008057,8.406569480895996,-1.38283371925354,-2.1885151863098145
1403638131160097000,-0.044502224773168564,-0.32062047719955444,-0.22900870442390442,8.485620498657227,-1.4993908405303955,-2.2204227447509766
1403638131165097000,-0.037440698593854904,-0.33560454845428467,-0.24845975637435913,8.622645378112793,-1.5085541009902954,-2.2284176349639893
1403638131170097000,-0.03418494388461113,-0.3408023416996002,-0.27216771245002747,8.67166805267334,-1.4019771814346313,-2.2367665767669678
1403638131175097000,-0.02908746525645256,-0.3503245711326599,-0.28789564967155457,8.753582954406738,-1.255424976348877,-2.3094348907470703
1403638131180097000,-0.03746376559138298,-0.35540029406547546,-0.30407339334487915,8.728588104248047,-1.163615345954895,-2.358863592147827
1403638131185097000,-0.04462508484721184,-0.36114606261253357,-0.3174610733985901,8.695686340332031,-1.0465129613876343,-2.37505841255188
1403638131190097000,-0.051729779690504074,-0.36895430088043213,-0.33090275526046753,8.589362144470215,-0.8823156356811523,-2.4079837799072266
1403638131195097000,-0.06159840151667595,-0.3835860788822174,-0.3315051794052124,8.45846939086914,-0.8725835084915161,-2.456984043121338
1403638131200097000,-0.07263557612895966,-0.39082983136177063,-0.3412286639213562,8.52462387084961,-0.7499784827232361,-2.497877836227417
1403638131205097000,-0.07864122092723846,-0.407687783241272,-0.3429306447505951,8.523438453674316,-0.8473045825958252,-2.5301365852355957
1403638131210097000,-0.07807378470897675,-0.4162802994251251,-0.35587817430496216,8.693243980407715,-0.8790013194084167,-2.570284605026245
1403638131215097000,-0.07905258238315582,-0.4211629331111908,-0.3566682040691376,8.707694053649902,-0.9852598905563354,-2.5934414863586426
1403638131220097000,-0.07323126494884491,-0.4220360815525055,-0.355227530002594,8.854719161987305,-0.9777982234954834,-2.633756399154663
1403638131225097000,-0.06611193716526031,-0.4164762496948242,-0.3397161066532135,8.814797401428223,-0.9552623629570007,-2.6659677028656006
1403638131230097000,-0.05753247067332268,-0.4047340750694275,-0.3310697078704834,8.890064239501953,-0.8495946526527405,-2.714796304702759
1403638131235097000,-0.0492982380092144,-0.401115745306015,-0.3214229643344879,8.815657615661621,-0.891207754611969,-2.7553417682647705
1403638131240097000,-0.04318792745471001,-0.3879212439060211,-0.3085884153842926,8.930913925170898,-0.8257012963294983,-2.8287081718444824
1403638131245097000,-0.039175521582365036,-0.3870657682418823,-0.28867411613464355,8.833673477172852,-0.8324955701828003,-2.819829225540161
1403638131250097000,-0.030611883848905563,-0.3716059923171997,-0.2757224440574646,8.980356216430664,-0.8150205612182617,-2.8686137199401855
1403638131255097000,-0.02551017329096794,-0.353004515171051,-0.25339168310165405,8.906744956970215,-0.8470218777656555,-2.8846850395202637
1403638131260097000,-0.018668781965970993,-0.3395739197731018,-0.23214969038963318,9.038653373718262,-0.6959468722343445,-2.891288995742798
1403638131265097000,-0.014200580306351185,-0.3225061893463135,-0.21041977405548096,8.940790176391602,-0.6697079539299011,-2.8907816410064697
1403638131270097000,-0.013158214278519154,-0.30132532119750977,-0.18482309579849243,9.10340690612793,-0.6260474920272827,-2.9305975437164307
1403638131275097000,-0.011232268996536732,-0.27997806668281555,-0.17191776633262634,9.020708084106445,-0.6253827810287476,-2.9628701210021973
1403638131280097000,-0.0053337337449193,-0.26009032130241394,-0.1515861302614212,9.174169540405273,-0.6012048721313477,-3.052426338195801
1403638131285097000,0.004076826386153698,-0.23082713782787323,-0.13346275687217712,9.019217491149902,-0.6923007369041443,-3.069643974304199
1403638131290097000,0.009591984562575817,-0.21732401847839355,-0.11914583295583725,9.12517261505127,-0.6667972803115845,-3.093794584274292
1403638131295097000,0.015776414424180984,-0.20081022381782532,-0.10439812391996384,9.12497615814209,-0.6848621964454651,-3.1262576580047607
1403638131300097000,0.01864450052380562,-0.18946263194084167,-0.08967730402946472,9.26271915435791,-0.5185023546218872,-3.1494576930999756
1403638131305097000,0.016658324748277664,-0.17538578808307648,-0.0804540365934372,9.172686576843262,-0.3777979016304016,-3.2059125900268555
1403638131310097000,0.01715533807873726,-0.16260108351707458,-0.05865630879998207,9.123210906982422,-0.23734286427497864,-3.1882901191711426
1403638131315097000,0.002208220772445202,-0.14936959743499756,-0.048153165727853775,9.049334526062012,-0.10572420060634613,-3.212198495864868
1403638131320097000,-0.012071472592651844,-0.14254163205623627,-0.03628082945942879,9.015864372253418,-0.023756787180900574,-3.309889078140259
1403638131325097000,-0.02777765318751335,-0.1237182766199112,-0.03159359097480774,9.056127548217773,-0.007944508455693722,-3.3340840339660645
1403638131330097000,-0.041852276772260666,-0.11246025562286377,-0.018432291224598885,9.023294448852539,-0.16163435578346252,-3.3263494968414307
1403638131335097000,-0.05295763537287712,-0.08930253982543945,-0.01458139531314373,8.99860668182373,-0.2925577759742737,-3.294583320617676
1403638131340097000,-0.05663866922259331,-0.06974560022354126,-0.001537797972559929,8.981623649597168,-0.34958434104919434,-3.229633331298828
1403638131345097000,-0.05898885056376457,-0.04745127260684967,0.01235040184110403,8.948945045471191,-0.44643059372901917,-3.238546848297119
1403638131350097000,-0.061545636504888535,-0.027928918600082397,0.03324215114116669,8.915553092956543,-0.5771856307983398,-3.2226529121398926
1403638131355097000,-0.05927927419543266,0.000597342848777771,0.051222462207078934,8.956279754638672,-0.6031032800674438,-3.190608501434326
1403638131360097000,-0.05774180218577385,0.01642206311225891,0.07491488009691238,8.866589546203613,-0.7158762216567993,-3.2304587364196777
1403638131365097000,-0.05568714067339897,0.029606208205223083,0.09457647055387497,8.825496673583984,-0.7083307504653931,-3.2459428310394287
1403638131370097000,-0.05260660871863365,0.03022991120815277,0.11730359494686127,8.6298189163208,-0.7576383948326111,-3.2197744846343994
1403638131375097000,-0.050030943006277084,0.030747994780540466,0.1321074664592743,8.727127075195312,-0.7240548729896545,-3.2042551040649414
1403638131380097000,-0.04903928562998772,0.0294344425201416,0.14329394698143005,8.57245922088623,-0.7793868780136108,-3.1544058322906494
1403638131385097000,-0.046039726585149765,0.027277439832687378,0.15845847129821777,8.759844779968262,-0.747541069984436,-3.155282735824585
1403638131390097000,-0.04201356694102287,0.025012895464897156,0.1640929877758026,8.702542304992676,-0.8111961483955383,-3.097693920135498
1403638131395097000,-0.030146267265081406,0.027707740664482117,0.16565057635307312,8.914368629455566,-0.8123270273208618,-3.1148502826690674
1403638131400097000,-0.028055842965841293,0.032485559582710266,0.1634376347064972,8.93856143951416,-0.7974915504455566,-3.058126926422119
1403638131405097000,-0.0293787382543087,0.04559259116649628,0.1557827889919281,9.183747291564941,-0.7179891467094421,-3.1168670654296875
1403638131410097000,-0.029766034334897995,0.05742500722408295,0.13983571529388428,9.135082244873047,-0.7031304240226746,-3.1164557933807373
1403638131415097000,-0.0360034815967083,0.07268683612346649,0.1230207234621048,9.249581336975098,-0.6796770691871643,-3.223594903945923
1403638131420097000,-0.037267815321683884,0.08614425361156464,0.10145478695631027,9.09482192993164,-0.631683886051178,-3.149965763092041
1403638131425097000,-0.04745857045054436,0.08846980333328247,0.07911472767591476,9.135329246520996,-0.5670957565307617,-3.19199275970459
1403638131430097000,-0.05388810858130455,0.08859193325042725,0.05246438831090927,9.061980247497559,-0.510814368724823,-3.176013708114624
1403638131435097000,-0.06590817868709564,0.08951543271541595,0.031568486243486404,9.045943260192871,-0.38956597447395325,-3.2251083850860596
1403638131440097000,-0.07852286100387573,0.08975429832935333,-0.010164504870772362,8.964936256408691,-0.39564645290374756,-3.1932592391967773
1403638131445097000,-0.08475728332996368,0.07928796112537384,-0.039131321012973785,8.940732955932617,-0.3707510232925415,-3.2186052799224854
1403638131450097000,-0.09763939678668976,0.06937876343727112,-0.07462086528539658,8.875893592834473,-0.28135615587234497,-3.1860015392303467
1403638131455097000,-0.1080629974603653,0.05179537832736969,-0.10267321020364761,8.843123435974121,-0.22180454432964325,-3.194582462310791
1403638131460097000,-0.1200208067893982,0.03987285494804382,-0.13710026443004608,8.681341171264648,-0.23716704547405243,-3.12222957611084
1403638131465097000,-0.13581116497516632,0.020333945751190186,-0.1520814448595047,8.53563404083252,-0.3019862771034241,-3.058269500732422
1403638131470097000,-0.14503011107444763,0.0062358081340789795,-0.1590721309185028,8.463126182556152,-0.3984055519104004,-2.978167772293091
1403638131475097000,-0.15248630940914154,-0.0180625319480896,-0.15367837250232697,8.390889167785645,-0.5853829979896545,-2.897475004196167
1403638131480097000,-0.15667442977428436,-0.031926676630973816,-0.14657720923423767,8.513038635253906,-0.7078732252120972,-2.841135263442993
1403638131485097000,-0.15047915279865265,-0.046350181102752686,-0.12853604555130005,8.521486282348633,-0.9438560009002686,-2.8423349857330322
1403638131490097000,-0.14135076105594635,-0.055399686098098755,-0.11385461688041687,8.603484153747559,-1.0664705038070679,-2.818511962890625
1403638131495097000,-0.12352803349494934,-0.05321919918060303,-0.07970257103443146,8.522082328796387,-1.188603401184082,-2.801454544067383
1403638131500097000,-0.09773440659046173,-0.058770373463630676,-0.05403044447302818,8.514154434204102,-1.2295750379562378,-2.8082897663116455
1403638131505097000,-0.079205721616745,-0.06934742629528046,-0.02209893800318241,8.489324569702148,-1.262483835220337,-2.806582450866699
1403638131510097000,-0.05935756489634514,-0.08086748421192169,-0.003805877175182104,8.626935005187988,-1.174609899520874,-2.903707265853882
1403638131515097000,-0.036721598356962204,-0.08646048605442047,0.019471947103738785,8.570049285888672,-1.1182327270507812,-2.8440661430358887
1403638131520097000,-0.019277464598417282,-0.0941728949546814,0.03675255551934242,8.772224426269531,-0.9308095574378967,-2.908616781234741
1403638131525097000,-0.01276372093707323,-0.09915962815284729,0.052306581288576126,8.689830780029297,-0.7920675277709961,-2.8985328674316406
1403638131530097000,-0.004704547114670277,-0.10705693066120148,0.060930509120225906,8.818933486938477,-0.5885322690010071,-2.889819622039795
1403638131535097000,-0.0015238644555211067,-0.11134111881256104,0.06853002309799194,8.826234817504883,-0.49779802560806274,-2.8890790939331055
1403638131540097000,-0.002759319730103016,-0.1105366051197052,0.0720175951719284,9.01259994506836,-0.3676782250404358,-3.044116973876953
1403638131545097000,-0.007690382190048695,-0.1022215336561203,0.07146374136209488,8.980131149291992,-0.2795901894569397,-3.026639223098755
1403638131550097000,-0.014405709691345692,-0.0938299298286438,0.06387929618358612,9.06977653503418,-0.17359724640846252,-3.108736515045166
1403638131555097000,-0.019215505570173264,-0.08957141637802124,0.054582517594099045,8.907814025878906,-0.19014319777488708,-3.1081743240356445
1403638131560097000,-0.02279491350054741,-0.0901559442281723,0.04546821862459183,8.924492835998535,-0.21604448556900024,-3.1248738765716553
1403638131565097000,-0.02679256722331047,-0.09767746925354004,0.03280534967780113,8.738227844238281,-0.22344739735126495,-3.108119487762451
1403638131570097000,-0.02557538077235222,-0.11297152936458588,0.025062089785933495,8.820180892944336,-0.2388167679309845,-3.14091157913208
1403638131575097000,-0.02361808344721794,-0.1254645586013794,0.00822298601269722,8.837247848510742,-0.32859891653060913,-3.0921828746795654
1403638131580097000,-0.027840744704008102,-0.13872389495372772,-0.0031533599831163883,8.97549819946289,-0.3594250977039337,-3.1006815433502197
