#timestamp [ns],w_RS_S_x [rad s^-1],w_RS_S_y [rad s^-1],w_RS_S_z [rad s^-1],a_RS_S_x [m s^-2],a_RS_S_y [m s^-2],a_RS_S_z [m s^-2]
1403638127270097000,-0.010471975511965976,0.01117010721276371,0.06562437987498679,8.956740333333332,0.08172208333333333,-3.930832208333333
1403638127275097000,-0.012566370614359173,0.0153588974175501,0.059341194567807204,9.095667875,0.04903325,-3.947176625
1403638127280097000,-0.01117010721276371,0.0153588974175501,0.059341194567807204,9.07115125,-0.04086104166666667,-3.955348833333333
1403638127285097000,-0.011868238913561441,0.021642082724729686,0.04817108735504349,9.201906583333333,-0.08989429166666667,-3.9962098749999995
1403638127290097000,-0.01117010721276371,0.02722713633111154,0.050963614158234416,9.005773583333333,-0.16344416666666667,-3.947176625
1403638127295097000,-0.006283185307179587,0.03420845333908886,0.05305800926062762,8.964912541666667,-0.17978858333333333,-3.930832208333333
1403638127300097000,-0.006981317007977318,0.030019663134302467,0.05864306286700947,8.7279185,-0.196133,-3.87362675
1403638127305097000,-0.006981317007977318,0.019547687622336492,0.0614355896702004,8.77695175,-0.17978858333333333,-3.87362675
1403638127310097000,-0.013962634015954637,0.01117010721276371,0.06771877497737998,8.695229666666666,-0.24516625,-3.8491101249999997
1403638127315097000,-0.014660765716752367,0.010471975511965976,0.07330382858376185,8.842329416666665,-0.26151066666666667,-3.898143375
1403638127320097000,-0.014660765716752367,0.00767944870877505,0.08447393579652555,8.858673833333333,-0.4004382083333333,-3.8654545416666664
1403638127325097000,-0.008377580409572781,0.013962634015954637,0.09285151620609833,9.087495666666666,-0.392266,-3.92266
1403638127330097000,0.0020943951023931952,0.016755160819145562,0.10471975511965977,8.964912541666667,-0.43312704166666666,-3.97169325
1403638127335097000,0.017453292519943295,0.024434609527920613,0.11030480872604163,9.103840083333333,-0.34323275000000003,-3.97169325
1403638127340097000,0.01815142422074103,0.028623399732707,0.10471975511965977,8.891362666666666,-0.269682875,-3.930832208333333
1403638127345097000,0.020943951023931952,0.021642082724729686,0.10192722831646883,8.948568125,-0.04903325,-3.97169325
1403638127350097000,0.0153588974175501,0.016057029118347832,0.1054178868204575,8.825985,0.04903325,-3.955348833333333
1403638127355097000,0.010471975511965976,0.014660765716752367,0.10821041362364843,8.858673833333333,0.0980665,-3.9635210416666666
1403638127360097000,0.0020943951023931952,0.00767944870877505,0.1054178868204575,8.77695175,0.0980665,-3.92266
1403638127365097000,0.0,0.003490658503988659,0.10471975511965977,8.997601374999999,0.13892754166666665,-3.906315583333333
1403638127370097000,-0.004886921905584123,0.0020943951023931952,0.09704030641088471,8.981256958333333,0.06537766666666667,-3.9144877916666663
1403638127375097000,-0.009075712110370514,0.0013962634015954637,0.08587019919812101,9.1201845,0.08172208333333333,-3.92266
1403638127380097000,-0.009075712110370514,0.004886921905584123,0.0747000919853573,9.030290208333332,0.016344416666666667,-3.857282333333333
1403638127385097000,-0.004886921905584123,0.005585053606381855,0.06632251157578452,9.087495666666666,0.016344416666666667,-3.8654545416666664
1403638127390097000,-0.0041887902047863905,0.013264502315156905,0.060039326268604934,9.030290208333332,-0.016344416666666667,-3.906315583333333
1403638127395097000,-0.003490658503988659,0.014660765716752367,0.057246799465414,8.989429166666666,-0.016344416666666667,-3.9635210416666666
1403638127400097000,0.0006981317007977319,0.019547687622336492,0.04817108735504349,8.97308475,0.04903325,-3.97169325
1403638127405097000,-0.0027925268031909274,0.023736477827122883,0.04537856055185257,9.062979041666667,0.13075533333333333,-4.069759749999999
1403638127410097000,-0.005585053606381855,0.0307177948351002,0.05166174585903216,8.997601374999999,0.11441091666666667,-4.086104166666667
1403638127415097000,-0.012222439050674438,0.030351907014846802,0.05389849841594696,8.97664737701416,0.08223970979452133,-4.144112586975098
1403638127420097000,-0.014762287959456444,0.032944001257419586,0.061214521527290344,8.848618507385254,0.011383146047592163,-4.033387184143066
1403638127425097000,-0.01669985055923462,0.02749744802713394,0.0605589896440506,8.912833213806152,-0.06047028303146362,-4.00941276550293
1403638127430097000,-0.019929293543100357,0.03146039694547653,0.06266894936561584,8.847025871276855,-0.14007221162319183,-4.025112628936768
1403638127435097000,-0.012668836861848831,0.03430996835231781,0.07451976835727692,8.964997291564941,-0.18900500237941742,-4.039379119873047
1403638127440097000,-0.00511767715215683,0.04192963242530823,0.07725519686937332,8.970434188842773,-0.268454372882843,-4.062466621398926
1403638127445097000,0.00044472888112068176,0.04621802270412445,0.08271323889493942,9.090251922607422,-0.245660200715065,-4.029682636260986
1403638127450097000,0.0029046572744846344,0.052907973527908325,0.08068372309207916,9.115557670593262,-0.16611197590827942,-4.005836486816406
1403638127455097000,0.008794508874416351,0.06029853969812393,0.08746713399887085,9.0288724899292,-0.10133999586105347,-3.910750150680542
1403638127460097000,0.009022083133459091,0.06568079441785812,0.09075050055980682,8.82109260559082,-0.10733050853013992,-3.823739767074585
1403638127465097000,0.003062676638364792,0.04989461600780487,0.09494073688983917,8.83039665222168,-0.05231453850865364,-3.8078598976135254
1403638127470097000,-0.007803041487932205,0.04224888235330582,0.09311452507972717,8.868802070617676,-0.004483455326408148,-3.7995779514312744
1403638127475097000,-0.02046165056526661,0.03587135672569275,0.09256294369697571,8.906574249267578,-0.09203728288412094,-3.7830371856689453
1403638127480097000,-0.023877646774053574,0.027534201741218567,0.08922044187784195,8.833019256591797,-0.21900659799575806,-3.7109439373016357
1403638127485097000,-0.018340686336159706,0.013262566179037094,0.08986755460500717,8.865178108215332,-0.3156418800354004,-3.670199155807495
1403638127490097000,-0.015166014432907104,0.01030183956027031,0.08185344934463501,8.929577827453613,-0.3799554705619812,-3.685225009918213
1403638127495097000,-0.0045089684426784515,0.005584321916103363,0.08202942460775375,8.920978546142578,-0.42881086468696594,-3.7320163249969482
1403638127500097000,0.010650735348463058,0.01511596143245697,0.07457772642374039,9.04904842376709,-0.34167635440826416,-3.842658519744873
1403638127505097000,0.015585388988256454,0.01660875976085663,0.07788465172052383,8.969968795776367,-0.22981159389019012,-3.8745875358581543
1403638127510097000,0.016434911638498306,0.01130271703004837,0.07243862748146057,9.061058044433594,-0.038882408291101456,-4.034224987030029
1403638127515097000,0.013522762805223465,0.018211472779512405,0.08055543154478073,9.01423454284668,0.017229219898581505,-4.090564250946045
1403638127520097000,0.008894223719835281,0.014589536935091019,0.08393841236829758,8.91955280303955,0.09008714556694031,-4.100456237792969
1403638127525097000,0.00951123982667923,0.012844603508710861,0.08801257610321045,8.86302661895752,0.011281526647508144,-4.021875858306885
1403638127530097000,0.00761384516954422,0.005132421851158142,0.07647726684808731,8.822673797607422,0.08335655927658081,-3.89582896232605
1403638127535097000,-0.0009666793048381805,-0.00447005033493042,0.07577956467866898,8.935626029968262,0.14511479437351227,-4.015195846557617
1403638127540097000,-0.013395536690950394,0.004648145288228989,0.07759370654821396,9.031853675842285,0.184025838971138,-4.014653205871582
1403638127545097000,-0.022137491032481194,0.0021099932491779327,0.08692071586847305,8.983163833618164,0.04797888547182083,-3.9752752780914307
1403638127550097000,-0.02385953813791275,0.009856879711151123,0.0855981856584549,9.086867332458496,-0.15154895186424255,-3.8709073066711426
1403638127555097000,-0.01614224910736084,0.0030491426587104797,0.08719984441995621,8.93392562866211,-0.334042489528656,-3.791079521179199
1403638127560097000,-0.001187305897474289,0.01420312374830246,0.07302602380514145,9.204310417175293,-0.3656857907772064,-3.8773369789123535
1403638127565097000,0.011117581278085709,0.01947959139943123,0.06213349103927612,9.036186218261719,-0.28482586145401,-3.8779869079589844
1403638127570097000,0.012825939804315567,0.027722448110580444,0.054489776492118835,8.949389457702637,-0.0692366361618042,-3.9665210247039795
1403638127575097000,0.010456550866365433,0.019831571727991104,0.06529443711042404,8.774633407592773,-0.028516333550214767,-3.9673831462860107
1403638127580097000,0.0022314824163913727,0.014785204082727432,0.07421506196260452,8.74323844909668,0.0031469762325286865,-3.975961685180664
1403638127585097000,-0.002353385090827942,0.0031243599951267242,0.08263593167066574,8.77380084991455,-0.0927247628569603,-3.9921681880950928
1403638127590097000,-0.005748193711042404,0.0057196244597435,0.07873933762311935,8.941984176635742,-0.04540155827999115,-4.063534736633301
1403638127595097000,-0.008055184036493301,0.0020256415009498596,0.0867009237408638,8.915308952331543,-0.14046142995357513,-4.007319927215576
1403638127600097000,-0.0022612661123275757,0.00834415853023529,0.08037040382623672,9.108757972717285,-0.14165090024471283,-4.046049118041992
1403638127605097000,-0.0007930994033813477,0.009689472615718842,0.08368957787752151,9.005898475646973,-0.16661442816257477,-3.9742794036865234
1403638127610097000,0.007134567946195602,0.019027769565582275,0.08504651486873627,9.08631706237793,-0.19150878489017487,-3.973301649093628
1403638127615097000,0.012379735708236694,0.021008893847465515,0.09063205122947693,8.927590370178223,-0.10403620451688766,-3.9498679637908936
1403638127620097000,0.017848264425992966,0.02838713675737381,0.08519717305898666,9.0387601852417,-0.023858096450567245,-3.9811666011810303
1403638127625097000,0.013266399502754211,0.027663826942443848,0.07976913452148438,8.885396003723145,0.03447705879807472,-3.958843231201172
1403638127630097000,0.006269581615924835,0.030998624861240387,0.07234399020671844,8.958252906799316,0.15325863659381866,-4.047038555145264
1403638127635097000,-0.0039004869759082794,0.024887897074222565,0.06947337836027145,8.845433235168457,0.17841918766498566,-3.976783514022827
1403638127640097000,-0.01080663688480854,0.02278471738100052,0.06264639645814896,8.991313934326172,0.22633172571659088,-4.00106143951416
1403638127645097000,-0.01528947614133358,0.018679708242416382,0.06402914971113205,8.885730743408203,0.07547692209482193,-3.9061365127563477
1403638127650097000,-0.019675051793456078,0.01408621296286583,0.056024543941020966,9.071290016174316,-0.029153304174542427,-3.9529967308044434
1403638127655097000,-0.017549991607666016,0.01680302619934082,0.05406011641025543,8.981342315673828,-0.20489263534545898,-3.960505962371826
1403638127660097000,-0.01479247584939003,0.0195796899497509,0.046459466218948364,9.044779777526855,-0.27698010206222534,-3.943340539932251
1403638127665097000,-0.0068451277911663055,0.029857195913791656,0.05305737257003784,8.883604049682617,-0.2843029797077179,-3.8953349590301514
1403638127670097000,-0.0023055076599121094,0.0314280167222023,0.05968252569437027,8.988872528076172,-0.18163949251174927,-3.9664382934570312
1403638127675097000,0.0005002841353416443,0.03810962289571762,0.07057973742485046,8.92317008972168,-0.20446591079235077,-3.9660234451293945
1403638127680097000,-0.010857583954930305,0.0359644889831543,0.07342550903558731,8.988520622253418,-0.12534946203231812,-3.9664907455444336
1403638127685097000,-0.011731784790754318,0.03794871270656586,0.08572369068861008,8.810643196105957,-0.290936678647995,-3.958221197128296
1403638127690097000,-0.007725875824689865,0.03609028458595276,0.09440235793590546,8.93915843963623,-0.31542834639549255,-3.941682815551758
1403638127695097000,5.3200870752334595e-05,0.03421340882778168,0.10385400056838989,8.754118919372559,-0.3548220992088318,-3.901656150817871
1403638127700097000,0.006714049726724625,0.025000035762786865,0.10118643194437027,8.874533653259277,-0.275704026222229,-3.917604446411133
1403638127705097000,0.01332196593284607,0.02141934633255005,0.10467582195997238,8.76218032836914,-0.17992575466632843,-3.8936100006103516
1403638127710097000,0.013334158807992935,0.010584667325019836,0.09994854778051376,8.8101167678833,-0.0929947942495346,-3.8303120136260986
1403638127715097000,0.0031829364597797394,0.003192625939846039,0.09453172236680984,8.850239753723145,-0.06898626685142517,-3.782940626144409
1403638127720097000,0.0019202344119548798,0.0024189725518226624,0.09452339261770248,9.044148445129395,0.04880356043577194,-3.8934826850891113
1403638127725097000,-0.0011445879936218262,0.011179748922586441,0.09258769452571869,9.115434646606445,0.025176139548420906,-3.900913715362549
1403638127730097000,-0.006248738616704941,0.021570488810539246,0.09063825011253357,9.269749641418457,0.07251675426959991,-3.9163832664489746
1403638127735097000,-0.005789242684841156,0.02702837437391281,0.08864820748567581,9.062507629394531,0.009235444478690624,-3.9012341499328613
1403638127740097000,-0.002304021269083023,0.024223335087299347,0.08008578419685364,9.12112808227539,-0.015565522015094757,-3.93312931060791
1403638127745097000,-0.0022428669035434723,0.027697458863258362,0.07267601788043976,8.93713665008545,-0.007522952742874622,-3.9504032135009766
1403638127750097000,-0.005821675062179565,0.022907517850399017,0.06722506135702133,8.9044771194458,0.02371319569647312,-3.9989356994628906
1403638127755097000,-0.003846149891614914,0.021066933870315552,0.06183924525976181,8.741633415222168,-0.05355757474899292,-3.9678945541381836
1403638127760097000,-0.004416372627019882,0.015697084367275238,0.06040246784687042,8.837377548217773,-0.006638641469180584,-4.047792911529541
1403638127765097000,-0.005030300468206406,0.011612214148044586,0.06167548894882202,8.803823471069336,-0.03775809332728386,-4.047919750213623
1403638127770097000,-0.005751747637987137,0.007609330117702484,0.068300761282444,8.981557846069336,-0.022107088938355446,-4.055220127105713
1403638127775097000,-0.008982082828879356,0.010182477533817291,0.07557102292776108,9.04615592956543,-0.03819611296057701,-4.046875476837158
1403638127780097000,-0.007746744900941849,0.012353330850601196,0.07893559336662292,9.142829895019531,-0.1177617534995079,-4.046306610107422
1403638127785097000,-0.0090335663408041,0.022477492690086365,0.0795798972249031,9.031271934509277,-0.15675438940525055,-3.959315299987793
1403638127790097000,-0.006222151219844818,0.028026729822158813,0.0876128077507019,9.023415565490723,-0.24521026015281677,-3.9586713314056396
1403638127795097000,-0.0041890814900398254,0.03479889780282974,0.0903492346405983,8.910319328308105,-0.26856809854507446,-3.9265048503875732
1403638127800097000,-0.0007848478853702545,0.0321284756064415,0.09176227450370789,8.98881721496582,-0.24520209431648254,-3.9261720180511475
1403638127805097000,-0.0014779232442378998,0.03259892761707306,0.09120216965675354,8.86723804473877,-0.196954146027565,-3.8947434425354004
1403638127810097000,-0.0002896711230278015,0.025189906358718872,0.09262968599796295,8.842928886413574,-0.1725427210330963,-3.8868112564086914
1403638127815097000,0.001733977347612381,0.025795958936214447,0.09335264563560486,8.755047798156738,-0.18798615038394928,-3.9029922485351562
1403638127820097000,0.00388273224234581,0.019228633493185043,0.10006978362798691,8.907894134521484,-0.16540823876857758,-3.926210641860962
1403638127825097000,0.00443074107170105,0.022502966225147247,0.09347947686910629,8.867884635925293,-0.05338180810213089,-3.910647392272949
1403638127830097000,0.0030197687447071075,0.01517210528254509,0.09699290990829468,8.893299102783203,0.025900637730956078,-3.958362579345703
1403638127835097000,0.000966094434261322,0.01311994343996048,0.0955941453576088,8.990477561950684,0.06563320010900497,-3.973933696746826
1403638127840097000,0.00022116675972938538,0.016313597559928894,0.09024547040462494,9.150741577148438,0.048775285482406616,-3.996992588043213
1403638127845097000,-0.006372127681970596,0.027064695954322815,0.0834573358297348,9.086007118225098,-0.007334371563047171,-3.9974725246429443
1403638127850097000,-0.0065026916563510895,0.02892107516527176,0.08746599406003952,9.094996452331543,-0.04002048447728157,-3.973435878753662
1403638127855097000,-0.006491784006357193,0.03295612335205078,0.08423207700252533,9.01540756225586,-0.06393387168645859,-3.9820191860198975
1403638127860097000,-0.005597162991762161,0.02937905490398407,0.08619464933872223,9.00735855102539,-0.08759723603725433,-3.950191020965576
1403638127865097000,-0.007013935595750809,0.03317650407552719,0.08081507682800293,8.942633628845215,-0.07910970598459244,-3.9267380237579346
1403638127870097000,-0.004880685359239578,0.02591641992330551,0.0809021070599556,8.788564682006836,-0.18946683406829834,-3.863367795944214
1403638127875097000,-0.0008625872433185577,0.021967343986034393,0.0712502971291542,8.81209659576416,-0.18082596361637115,-3.879474639892578
1403638127880097000,-0.0014461055397987366,0.015824899077415466,0.07645086944103241,8.868118286132812,-0.14096345007419586,-3.902951240539551
1403638127885097000,-0.00018160417675971985,0.012434057891368866,0.07364051043987274,8.987570762634277,-0.11602204293012619,-3.902552843093872
1403638127890097000,0.001153692603111267,0.01190483570098877,0.0836855098605156,9.084181785583496,-0.1083449199795723,-3.9018280506134033
1403638127895097000,-0.0008325390517711639,0.01920904964208603,0.08302795886993408,9.08565616607666,-0.06890452653169632,-3.917684555053711
1403638127900097000,-0.004311330616474152,0.02276022732257843,0.08923711627721786,9.087384223937988,-0.08538095653057098,-3.9492576122283936
1403638127905097000,-0.0032130442559719086,0.0288410484790802,0.0838923528790474,9.040681838989258,-0.0775979533791542,-3.9815173149108887
1403638127910097000,-0.00044989213347435,0.027404479682445526,0.08667446672916412,8.94430923461914,-0.08615385740995407,-4.0536417961120605
1403638127915097000,0.006909046322107315,0.0326019749045372,0.08186598867177963,8.967105865478516,-0.06959012150764465,-4.013720512390137
1403638127920097000,0.009808346629142761,0.021167032420635223,0.07988016307353973,8.76511001586914,-0.044909123331308365,-3.9197165966033936
1403638127925097000,0.004502933472394943,0.018478788435459137,0.07309079170227051,9.10273265838623,0.07254297286272049,-3.9903557300567627
1403638127930097000,-0.007085360586643219,0.018806196749210358,0.07097392529249191,8.941364288330078,0.06591588258743286,-3.880000352859497
1403638127935097000,-0.019437748938798904,0.02231065183877945,0.06958756595849991,9.007275581359863,0.05736568942666054,-3.967557668685913
1403638127940097000,-0.02339257299900055,0.022589273750782013,0.07757609337568283,8.815845489501953,-0.08496356010437012,-3.8720028400421143
1403638127945097000,-0.02365344949066639,0.0165305957198143,0.07839813083410263,8.84773063659668,-0.22028617560863495,-3.847623586654663
1403638127950097000,-0.012638518586754799,0.007024019956588745,0.07999491691589355,8.972871780395508,-0.3568764626979828,-3.9343554973602295
1403638127955097000,-0.0037838369607925415,0.012763157486915588,0.07256129384040833,9.010601997375488,-0.3411911427974701,-3.949692964553833
1403638127960097000,0.004917353391647339,0.015664972364902496,0.06642060726881027,8.895954132080078,-0.3319185972213745,-3.902224540710449
1403638127965097000,0.00844590738415718,0.018860280513763428,0.06476997584104538,8.996049880981445,-0.13379232585430145,-3.9342663288116455
1403638127970097000,0.0062592364847660065,0.019397880882024765,0.06870462745428085,8.804274559020996,-0.029345061630010605,-3.8952414989471436
1403638127975097000,0.0006180070340633392,0.01642211526632309,0.06883563846349716,8.975665092468262,0.10585090517997742,-4.054572582244873
1403638127980097000,-0.0067550428211688995,0.014876093715429306,0.07363977283239365,8.927475929260254,0.09053078293800354,-4.055179595947266
1403638127985097000,-0.008636604994535446,0.013460885733366013,0.07493054866790771,9.005733489990234,0.027372578158974648,-3.9912354946136475
1403638127990097000,-0.01704561524093151,0.010885711759328842,0.07426948845386505,8.926021575927734,-0.06837364286184311,-3.9762799739837646
1403638127995097000,-0.01729816570878029,0.013613775372505188,0.07205711305141449,8.98279094696045,-0.0697585716843605,-3.951812267303467
1403638128000097000,-0.013993220403790474,0.01695242151618004,0.07341472804546356,8.893840789794922,-0.12569887936115265,-3.9200336933135986
1403638128005097000,-0.013053609058260918,0.023131996393203735,0.07403367757797241,9.05445671081543,-0.1272290199995041,-3.9269018173217773
1403638128010097000,-0.010495806112885475,0.025807224214076996,0.07277422398328781,8.996517181396484,-0.15949837863445282,-3.9582955837249756
1403638128015097000,-0.0019456073641777039,0.028483524918556213,0.06944461166858673,9.092707633972168,-0.1277187019586563,-3.989614248275757
1403638128020097000,0.003052830696105957,0.02702479064464569,0.06203573942184448,8.900742530822754,-0.09380418807268143,-3.9114017486572266
1403638128025097000,-0.0009416714310646057,0.019644327461719513,0.060503728687763214,8.950994491577148,-0.005237251054495573,-3.89591646194458
1403638128030097000,-0.006596658378839493,0.017430439591407776,0.05845590680837631,8.774435043334961,-0.0032557330559939146,-3.9051473140716553
1403638128035097000,-0.01341359131038189,0.0100313201546669,0.059781238436698914,8.895442962646484,0.05962112545967102,-3.9368693828582764
1403638128040097000,-0.018026264384388924,0.01220262423157692,0.06788671761751175,8.957695007324219,-0.04481370747089386,-3.960076332092285
1403638128045097000,-0.019984116777777672,0.012331265956163406,0.07464491575956345,9.117170333862305,-0.09400861710309982,-3.9427270889282227
1403638128050097000,-0.015590710565447807,0.011854179203510284,0.07547585666179657,9.027032852172852,-0.3005666732788086,-3.918423891067505
1403638128055097000,-0.009456951171159744,0.01123768836259842,0.07681956887245178,9.108774185180664,-0.34160158038139343,-3.9497158527374268
1403638128060097000,-0.006115984171628952,0.017728231847286224,0.07476439327001572,8.949797630310059,-0.3172627389431,-3.8781166076660156
1403638128065097000,-0.0010721422731876373,0.019226420670747757,0.0726780891418457,8.959080696105957,-0.22971254587173462,-3.9181978702545166
1403638128070097000,0.0008387677371501923,0.020641233772039413,0.07798221707344055,8.846620559692383,-0.1332300454378128,-3.910223960876465
1403638128075097000,0.0021046437323093414,0.019178330898284912,0.08956488966941833,8.853919982910156,-0.030003955587744713,-3.9576737880706787
1403638128080097000,-0.0038888193666934967,0.017030533403158188,0.09324833005666733,8.925971984863281,0.00948891881853342,-4.08550500869751
1403638128085097000,-0.009879911318421364,0.013651706278324127,0.09735924005508423,8.973966598510742,-0.006227891426533461,-4.045976638793945
1403638128090097000,-0.012698642909526825,0.018262740224599838,0.09401101619005203,8.982223510742188,-0.02985396236181259,-4.0228047370910645
1403638128095097000,-0.014507833868265152,0.01842441037297249,0.09539328515529633,8.975321769714355,-0.1338328719139099,-4.030974864959717
1403638128100097000,-0.00988040491938591,0.024541035294532776,0.0878915786743164,8.84678840637207,-0.1655244380235672,-3.9755802154541016
1403638128105097000,-0.0011762827634811401,0.01794087141752243,0.08922859281301498,8.894615173339844,-0.1190955638885498,-3.9117743968963623
1403638128110097000,-0.0001773051917552948,0.01644115149974823,0.08661885559558868,8.901341438293457,-0.10296723991632462,-3.9113388061523438
1403638128115097000,-0.0015742406249046326,0.004904653877019882,0.08938352018594742,8.972087860107422,-0.0952921062707901,-3.878772735595703
1403638128120097000,-0.005854833871126175,0.007471378892660141,0.08666364848613739,9.036504745483398,-0.05542752519249916,-3.910532236099243
1403638128125097000,-0.006959579885005951,0.01035483181476593,0.09273654967546463,9.003409385681152,-0.20551085472106934,-3.8780934810638428
1403638128130097000,-0.0016885511577129364,0.012666605412960052,0.09005898237228394,8.988832473754883,-0.1892406940460205,-3.8621773719787598
1403638128135097000,0.0012651234865188599,0.01006641611456871,0.08955225348472595,8.89438533782959,-0.18169653415679932,-3.9024503231048584
1403638128140097000,0.0032503455877304077,0.007697790861129761,0.08486903458833694,8.99946403503418,-0.086025170981884,-4.00590181350708
1403638128145097000,0.0004324503242969513,0.012163560837507248,0.09229853749275208,8.966575622558594,-0.08685997873544693,-4.053839206695557
1403638128150097000,0.0001588761806488037,0.0196412093937397,0.09017136693000793,9.102169036865234,-0.048036329448223114,-4.108979225158691
1403638128155097000,-0.0025050900876522064,0.0259714275598526,0.09566283226013184,8.885390281677246,-0.1107708290219307,-4.078041076660156
1403638128160097000,4.1268765926361084e-05,0.026748523116111755,0.09434647858142853,8.85507869720459,-0.06261345744132996,-4.086550235748291
1403638128165097000,-0.0023740194737911224,0.023843936622142792,0.09578236192464828,8.727038383483887,-0.07738029211759567,-4.031670570373535
1403638128170097000,0.000961747020483017,0.020256761461496353,0.09104647487401962,8.886334419250488,-0.07774703204631805,-4.087264060974121
1403638128175097000,-0.0002618730068206787,0.016137786209583282,0.09368178993463516,8.81161117553711,-0.09372677654027939,-3.9839189052581787
1403638128180097000,0.0002529732882976532,0.014194093644618988,0.0909992903470993,8.940393447875977,0.016169745475053787,-4.023521423339844
1403638128185097000,0.0003214925527572632,0.012301124632358551,0.09023648500442505,8.923426628112793,-0.030454006046056747,-3.896146297454834
1403638128190097000,0.00115136057138443,0.011732369661331177,0.08207518607378006,9.108907699584961,-0.054185181856155396,-3.8875670433044434
1403638128195097000,0.002519272267818451,0.01499059796333313,0.0799567699432373,9.021227836608887,-0.04590911045670509,-3.855944871902466
1403638128200097000,-0.00018896907567977905,0.015628453344106674,0.07035554945468903,9.127264976501465,0.034135401248931885,-3.847559690475464
1403638128205097000,0.0003595016896724701,0.021666735410690308,0.06897685676813126,9.022658348083496,0.002929772948846221,-3.8794682025909424
1403638128210097000,-0.0037343166768550873,0.021684959530830383,0.06486627459526062,9.119630813598633,0.06618596613407135,-3.895054817199707
1403638128215097000,-0.009119777008891106,0.027692124247550964,0.0635526105761528,9.006593704223633,0.026989739388227463,-3.895357847213745
1403638128220097000,-0.010815151035785675,0.03905269503593445,0.06351107358932495,9.103340148925781,0.0498812161386013,-3.9902586936950684
1403638128225097000,-0.015160713344812393,0.04056578874588013,0.06557966023683548,8.82968521118164,-0.10054879635572433,-3.9515740871429443
1403638128230097000,-0.01175219938158989,0.03140692412853241,0.06566096097230911,8.854621887207031,-0.1802138239145279,-3.991468667984009
1403638128235097000,-0.012229153886437416,0.026897206902503967,0.06568754464387894,8.701216697692871,-0.24334584176540375,-3.943953275680542
1403638128240097000,-0.009477736428380013,0.020046204328536987,0.06768246740102768,8.8605375289917,-0.23696152865886688,-3.9990410804748535
1403638128245097000,-0.004928208887577057,0.01900530979037285,0.07165972143411636,8.81013011932373,-0.2523422837257385,-3.9748682975769043
1403638128250097000,0.0031606927514076233,0.013932816684246063,0.0735698789358139,8.89777660369873,-0.2364100217819214,-3.966466188430786
1403638128255097000,0.004675917327404022,0.013944029808044434,0.07421811670064926,8.970686912536621,-0.18877853453159332,-3.966231346130371
1403638128260097000,0.005729410797357559,0.011837955564260483,0.0781918615102768,8.997318267822266,-0.045737575739622116,-3.9583311080932617
1403638128265097000,0.006213128566741943,0.01711774617433548,0.07877106219530106,8.989886283874512,0.026996474713087082,-3.9505746364593506
1403638128270097000,-0.0036345310509204865,0.02187616378068924,0.08076725900173187,9.014859199523926,0.01958560198545456,-3.94290828704834
1403638128275097000,-0.005418919026851654,0.025319211184978485,0.0794307291507721,8.97388744354248,0.0352855809032917,-3.9194297790527344
1403638128280097000,-0.005998849868774414,0.031438544392585754,0.08086290955543518,9.101128578186035,-0.045943938195705414,-3.958362579345703
1403638128285097000,-0.0049721673130989075,0.0393323078751564,0.07553934305906296,8.987602233886719,-0.12538985908031464,-3.9746415615081787
1403638128290097000,-0.0063680075109004974,0.0308116152882576,0.07286965101957321,9.020565032958984,-0.11861106753349304,-3.9986908435821533
1403638128295097000,-0.007123883813619614,0.034593939781188965,0.07353976368904114,8.909601211547852,-0.1023419126868248,-3.999281167984009
1403638128300097000,-0.006415463984012604,0.030305631458759308,0.08036144822835922,8.693073272705078,-0.13336996734142303,-3.9442179203033447
1403638128305097000,-0.0038878321647644043,0.021871469914913177,0.0784306526184082,8.741965293884277,-0.07046996057033539,-3.9683847427368164
1403638128310097000,-0.0010839328169822693,0.014500461518764496,0.08389266580343246,8.837030410766602,-0.03875972330570221,-3.999640941619873
1403638128315097000,-0.003494132310152054,0.0182117260992527,0.07789577543735504,8.946200370788574,-0.09363864362239838,-4.030933856964111
1403638128320097000,0.00032722949981689453,0.01582355424761772,0.07376793026924133,8.994768142700195,-0.08580116182565689,-4.006967544555664
1403638128325097000,-0.003075595945119858,0.024705514311790466,0.0721578374505043,9.012592315673828,0.001765519380569458,-3.9909074306488037
1403638128330097000,-0.0011101104319095612,0.028099223971366882,0.07816998660564423,9.038036346435547,-0.04565974324941635,-3.9745848178863525
1403638128335097000,-0.0026085972785949707,0.033497050404548645,0.07350733876228333,9.103809356689453,0.0011802073568105698,-3.998575448989868
1403638128340097000,-0.005778290331363678,0.03675171732902527,0.07286424934864044,8.942206382751465,-0.03825003653764725,-3.9435698986053467
1403638128345097000,-0.01055055856704712,0.03137345612049103,0.0627526044845581,8.982254028320312,-0.05324256792664528,-3.904121160507202
1403638128350097000,-0.010641487315297127,0.022654302418231964,0.07070782035589218,8.853121757507324,-0.08545119315385818,-3.8725671768188477
1403638128355097000,-0.012446828186511993,0.029692605137825012,0.06981810927391052,8.996176719665527,-0.11745315045118332,-3.9033172130584717
1403638128360097000,-0.008324939757585526,0.024577133357524872,0.07467877864837646,8.874785423278809,-0.20354750752449036,-3.8235831260681152
1403638128365097000,-0.005554843693971634,0.022308319807052612,0.07000644505023956,9.051519393920898,-0.18070973455905914,-3.8386542797088623
1403638128370097000,-0.011297721415758133,0.019923511892557144,0.07353987544775009,8.892032623291016,-0.2204466164112091,-3.8706960678100586
1403638128375097000,-0.010440181940793991,0.020434070378541946,0.07268612831830978,9.046032905578613,-0.1649063378572464,-3.885971784591675
1403638128380097000,-0.009120279923081398,0.021252259612083435,0.07866553217172623,8.917800903320312,-0.16464698314666748,-3.8464362621307373
1403638128385097000,-0.0030067376792430878,0.02269551157951355,0.08150458335876465,8.958361625671387,-0.12508177757263184,-3.9016408920288086
1403638128390097000,-0.0016574747860431671,0.02540876716375351,0.08570368587970734,8.88548469543457,-0.10885507613420486,-3.925375461578369
1403638128395097000,-0.0022806525230407715,0.023445449769496918,0.08314750343561172,9.013962745666504,-0.0860505998134613,-4.0208048820495605
1403638128400097000,-0.002381984144449234,0.027389883995056152,0.08785570412874222,8.883872985839844,-0.14910034835338593,-3.99725341796875
1403638128405097000,-0.0025945045053958893,0.027384236454963684,0.09119541943073273,8.965457916259766,-0.09477584809064865,-4.044914722442627
1403638128410097000,-0.0018353797495365143,0.02742268145084381,0.09327279776334763,8.796737670898438,-0.11013911664485931,-3.9344406127929688
1403638128415097000,0.004159398376941681,0.018750619143247604,0.09475916624069214,8.837579727172852,-0.07868539541959763,-3.9745090007781982
1403638128420097000,0.001145288348197937,0.01651032641530037,0.09008786082267761,8.85315990447998,-0.05472651869058609,-3.942960739135742
1403638128425097000,-0.002255301922559738,0.011030994355678558,0.09004180878400803,8.956686973571777,-0.03894408792257309,-3.94266414642334
1403638128430097000,-0.005774248391389847,0.009752750396728516,0.09060220420360565,8.85956859588623,-0.08560967445373535,-3.9030675888061523
1403638128435097000,-0.007683806121349335,0.0065239593386650085,0.09129875898361206,8.988856315612793,-0.08634085208177567,-3.8864991664886475
1403638128440097000,-0.004386428743600845,0.013172615319490433,0.09134500473737717,9.060376167297363,-0.10224535316228867,-3.893869638442993
1403638128445097000,0.0017171315848827362,0.018610376864671707,0.08602854609489441,9.140597343444824,-0.09443237632513046,-3.9253487586975098
1403638128450097000,0.002003069967031479,0.028042472898960114,0.07863135635852814,8.99679946899414,-0.09386982768774033,-3.9021072387695312
1403638128455097000,-0.005500052124261856,0.02474023401737213,0.07512930780649185,8.999006271362305,-0.06223234906792641,-3.9263975620269775
1403638128460097000,-0.011373398825526237,0.027812592685222626,0.07516926527023315,8.903609275817871,-0.014660620130598545,-3.990817070007324
1403638128465097000,-0.011379165574908257,0.0203237347304821,0.08133305609226227,8.862883567810059,-0.08631933480501175,-4.014988422393799
1403638128470097000,-0.014509690925478935,0.02298794686794281,0.08406129479408264,8.870033264160156,-0.07828008383512497,-4.007203578948975
1403638128475097000,-0.010248549282550812,0.017149902880191803,0.09629318863153458,8.819713592529297,-0.2289450615644455,-3.942716598510742
1403638128480097000,-0.0033404752612113953,0.01322830468416214,0.09164108335971832,8.826252937316895,-0.3000797927379608,-3.926561117172241
1403638128485097000,0.0021446645259857178,0.013798590749502182,0.08819445967674255,8.91469669342041,-0.2614787220954895,-3.8942513465881348
1403638128490097000,0.004503890872001648,0.01433701440691948,0.07932519912719727,8.931540489196777,-0.16585472226142883,-3.9579644203186035
1403638128495097000,0.005736641585826874,0.010568570345640182,0.08192649483680725,8.996626853942871,-0.13395577669143677,-3.973541021347046
1403638128500097000,0.005513247102499008,0.019713345915079117,0.08579577505588531,9.01427936553955,0.024943966418504715,-4.005360126495361
1403638128505097000,0.0015022382140159607,0.021753355860710144,0.09196633100509644,8.974581718444824,0.041220735758543015,-4.005747318267822
1403638128510097000,-0.004592049866914749,0.02929633855819702,0.08541204780340195,8.983280181884766,0.07422923296689987,-3.982649087905884
1403638128515097000,-0.009324170649051666,0.02453894168138504,0.08409257978200912,8.846539497375488,0.050728801637887955,-3.944143533706665
1403638128520097000,-0.008696790784597397,0.027045786380767822,0.07516306638717651,8.949800491333008,0.011132574640214443,-3.95188570022583
1403638128525097000,-0.01041332632303238,0.02089691162109375,0.07030192762613297,8.892228126525879,-0.06830491870641708,-3.8884358406066895
1403638128530097000,-0.009646818041801453,0.01699182018637657,0.06755060702562332,9.027631759643555,-0.1261289417743683,-3.9193897247314453
1403638128535097000,-0.006989903748035431,0.01564653217792511,0.07239585369825363,8.955681800842285,-0.15851177275180817,-3.9270875453948975
1403638128540097000,-0.005576517432928085,0.021636880934238434,0.07111085206270218,9.021003723144531,-0.13495032489299774,-3.966322660446167
1403638128545097000,-0.004234526306390762,0.02523823082447052,0.07573502510786057,8.94115924835205,-0.1500922590494156,-3.9107420444488525
1403638128550097000,-0.008262202143669128,0.0240543931722641,0.07302406430244446,9.03069019317627,-0.12597133219242096,-3.958406448364258
1403638128555097000,-0.005715359002351761,0.0231492817401886,0.07643570750951767,8.869369506835938,-0.1566319763660431,-3.9748804569244385
1403638128560097000,-0.0011113360524177551,0.02096346765756607,0.076945960521698,8.990029335021973,-0.10084208101034164,-3.9744229316711426
1403638128565097000,0.0005404725670814514,0.02434985339641571,0.07770634442567825,8.86785888671875,-0.15539054572582245,-3.910815715789795
1403638128570097000,-0.0035221613943576813,0.019937660545110703,0.08173701167106628,9.004985809326172,-0.09283117949962616,-3.910287857055664
1403638128575097000,-0.0012166313827037811,0.022618085145950317,0.07904308289289474,8.876578330993652,-0.06888121366500854,-3.894900321960449
1403638128580097000,-0.0017957501113414764,0.01852063462138176,0.07969984412193298,8.941950798034668,-0.029631538316607475,-3.910677433013916
1403638128585097000,-0.007589466869831085,0.018510397523641586,0.08027783781290054,8.88544750213623,-0.1249680370092392,-3.9028148651123047
1403638128590097000,-0.0019853413105010986,0.01317768543958664,0.08695308864116669,9.062359809875488,-0.06268385797739029,-3.9336678981781006
1403638128595097000,-0.0021570436656475067,0.020432248711586,0.08772626519203186,8.98798942565918,-0.1654786616563797,-3.9336938858032227
1403638128600097000,0.0011716149747371674,0.024579264223575592,0.08983833342790604,9.045122146606445,-0.12621498107910156,-3.9731643199920654
1403638128605097000,-0.00036440789699554443,0.030745603144168854,0.08254554867744446,8.909270286560059,-0.10168924182653427,-3.902334451675415
1403638128610097000,-0.0016838125884532928,0.02607562392950058,0.07850135862827301,8.959135055541992,-0.030042726546525955,-3.958350896835327
1403638128615097000,-0.003913227468729019,0.02907709777355194,0.07504673302173615,8.878560066223145,0.001977319596335292,-3.982739210128784
1403638128620097000,-0.005933646112680435,0.026298142969608307,0.07969684153795242,8.885997772216797,0.0016699053812772036,-3.974853992462158
1403638128625097000,-0.007847204804420471,0.02307857573032379,0.07575088739395142,8.828934669494629,0.01062073465436697,-3.943791627883911
1403638128630097000,-0.010349124670028687,0.019170355051755905,0.07723874598741531,8.908592224121094,-0.09325551241636276,-3.9672279357910156
1403638128635097000,-0.012943219393491745,0.01968923956155777,0.06646234542131424,8.94742202758789,-0.16467979550361633,-3.935431480407715
1403638128640097000,-0.012438233941793442,0.013110645115375519,0.06627349555492401,8.852023124694824,-0.1250808835029602,-3.8802897930145264
1403638128645097000,-0.01361125148832798,0.009147528558969498,0.06878096610307693,8.884556770324707,-0.1966118961572647,-3.903553009033203
1403638128650097000,-0.013580752536654472,0.004328452050685883,0.07556632906198502,8.981204986572266,-0.21386142075061798,-3.950674533843994
1403638128655097000,-0.00956653617322445,0.01167343556880951,0.08103936910629272,8.978802680969238,-0.2855576276779175,-3.9180634021759033
1403638128660097000,-0.0034584663808345795,0.01330440491437912,0.08920663595199585,8.89058780670166,-0.2691727578639984,-3.870126247406006
1403638128665097000,-0.003430623561143875,0.014847707003355026,0.08793315291404724,8.940162658691406,-0.17365466058254242,-3.8939743041992188
1403638128670097000,-0.005462281405925751,0.008056465536355972,0.09863778948783875,8.964112281799316,-0.20537735521793365,-3.925523519515991
1403638128675097000,-0.007006768137216568,0.009048961102962494,0.09926796704530716,9.116779327392578,-0.15771158039569855,-3.948930025100708
1403638128680097000,-0.010938094928860664,0.006979010999202728,0.10549961775541306,8.956561088562012,-0.1735927015542984,-3.861844062805176
1403638128685097000,-0.011711422353982925,0.0038280338048934937,0.10554271191358566,8.958019256591797,-0.16551195085048676,-3.837939739227295
1403638128690097000,-0.0175491850823164,-0.0041991546750068665,0.11257655173540115,8.88758659362793,-0.20596881210803986,-3.8858261108398438
1403638128695097000,-0.016927778720855713,-0.015099216252565384,0.11530197411775589,8.959820747375488,-0.1906735897064209,-3.8616857528686523
1403638128700097000,-0.012380320578813553,-0.015347132459282875,0.11874199658632278,8.918486595153809,-0.18292851746082306,-3.845545768737793
1403638128705097000,-0.01228630542755127,-0.009337849915027618,0.11952801793813705,9.1195650100708,-0.08912543207406998,-3.9557387828826904
1403638128710097000,-0.006461936980485916,-0.00034078583121299744,0.11357741802930832,9.006361961364746,-0.10437620431184769,-3.9639666080474854
1403638128715097000,-0.004570942372083664,0.005841013044118881,0.10414644330739975,9.185174942016602,-0.008857223205268383,-4.035465717315674
1403638128720097000,-0.002682618796825409,0.014858163893222809,0.09741095453500748,8.954506874084473,0.10345003753900528,-4.045134544372559
1403638128725097000,-0.009040258824825287,0.015959233045578003,0.09470660984516144,8.997543334960938,0.271024227142334,-4.117480754852295
1403638128730097000,-0.013101296499371529,0.01852305978536606,0.09542688727378845,8.83607006072998,0.19263571500778198,-4.095435619354248
1403638128735097000,-0.015162672847509384,0.019068215042352676,0.08533945679664612,8.914813041687012,0.18456919491291046,-4.072052001953125
1403638128740097000,-0.020975032821297646,0.018453508615493774,0.07927499711513519,8.83161449432373,0.11302575469017029,-4.00134801864624
1403638128745097000,-0.02629183791577816,0.007180012762546539,0.06834258884191513,8.863614082336426,0.05732303112745285,-4.001999855041504
1403638128750097000,-0.03019261360168457,0.0036420971155166626,0.06684359163045883,8.765604019165039,-0.09362880885601044,-3.946399211883545
1403638128755097000,-0.031274523586034775,-0.0024405010044574738,0.06994237005710602,8.990489959716797,-0.2141701579093933,-3.944898843765259
1403638128760097000,-0.028623100370168686,0.004416137933731079,0.07406143844127655,8.916268348693848,-0.27801603078842163,-3.904630422592163
1403638128765097000,-0.01928137056529522,0.006796199828386307,0.07547060400247574,8.98811149597168,-0.2865019738674164,-3.9356026649475098
1403638128770097000,-0.008477192372083664,0.02103886753320694,0.08005620539188385,9.075733184814453,-0.2699727416038513,-4.037898063659668
1403638128775097000,0.0008580349385738373,0.03378257900476456,0.07935187965631485,9.003159523010254,-0.21280290186405182,-4.085800647735596
1403638128780097000,0.00805702805519104,0.03928215801715851,0.07730422914028168,8.835515022277832,-0.16364599764347076,-4.134873867034912
1403638128785097000,0.007137682288885117,0.03519153594970703,0.07247022539377213,8.733671188354492,0.05206327140331268,-4.088699817657471
1403638128790097000,-0.003226418048143387,0.027983680367469788,0.06637430191040039,8.74932861328125,0.25204211473464966,-4.089951515197754
1403638128795097000,-0.015471749007701874,0.02443421632051468,0.06894328445196152,8.844698905944824,0.23653602600097656,-4.074207305908203
1403638128800097000,-0.026046190410852432,0.025220170617103577,0.060810334980487823,8.82621955871582,0.08480840176343918,-4.011198997497559
1403638128805097000,-0.03765859827399254,0.008894551545381546,0.058161452412605286,8.80246639251709,-0.07628341764211655,-3.9077343940734863
1403638128810097000,-0.03947733715176582,0.002154819667339325,0.06143598258495331,8.851301193237305,-0.28454944491386414,-3.8822579383850098
1403638128815097000,-0.03051558881998062,-0.00022992119193077087,0.06964839994907379,8.921302795410156,-0.4691143035888672,-3.9522154331207275
1403638128820097000,-0.024140123277902603,0.0033942125737667084,0.07227203994989395,8.992609977722168,-0.4541114568710327,-3.9353930950164795
1403638128825097000,-0.0240352600812912,0.00193033367395401,0.0810808390378952,8.944098472595215,-0.4697876274585724,-3.863156795501709
1403638128830097000,-0.019026517868041992,0.004033073782920837,0.09257884323596954,9.023962020874023,-0.4459051489830017,-3.8223953247070312
1403638128835097000,-0.013574644923210144,0.01330435648560524,0.1148967519402504,9.078838348388672,-0.4864066541194916,-3.9406216144561768
1403638128840097000,-0.008764322847127914,0.019508518278598785,0.12641996145248413,8.983733177185059,-0.4286481440067291,-3.8604331016540527
1403638128845097000,-0.0022534243762493134,0.01580946147441864,0.14169511198997498,8.89037799835205,-0.32492193579673767,-3.9317736625671387
1403638128850097000,0.003698967397212982,0.021511711180210114,0.1464618742465973,8.892263412475586,-0.14102809131145477,-3.890989303588867
1403638128855097000,0.014239408075809479,0.010549627244472504,0.1446833312511444,8.795928955078125,-0.08436848223209381,-3.9549827575683594
1403638128860097000,0.014645576477050781,0.013167113065719604,0.11767114698886871,9.230299949645996,0.10444074869155884,-4.161472797393799
1403638128865097000,0.008229803293943405,0.015986334532499313,0.10003397613763809,8.869982719421387,0.3124789893627167,-4.077544212341309
1403638128870097000,0.003604162484407425,0.017417557537555695,0.08362916857004166,8.978090286254883,0.4801696538925171,-4.174246788024902
1403638128875097000,0.0003170296549797058,0.025458261370658875,0.07265682518482208,8.955802917480469,0.4571753442287445,-4.175581932067871
1403638128880097000,-0.0027823448181152344,0.025855615735054016,0.04839678481221199,8.92973518371582,0.43363523483276367,-4.121928691864014
1403638128885097000,-0.01593402400612831,0.02386067807674408,0.028361696749925613,8.90479850769043,0.36878180503845215,-4.163673400878906
1403638128890097000,-0.022703325375914574,0.03098490834236145,0.015887610614299774,8.959089279174805,0.28858447074890137,-4.059850215911865
1403638128895097000,-0.027760636061429977,0.028479844331741333,0.010875053703784943,8.86680793762207,0.0177509356290102,-4.036305904388428
1403638128900097000,-0.02552734687924385,0.03356532007455826,0.010668948292732239,8.939494132995605,-0.09419882297515869,-3.9718198776245117
1403638128905097000,-0.014577187597751617,0.030257195234298706,0.02005905658006668,8.784971237182617,-0.22065679728984833,-3.843590021133423
1403638128910097000,-0.003919605165719986,0.021116137504577637,0.02739691361784935,9.04142951965332,-0.2762913703918457,-3.8098299503326416
1403638128915097000,-0.005038086324930191,0.020223964005708694,0.025159385055303574,8.985201835632324,-0.23498794436454773,-3.801352024078369
1403638128920097000,-0.008897773921489716,0.024154402315616608,0.02542867138981819,9.209126472473145,-0.20956888794898987,-3.863037109375
1403638128925097000,-0.013821277767419815,0.03724853694438934,0.038664184510707855,9.081395149230957,-0.3114120364189148,-3.9184937477111816
1403638128930097000,-0.00792429968714714,0.03966672718524933,0.05270916223526001,8.890595436096191,-0.3669504225254059,-3.894270658493042
1403638128935097000,-0.002443253993988037,0.043685562908649445,0.06834328919649124,8.780097961425781,-0.3590436279773712,-3.9656755924224854
1403638128940097000,0.0018545463681221008,0.042069412767887115,0.07812695950269699,8.763766288757324,-0.3355128765106201,-4.029476165771484
1403638128945097000,0.011676039546728134,0.0399751141667366,0.08051112294197083,8.799577713012695,-0.321658730506897,-4.1733503341674805
1403638128950097000,0.010442130267620087,0.040755465626716614,0.0824393704533577,8.846750259399414,-0.2760584056377411,-4.189789295196533
1403638128955097000,0.0081341452896595,0.04151886701583862,0.07962197810411453,8.66297435760498,-0.17993046343326569,-4.055451393127441
1403638128960097000,0.009155351668596268,0.025111570954322815,0.08848460763692856,8.746236801147461,-0.0859643816947937,-4.015964508056641
1403638128965097000,0.008898697793483734,0.01811584085226059,0.08739126473665237,8.868151664733887,-0.030933791771531105,-4.0479841232299805
1403638128970097000,-0.0007659830152988434,0.006958730518817902,0.08967315405607224,9.012340545654297,0.016786471009254456,-3.9759576320648193
1403638128975097000,-0.007882140576839447,0.013650059700012207,0.08086873590946198,9.109020233154297,0.12835371494293213,-3.9043169021606445
1403638128980097000,-0.012479899451136589,0.013296227902173996,0.07614589482545853,9.03679084777832,0.0569118969142437,-3.824552059173584
1403638128985097000,-0.01507117785513401,0.01223420724272728,0.06732626259326935,9.094505310058594,0.024635128676891327,-3.85617733001709
1403638128990097000,-0.01965991221368313,0.018727872520685196,0.06391093134880066,9.054289817810059,-0.10328713804483414,-3.8325064182281494
1403638128995097000,-0.014426171779632568,0.025190390646457672,0.05912354588508606,9.028576850891113,-0.11830712109804153,-3.792083263397217
1403638129000097000,-0.008116904646158218,0.026180356740951538,0.07122986763715744,8.625433921813965,-0.20391535758972168,-3.616891622543335
1403638129005097000,0.0014751218259334564,0.0029325485229492188,0.08471903949975967,8.5529146194458,-0.19619370996952057,-3.496757745742798
1403638129010097000,0.009707774966955185,-0.006025172770023346,0.09496960788965225,8.968018531799316,-0.3174271285533905,-3.7167911529541016
1403638129015097000,0.01532508060336113,0.01753677800297737,0.08883552253246307,9.77083683013916,-0.1994604617357254,-4.076695919036865
1403638129020097000,0.01163255050778389,0.04830728471279144,0.07682497799396515,9.779211044311523,-0.1046307384967804,-4.266668796539307
1403638129025097000,0.0039803944528102875,0.0794367864727974,0.05576973035931587,9.651285171508789,-0.14899954199790955,-4.2218122482299805
1403638129030097000,0.003938440233469009,0.07249151170253754,0.036670442670583725,8.950596809387207,-0.23235949873924255,-3.9575793743133545
1403638129035097000,0.008672211319208145,0.043439798057079315,0.011054940521717072,9.012117385864258,-0.13740645349025726,-4.047477722167969
1403638129040097000,0.005572732537984848,0.03860000520944595,-0.010349936783313751,9.15026569366455,-0.05906189978122711,-4.32637357711792
1403638129045097000,-0.0027080588042736053,0.0332498699426651,-0.03635525703430176,9.246115684509277,0.14835548400878906,-4.317986488342285
1403638129050097000,-0.01955116167664528,0.03332780301570892,-0.0476691797375679,9.153473854064941,0.13288645446300507,-4.184393405914307
1403638129055097000,-0.030384428799152374,0.02567092329263687,-0.05831081420183182,9.100919723510742,0.0384056530892849,-4.001989364624023
1403638129060097000,-0.040815360844135284,0.017130501568317413,-0.06584324687719345,9.08857250213623,-0.16225406527519226,-4.002234935760498
1403638129065097000,-0.0429852195084095,0.013167783617973328,-0.07931768149137497,9.265884399414062,-0.3936518430709839,-4.056550979614258
1403638129070097000,-0.04091852530837059,0.015587985515594482,-0.08964338153600693,9.006868362426758,-0.384725958108902,-3.962052583694458
1403638129075097000,-0.0407678596675396,0.008152730762958527,-0.08084311336278915,9.10343074798584,-0.3140111267566681,-3.978023052215576
1403638129080097000,-0.045014169067144394,0.010296210646629333,-0.07044152170419693,8.909170150756836,-0.28969627618789673,-4.01101016998291
1403638129085097000,-0.047442786395549774,-0.00047173723578453064,-0.060489438474178314,8.965227127075195,-0.24314062297344208,-4.059284687042236
1403638129090097000,-0.046986378729343414,0.006116516888141632,-0.05238477140665054,9.028168678283691,-0.25907787680625916,-4.163152694702148
1403638129095097000,-0.04165884479880333,0.011312782764434814,-0.04030849039554596,9.026652336120605,-0.3053244352340698,-4.163090229034424
1403638129100097000,-0.02987389639019966,0.019607510417699814,-0.038567714393138885,9.018465995788574,-0.22490938007831573,-4.1472249031066895
1403638129105097000,-0.027305617928504944,0.02915019541978836,-0.031569212675094604,9.022159576416016,-0.018566593527793884,-4.115782260894775
1403638129110097000,-0.03051621839404106,0.028910323977470398,-0.029035605490207672,9.023696899414062,0.2600267231464386,-4.116222858428955
1403638129115097000,-0.04042718559503555,0.03340066224336624,-0.01016329973936081,9.139001846313477,0.3536940813064575,-4.171502590179443
1403638129120097000,-0.05018628388643265,0.04912345111370087,0.0019482895731925964,9.146472930908203,0.38390570878982544,-4.187496185302734
1403638129125097000,-0.05692894011735916,0.054886288940906525,0.019574254751205444,9.16264533996582,0.3193107545375824,-4.027989387512207
1403638129130097000,-0.05692989379167557,0.06460437178611755,0.021113373339176178,9.17141342163086,0.3749857246875763,-3.9562230110168457
1403638129135097000,-0.06125720590353012,0.061707042157649994,0.02144768089056015,9.155874252319336,0.3907572627067566,-3.93982195854187
1403638129140097000,-0.0647914856672287,0.07027631998062134,0.008840702474117279,9.349268913269043,0.485749751329422,-4.018377780914307
1403638129145097000,-0.06907369941473007,0.081819549202919,0.005543015897274017,9.30800724029541,0.37990516424179077,-4.010852336883545
1403638129150097000,-0.06436944007873535,0.09314358234405518,0.000998176634311676,9.403499603271484,0.13950678706169128,-4.033463954925537
1403638129155097000,-0.055310752242803574,0.10560370981693268,0.008630014955997467,9.363273620605469,-0.12297326326370239,-4.000711917877197
1403638129160097000,-0.033716071397066116,0.11440673470497131,0.028937261551618576,9.139883041381836,-0.15326087176799774,-3.936807870864868
1403638129165097000,-0.011696591973304749,0.11540257930755615,0.06087116897106171,9.012104988098145,-0.23900075256824493,-3.9353508949279785
1403638129170097000,0.005338173359632492,0.10841448605060577,0.09208433330059052,9.139368057250977,-0.1683066189289093,-3.9652328491210938
1403638129175097000,0.020416874438524246,0.10846582055091858,0.12460575252771378,8.920923233032227,-0.01816529966890812,-3.931670665740967
1403638129180097000,0.03399199619889259,0.1011321097612381,0.17208001017570496,9.238431930541992,-0.043967001140117645,-4.021664619445801
1403638129185097000,0.05573148652911186,0.12098300457000732,0.20602869987487793,9.298605918884277,-0.2262970358133316,-4.039994716644287
1403638129190097000,0.08083407580852509,0.13176879286766052,0.2360820472240448,9.442079544067383,-0.12514479458332062,-4.107380390167236
1403638129195097000,0.1043291985988617,0.15122757852077484,0.26338592171669006,9.310918807983398,0.0498238280415535,-4.058339595794678
1403638129200097000,0.11756759881973267,0.1669493019580841,0.28882575035095215,9.44923210144043,0.3668195903301239,-4.051656246185303
1403638129205097000,0.12381495535373688,0.18462808430194855,0.3155933618545532,9.512414932250977,0.5398223996162415,-4.106260776519775
1403638129210097000,0.12740761041641235,0.20592138171195984,0.3485353887081146,9.647867202758789,0.5950087308883667,-4.129040718078613
1403638129215097000,0.12844815850257874,0.22942522168159485,0.3730272054672241,9.455531120300293,0.5323930382728577,-4.026388168334961
1403638129220097000,0.1264582872390747,0.2368505299091339,0.4031211733818054,9.54755687713623,0.5229465365409851,-3.9646878242492676
1403638129225097000,0.1269981563091278,0.2526416778564453,0.4357108473777771,9.524083137512207,0.5394272208213806,-4.016982555389404
1403638129230097000,0.1256203055381775,0.2603066563606262,0.46825966238975525,9.644180297851562,0.4440441131591797,-4.113700866699219
1403638129235097000,0.12533238530158997,0.28142690658569336,0.5039042830467224,9.637568473815918,0.3160760998725891,-4.109984874725342
1403638129240097000,0.12816530466079712,0.3033463954925537,0.5387138724327087,9.646512985229492,0.1645839959383011,-4.12089729309082
1403638129245097000,0.13717173039913177,0.3226620852947235,0.5701306462287903,9.672636985778809,-0.040159232914447784,-4.10842227935791
1403638129250097000,0.14441567659378052,0.3341396450996399,0.6008103489875793,9.760306358337402,-0.15018415451049805,-4.1897053718566895
1403638129255097000,0.15308380126953125,0.36112016439437866,0.6308125853538513,9.75503158569336,-0.037772055715322495,-4.2623372077941895
1403638129260097000,0.15986017882823944,0.3805547058582306,0.6667378544807434,9.826951026916504,-0.021104473620653152,-4.2578206062316895
1403638129265097000,0.1612263321876526,0.40786874294281006,0.6876175403594971,9.89769172668457,-0.018866322934627533,-4.2688679695129395
1403638129270097000,0.1581946164369583,0.42776867747306824,0.708564281463623,9.767093658447266,-0.049368903040885925,-4.217922210693359
1403638129275097000,0.15615983307361603,0.45193982124328613,0.7294694185256958,9.831470489501953,-0.02363293431699276,-4.193121910095215
1403638129280097000,0.15544143319129944,0.472209632396698,0.7469611763954163,9.750625610351562,-0.06072848290205002,-4.113546371459961
1403638129285097000,0.15225160121917725,0.48890775442123413,0.7629310488700867,9.72204875946045,0.01264199148863554,-4.1256842613220215
1403638129290097000,0.1470416784286499,0.5088241100311279,0.7814769744873047,9.629975318908691,0.023671157658100128,-4.076604843139648
1403638129295097000,0.1404295712709427,0.534321129322052,0.7881938219070435,9.490409851074219,0.05909917503595352,-3.9901490211486816
1403638129300097000,0.13057973980903625,0.5376745462417603,0.7952754497528076,9.271222114562988,0.02125547081232071,-3.8673081398010254
1403638129305097000,0.1213696300983429,0.5396953225135803,0.7955465316772461,9.290127754211426,0.06268665194511414,-3.8058128356933594
1403638129310097000,0.11228783428668976,0.5378828644752502,0.8028523921966553,9.014524459838867,-0.17020204663276672,-3.715118408203125
1403638129315097000,0.10696479678153992,0.5351422429084778,0.8106337785720825,9.083264350891113,-0.30372342467308044,-3.7104134559631348
1403638129320097000,0.10540738701820374,0.5365174412727356,0.8251955509185791,8.779624938964844,-0.5230194926261902,-3.6004157066345215
1403638129325097000,0.1109749972820282,0.5263498425483704,0.8342090845108032,8.74111270904541,-0.7354968190193176,-3.565643072128296
1403638129330097000,0.11728233098983765,0.5169429779052734,0.8407427072525024,8.497530937194824,-0.9723799228668213,-3.471270799636841
1403638129335097000,0.12275439500808716,0.49854928255081177,0.8386681079864502,8.588582038879395,-1.109160304069519,-3.475445508956909
1403638129340097000,0.12880723178386688,0.4842674136161804,0.8374898433685303,8.598429679870605,-1.2855396270751953,-3.4128386974334717
1403638129345097000,0.13278579711914062,0.46196800470352173,0.8325995206832886,8.967964172363281,-1.3777328729629517,-3.477703094482422
1403638129350097000,0.14236384630203247,0.4490710496902466,0.8300539255142212,8.917353630065918,-1.4693551063537598,-3.348653793334961
1403638129355097000,0.14836935698986053,0.43591612577438354,0.8259297609329224,9.012758255004883,-1.3602181673049927,-3.339306354522705
1403638129360097000,0.15049143135547638,0.42326924204826355,0.8209159970283508,8.804200172424316,-1.3050506114959717,-3.2384262084960938
1403638129365097000,0.14807818830013275,0.3925236761569977,0.8094565868377686,8.845494270324707,-1.1972999572753906,-3.187791109085083
1403638129370097000,0.1409199833869934,0.3668759763240814,0.7807023525238037,8.778875350952148,-1.0945541858673096,-3.173417091369629
1403638129375097000,0.13370604813098907,0.33549147844314575,0.746024489402771,8.859772682189941,-0.9226322174072266,-3.152376890182495
1403638129380097000,0.11716443300247192,0.30767130851745605,0.7007211446762085,8.749364852905273,-0.8570885062217712,-3.2223644256591797
1403638129385097000,0.10209812223911285,0.2731418311595917,0.6553491353988647,8.612127304077148,-0.792992115020752,-3.104572057723999
1403638129390097000,0.090317502617836,0.2356146275997162,0.6103777289390564,8.560884475708008,-0.8013439774513245,-3.040008544921875
1403638129395097000,0.07559941709041595,0.1924356073141098,0.5588111281394958,8.491226196289062,-0.9442281723022461,-3.0287842750549316
1403638129400097000,0.05569031462073326,0.1340300440788269,0.511991560459137,8.512349128723145,-1.0192792415618896,-2.9817869663238525
1403638129405097000,0.04270977899432182,0.09305766224861145,0.4675343632698059,8.516130447387695,-1.1255762577056885,-2.9046425819396973
1403638129410097000,0.02876315638422966,0.05234253406524658,0.42038995027542114,8.519013404846191,-1.2799999713897705,-2.9363596439361572
1403638129415097000,0.016700822860002518,0.007026053965091705,0.37315091490745544,8.514418601989746,-1.4370301961898804,-2.962003231048584
1403638129420097000,0.00824420154094696,-0.030799344182014465,0.32772842049598694,8.486055374145508,-1.570295810699463,-2.9480836391448975
1403638129425097000,0.012519143521785736,-0.07260490208864212,0.29452958703041077,8.566152572631836,-1.817756175994873,-2.9752471446990967
1403638129430097000,0.012848086655139923,-0.10899710655212402,0.2403937578201294,8.586071968078613,-1.886950969696045,-2.8873074054718018
1403638129435097000,0.01181863620877266,-0.1453894078731537,0.1922459453344345,8.605419158935547,-1.8412376642227173,-2.9666669368743896
1403638129440097000,0.01096532866358757,-0.17170725762844086,0.14825767278671265,8.68478775024414,-1.7864866256713867,-2.8777334690093994
1403638129445097000,0.012647893279790878,-0.2033451944589615,0.09770195931196213,8.573720932006836,-1.8614612817764282,-2.885181188583374
1403638129450097000,0.015798252075910568,-0.24184848368167877,0.040066786110401154,8.694833755493164,-1.7291569709777832,-2.909358501434326
1403638129455097000,0.01601260155439377,-0.27750033140182495,0.004584714770317078,8.623565673828125,-1.6454885005950928,-2.902709484100342
1403638129460097000,0.007859129458665848,-0.3039417564868927,-0.046705134212970734,8.856689453125,-1.5099350214004517,-3.0502092838287354
1403638129465097000,0.00022960826754570007,-0.3237757980823517,-0.09029089659452438,8.887843132019043,-1.5121147632598877,-3.062448263168335
1403638129470097000,-0.006046269088983536,-0.35228094458580017,-0.1378357708454132,8.909067153930664,-1.5610986948013306,-3.1260361671447754
1403638129475097000,-0.00877780094742775,-0.3798152208328247,-0.17947304248809814,8.783447265625,-1.5554444789886475,-3.1658923625946045
1403638129480097000,-0.017199132591485977,-0.4067603349685669,-0.21884232759475708,8.805349349975586,-1.4705020189285278,-3.2618579864501953
1403638129485097000,-0.023668136447668076,-0.4322088360786438,-0.24636876583099365,8.628209114074707,-1.4694057703018188,-3.3178765773773193
1403638129490097000,-0.023131098598241806,-0.4525017738342285,-0.27339693903923035,8.869372367858887,-1.4469964504241943,-3.427541732788086
1403638129495097000,-0.025661509484052658,-0.4688676595687866,-0.3037131428718567,8.843780517578125,-1.53280508518219,-3.4432971477508545
1403638129500097000,-0.029528740793466568,-0.474661648273468,-0.3352541923522949,8.955820083618164,-1.4380249977111816,-3.5419070720672607
1403638129505097000,-0.030019663134302467,-0.47822021504644624,-0.3839724354387525,8.9240515,-1.4873419166666666,-3.4404997083333333
1403638129510097000,-0.032812189937493394,-0.4810127418496372,-0.4118977034706618,9.128356708333332,-1.4137920416666665,-3.4813607499999994
1403638129515097000,-0.032114058236695664,-0.4719370297392667,-0.43353978619539146,9.259112041666667,-1.4383086666666667,-3.563082833333333
1403638129520097000,-0.030019663134302467,-0.46705010783368256,-0.4509930787153347,9.504278291666665,-1.4056198333333334,-3.6202882916666663
1403638129525097000,-0.031415926535897934,-0.45308747381772796,-0.46844637123527805,9.46341725,-1.5036863333333332,-3.5957716666666664
1403638129530097000,-0.029758084565401077,-0.44275593757629395,-0.4762847423553467,9.447922706604004,-1.4445405006408691,-3.709662437438965
1403638129535097000,-0.022678349167108536,-0.43713080883026123,-0.4917735457420349,9.384812355041504,-1.3781602382659912,-3.7223682403564453
1403638129540097000,-0.018870163708925247,-0.4309367537498474,-0.5038293600082397,9.485337257385254,-1.2723360061645508,-3.760983943939209
1403638129545097000,-0.018785882741212845,-0.423200786113739,-0.5167456269264221,9.5200834274292,-1.0961062908172607,-3.805281400680542
1403638129550097000,-0.02089766040444374,-0.4151235520839691,-0.5185126066207886,9.508565902709961,-0.8796309232711792,-3.840580701828003
1403638129555097000,-0.0237564779818058,-0.40242159366607666,-0.5321000218391418,9.510809898376465,-0.7649548053741455,-3.85400652885437
1403638129560097000,-0.03058570995926857,-0.39189931750297546,-0.5340414643287659,9.581460952758789,-0.5652026534080505,-3.906158685684204
1403638129565097000,-0.04099481180310249,-0.3714011311531067,-0.5400518774986267,9.518316268920898,-0.4343152344226837,-3.9410958290100098
1403638129570097000,-0.04738746955990791,-0.3545008599758148,-0.5407881736755371,9.41542911529541,-0.35155755281448364,-3.9375388622283936
1403638129575097000,-0.05948907509446144,-0.3349263370037079,-0.5537970066070557,9.427592277526855,-0.3563767373561859,-3.9978296756744385
1403638129580097000,-0.07122215628623962,-0.31970489025115967,-0.5545247197151184,9.287043571472168,-0.33029335737228394,-4.016860008239746
1403638129585097000,-0.07618506252765656,-0.3070782423019409,-0.5516203045845032,9.308446884155273,-0.39143243432044983,-4.03956937789917
1403638129590097000,-0.07863885164260864,-0.29243040084838867,-0.5402237176895142,9.215462684631348,-0.5781700015068054,-4.038379669189453
1403638129595097000,-0.07859188318252563,-0.2760683298110962,-0.5290796756744385,9.248026847839355,-0.6080557107925415,-4.0142130851745605
1403638129600097000,-0.07793942093849182,-0.26901453733444214,-0.5065224170684814,9.201362609863281,-0.6610834002494812,-3.997572183609009
1403638129605097000,-0.07365791499614716,-0.25230672955513,-0.48467856645584106,9.452747344970703,-0.6960273385047913,-4.068559169769287
1403638129610097000,-0.06830786168575287,-0.2346634566783905,-0.4534083604812622,9.502907752990723,-0.684725821018219,-4.097105979919434
1403638129615097000,-0.06377743184566498,-0.19760407507419586,-0.4331587553024292,9.70361614227295,-0.5845502614974976,-4.195145130157471
1403638129620097000,-0.05340880528092384,-0.16561737656593323,-0.40296053886413574,9.539624214172363,-0.6126683950424194,-4.137983798980713
1403638129625097000,-0.046173568814992905,-0.14106813073158264,-0.3886330723762512,9.630890846252441,-0.4844277799129486,-4.175577640533447
1403638129630097000,-0.04387453570961952,-0.11462000012397766,-0.3622067868709564,9.451375007629395,-0.27898722887039185,-4.141961574554443
1403638129635097000,-0.04697639122605324,-0.08950936794281006,-0.3359435796737671,9.501107215881348,-0.07275693863630295,-4.203655242919922
1403638129640097000,-0.05468769744038582,-0.06273016333580017,-0.31191790103912354,9.419347763061523,0.021495509892702103,-4.258579254150391
1403638129645097000,-0.060476984828710556,-0.03169180825352669,-0.2874544858932495,9.49328899383545,0.11287862807512283,-4.205026626586914
1403638129650097000,-0.06556399166584015,-0.0015181303024291992,-0.2607261538505554,9.27047061920166,0.11826181411743164,-4.144719123840332
1403638129655097000,-0.06945489346981049,0.01552877202630043,-0.23331624269485474,9.314745903015137,0.06062684580683708,-4.146366596221924
1403638129660097000,-0.07235900312662125,0.035331979393959045,-0.20393788814544678,9.188468933105469,0.07427556067705154,-4.132662296295166
1403638129665097000,-0.07765298336744308,0.05315229296684265,-0.17169037461280823,9.254486083984375,-0.006240705959498882,-4.157733917236328
1403638129670097000,-0.07524922490119934,0.08003702759742737,-0.1411198377609253,9.110724449157715,-0.19676241278648376,-4.096350193023682
1403638129675097000,-0.06852377951145172,0.09592108428478241,-0.1120598241686821,9.206443786621094,-0.2856919765472412,-4.14370059967041
1403638129680097000,-0.058970507234334946,0.11953800916671753,-0.07764220982789993,9.158148765563965,-0.349507212638855,-4.136229038238525
1403638129685097000,-0.04755135253071785,0.13631096482276917,-0.03998950868844986,9.2310791015625,-0.36578693985939026,-4.120755672454834
1403638129690097000,-0.04054994508624077,0.153664231300354,-0.012143336236476898,9.206120491027832,-0.46027055382728577,-4.104272842407227
1403638129695097000,-0.028000593185424805,0.16516664624214172,0.01885896921157837,9.32519245147705,-0.47653624415397644,-4.0951361656188965
1403638129700097000,-0.019285041838884354,0.18512062728405,0.03979417681694031,9.388049125671387,-0.4843260645866394,-4.014828205108643
1403638129705097000,-0.013079926371574402,0.1900586187839508,0.061313729733228683,9.40461254119873,-0.46921753883361816,-3.9822213649749756
1403638129710097000,-0.004115071147680283,0.20683041214942932,0.0791587308049202,9.359286308288574,-0.32769304513931274,-3.9810969829559326
1403638129715097000,0.0015870071947574615,0.21191316843032837,0.10147397965192795,9.28156566619873,-0.31202226877212524,-3.9559524059295654
1403638129720097000,0.005940288305282593,0.2190207540988922,0.12120761722326279,9.170958518981934,-0.35214096307754517,-3.969557285308838
1403638129725097000,0.008842013776302338,0.2107056975364685,0.14035950601100922,9.090751647949219,-0.4257012903690338,-3.9830739498138428
1403638129730097000,0.01633407548069954,0.2015523910522461,0.15278273820877075,9.057910919189453,-0.3406016230583191,-3.943511486053467
1403638129735097000,0.02291956916451454,0.1823258399963379,0.1653136909008026,8.99220085144043,-0.39716339111328125,-3.95035457611084
1403638129740097000,0.025999512523412704,0.16515503823757172,0.1675771176815033,9.070242881774902,-0.38297387957572937,-3.9663920402526855
1403638129745097000,0.02851448580622673,0.1406734138727188,0.17521202564239502,9.029241561889648,-0.4872502088546753,-3.9265565872192383
1403638129750097000,0.03474381938576698,0.12404526770114899,0.16927441954612732,9.140124320983887,-0.49644002318382263,-3.935072422027588
1403638129755097000,0.03723705932497978,0.0973949283361435,0.1619565188884735,9.132282257080078,-0.5287574529647827,-3.904221773147583
1403638129760097000,0.038817476481199265,0.07006554305553436,0.1508466601371765,9.322636604309082,-0.5514059066772461,-3.8736202716827393
1403638129765097000,0.04431977495551109,0.04363787919282913,0.1465490758419037,9.321769714355469,-0.6141532063484192,-3.8898773193359375
1403638129770097000,0.04593000188469887,0.020624801516532898,0.13928958773612976,9.593368530273438,-0.5907454490661621,-3.921839475631714
1403638129775097000,0.04156940057873726,-0.002944953739643097,0.12622669339179993,9.491966247558594,-0.6384001970291138,-3.8677098751068115
1403638129780097000,0.041337836533784866,-0.02668159082531929,0.11565722525119781,9.56038761138916,-0.5825941562652588,-3.8685171604156494
1403638129785097000,0.037022221833467484,-0.054097894579172134,0.10106243193149567,9.437420845031738,-0.5746116638183594,-3.869765281677246
1403638129790097000,0.036387909203767776,-0.07703331112861633,0.0848626047372818,9.529062271118164,-0.5106070041656494,-3.9417800903320312
1403638129795097000,0.03592098876833916,-0.09537515789270401,0.07211916148662567,9.354990005493164,-0.5347737073898315,-3.991443395614624
1403638129800097000,0.040330883115530014,-0.11742089688777924,0.055931493639945984,9.412420272827148,-0.5672426223754883,-4.0564470291137695
1403638129805097000,0.04349346086382866,-0.1409347653388977,0.029652677476406097,9.301321029663086,-0.6237126588821411,-4.0347723960876465
1403638129810097000,0.04785715416073799,-0.17343546450138092,0.010402575135231018,9.360607147216797,-0.6181582808494568,-4.052547454833984
1403638129815097000,0.04565664008259773,-0.19404959678649902,-0.004754707217216492,9.283958435058594,-0.5810734033584595,-4.014223575592041
1403638129820097000,0.050385091453790665,-0.21903906762599945,-0.014038100838661194,9.398282051086426,-0.5753434300422668,-4.039429664611816
1403638129825097000,0.05006716772913933,-0.23633095622062683,-0.017154186964035034,9.43010425567627,-0.6413421034812927,-4.024813652038574
1403638129830097000,0.0476677305996418,-0.25777965784072876,-0.02557847648859024,9.655275344848633,-0.6518075466156006,-4.0814642906188965
1403638129835097000,0.05017432942986488,-0.26265212893486023,-0.034656599164009094,9.727035522460938,-0.6597833037376404,-4.145849227905273
1403638129840097000,0.04841769114136696,-0.26722252368927,-0.04477556794881821,9.839035034179688,-0.7071323394775391,-4.170467376708984
1403638129845097000,0.04577508196234703,-0.25686460733413696,-0.05258423835039139,9.898117065429688,-0.6189696192741394,-4.21737813949585
1403638129850097000,0.051489826291799545,-0.25585445761680603,-0.05504200607538223,9.891268730163574,-0.6342368721961975,-4.218120574951172
1403638129855097000,0.050650108605623245,-0.24772775173187256,-0.06189887970685959,9.813857078552246,-0.5856831669807434,-4.250679969787598
1403638129860097000,0.0539429672062397,-0.24564287066459656,-0.06000380963087082,9.822517395019531,-0.5775034427642822,-4.274816513061523
1403638129865097000,0.05256238952279091,-0.2440960556268692,-0.06020621210336685,9.807955741882324,-0.5131809711456299,-4.306841850280762
1403638129870097000,0.05201480910181999,-0.24374595284461975,-0.05970589071512222,9.848365783691406,-0.480436235666275,-4.338596820831299
1403638129875097000,0.05700196698307991,-0.23335853219032288,-0.06193452328443527,9.968452453613281,-0.3996109962463379,-4.392162322998047
1403638129880097000,0.05054548755288124,-0.22864925861358643,-0.0659768357872963,10.012798309326172,-0.2646469473838806,-4.430740833282471
1403638129885097000,0.044276099652051926,-0.21456465125083923,-0.06801297515630722,10.063896179199219,-0.17584297060966492,-4.485187530517578
1403638129890097000,0.04445295408368111,-0.20062458515167236,-0.06951915472745895,10.079330444335938,-0.22179201245307922,-4.5091352462768555
1403638129895097000,0.038661833852529526,-0.18310663104057312,-0.08094345778226852,10.143196105957031,-0.18097588419914246,-4.507381439208984
1403638129900097000,0.03311404958367348,-0.16550463438034058,-0.08298598974943161,10.070493698120117,-0.21172283589839935,-4.492279529571533
1403638129905097000,0.030617740005254745,-0.14921656250953674,-0.08379078656435013,10.125638961791992,-0.17043088376522064,-4.490352630615234
1403638129910097000,0.026103492826223373,-0.1336289346218109,-0.08711358159780502,10.075630187988281,-0.18530787527561188,-4.522654056549072
1403638129915097000,0.028245236724615097,-0.11269477009773254,-0.08647478371858597,10.121781349182129,-0.12775905430316925,-4.560515880584717
1403638129920097000,0.02427627518773079,-0.09558191895484924,-0.08243352919816971,9.92833137512207,-0.2219952642917633,-4.499836444854736
1403638129925097000,0.027310725301504135,-0.07370436191558838,-0.08105320483446121,10.037566184997559,-0.21252982318401337,-4.497802734375
1403638129930097000,0.026420045644044876,-0.05064777284860611,-0.06907836347818375,9.852825164794922,-0.2435365617275238,-4.428313255310059
1403638129935097000,0.03009328618645668,-0.030684495344758034,-0.044851310551166534,9.91596794128418,-0.18717791140079498,-4.450865268707275
1403638129940097000,0.03248104080557823,-0.0008252859115600586,-0.029149875044822693,9.92781925201416,-0.2415069192647934,-4.394343852996826
1403638129945097000,0.030897606164216995,0.02776515483856201,-0.017527848482131958,10.076953887939453,-0.20897601544857025,-4.335786819458008
1403638129950097000,0.03258086368441582,0.05997210741043091,0.0061554089188575745,10.050074577331543,-0.2806988060474396,-4.28774881362915
1403638129955097000,0.03824469819664955,0.09472775459289551,0.027950074523687363,10.105084419250488,-0.2817886769771576,-4.3414106369018555
1403638129960097000,0.040442343801259995,0.13285082578659058,0.056985583156347275,9.930915832519531,-0.2843236029148102,-4.3255109786987305
1403638129965097000,0.04498884454369545,0.16458216309547424,0.08755829930305481,9.96297836303711,-0.29309359192848206,-4.347037315368652
1403638129970097000,0.051037516444921494,0.19080746173858643,0.11903843283653259,9.764592170715332,-0.2323724627494812,-4.353054523468018
1403638129975097000,0.05789777263998985,0.21016079187393188,0.14496183395385742,9.738454818725586,-0.21803775429725647,-4.421298027038574
1403638129980097000,0.05939982458949089,0.23411226272583008,0.17211243510246277,9.587005615234375,-0.15528595447540283,-4.403124809265137
1403638129985097000,0.06140100583434105,0.24382811784744263,0.19874703884124756,9.56152057647705,-0.05317256227135658,-4.440054893493652
1403638129990097000,0.06494784355163574,0.263956218957901,0.23002290725708008,9.464279174804688,-0.07566563040018082,-4.412755966186523
1403638129995097000,0.06915092468261719,0.27608680725097656,0.25282925367355347,9.52608871459961,-0.011977311223745346,-4.4496541023254395
1403638130000097000,0.0654374361038208,0.2929767370223999,0.2717401087284088,9.572635650634766,0.012401496060192585,-4.401267051696777
1403638130005097000,0.06867112219333649,0.3110976815223694,0.2877333462238312,9.674755096435547,-0.01759110391139984,-4.399214267730713
1403638130010097000,0.06545710563659668,0.3389790654182434,0.2935258448123932,9.746477127075195,-0.015673018991947174,-4.367367267608643
1403638130015097000,0.06747083365917206,0.3618527054786682,0.30001962184906006,9.747876167297363,0.02464914880692959,-4.320492744445801
1403638130020097000,0.06081539765000343,0.3832066059112549,0.29330021142959595,9.71895980834961,0.13557110726833344,-4.245054244995117
1403638130025097000,0.050918255001306534,0.39605236053466797,0.30042946338653564,9.56924057006836,0.07365014404058456,-4.165157318115234
1403638130030097000,0.04460370913147926,0.40489131212234497,0.298808217048645,9.482206344604492,0.07404778897762299,-4.117938041687012
1403638130035097000,0.041318055242300034,0.40560251474380493,0.3071631193161011,9.235010147094727,-0.0903242975473404,-4.051107883453369
1403638130040097000,0.044118743389844894,0.40061885118484497,0.31672152876853943,9.1295166015625,-0.2152794450521469,-4.039820671081543
1403638130045097000,0.044298943132162094,0.3798298239707947,0.32729965448379517,9.023301124572754,-0.32632726430892944,-3.990084648132324
1403638130050097000,0.04894915595650673,0.36614394187927246,0.3257710933685303,9.10727310180664,-0.39686906337738037,-3.98112154006958
1403638130055097000,0.05688976123929024,0.3496374487876892,0.3299248516559601,9.049991607666016,-0.562411904335022,-3.9230854511260986
1403638130060097000,0.0669449120759964,0.34102702140808105,0.3281824290752411,9.23122501373291,-0.5872843861579895,-3.969029188156128
1403638130065097000,0.07769013941287994,0.33608126640319824,0.3269999027252197,9.223587989807129,-0.6819726228713989,-3.912278890609741
1403638130070097000,0.0845329612493515,0.33383625745773315,0.32064518332481384,9.302973747253418,-0.6269146800041199,-3.9362616539001465
1403638130075097000,0.09120556712150574,0.3339223265647888,0.31221094727516174,9.208970069885254,-0.650172770023346,-3.8267838954925537
1403638130080097000,0.09913426637649536,0.3352816700935364,0.2977137565612793,9.271821975708008,-0.6023551225662231,-3.8045079708099365
1403638130085097000,0.10402166843414307,0.3271717131137848,0.28760483860969543,9.095535278320312,-0.6108258366584778,-3.7571516036987305
1403638130090097000,0.109503835439682,0.3162820637226105,0.271068274974823,9.022123336791992,-0.5253471732139587,-3.719921588897705
1403638130095097000,0.10644066333770752,0.30433958768844604,0.2577604353427887,8.8767671585083,-0.5574012994766235,-3.7037627696990967
1403638130100097000,0.11119617521762848,0.27615365386009216,0.24246376752853394,8.91312026977539,-0.5749149918556213,-3.704464912414551
1403638130105097000,0.10887356102466583,0.25219544768333435,0.22448772192001343,8.758583068847656,-0.6397053599357605,-3.689112901687622
1403638130110097000,0.10921569168567657,0.22295302152633667,0.21233606338500977,8.875054359436035,-0.6658498048782349,-3.682581663131714
1403638130115097000,0.10877342522144318,0.19521719217300415,0.20276035368442535,8.792724609375,-0.753943920135498,-3.6274499893188477
1403638130120097000,0.11115491390228271,0.16504544019699097,0.19331488013267517,9.005294799804688,-0.7805055379867554,-3.6760005950927734
1403638130125097000,0.1180495023727417,0.1484891176223755,0.18231630325317383,8.980021476745605,-0.8046552538871765,-3.605090379714966
1403638130130097000,0.11975143849849701,0.12489742040634155,0.16530171036720276,9.075262069702148,-0.7262300848960876,-3.599125385284424
1403638130135097000,0.12057830393314362,0.10717490315437317,0.14614543318748474,9.03604507446289,-0.6468991041183472,-3.6165060997009277
1403638130140097000,0.11856481432914734,0.08784295618534088,0.12746408581733704,9.051980018615723,-0.6381989121437073,-3.601745128631592
1403638130145097000,0.10863421857357025,0.08043621480464935,0.10476680099964142,9.068201065063477,-0.5660380721092224,-3.5954716205596924
1403638130150097000,0.10762080550193787,0.06931240111589432,0.07883483916521072,9.106330871582031,-0.660753071308136,-3.6272852420806885
1403638130155097000,0.11040474474430084,0.05418936908245087,0.062177874147892,9.025138854980469,-0.700173020362854,-3.627655029296875
1403638130160097000,0.1128690093755722,0.03407566249370575,0.04212481901049614,9.06497573852539,-0.7403523325920105,-3.6202893257141113
1403638130165097000,0.11415156722068787,0.023586727678775787,0.014665469527244568,9.160762786865234,-0.7475100159645081,-3.6762778759002686
1403638130170097000,0.11740371584892273,0.014937330037355423,-0.0008190721273422241,9.177607536315918,-0.6842414140701294,-3.7726235389709473
1403638130175097000,0.11747895181179047,0.011346150189638138,-0.015590108931064606,9.180278778076172,-0.6125540733337402,-3.757606029510498
1403638130180097000,0.11477233469486237,0.0009310059249401093,-0.026948414742946625,9.079093933105469,-0.5483104586601257,-3.7351081371307373
1403638130185097000,0.11205194890499115,-0.011034073308110237,-0.0364256277680397,9.170674324035645,-0.4445505738258362,-3.7359678745269775
1403638130190097000,0.10625427961349487,-0.01981681026518345,-0.04418434947729111,9.091028213500977,-0.4361359477043152,-3.712944269180298
1403638130195097000,0.10607826709747314,-0.0189780555665493,-0.05415283888578415,9.235118865966797,-0.4034322202205658,-3.7285447120666504
1403638130200097000,0.10481797158718109,-0.015650713816285133,-0.054757557809352875,9.233370780944824,-0.4829983711242676,-3.71982741355896
1403638130205097000,0.10480780899524689,-0.008248675614595413,-0.057205937802791595,9.314038276672363,-0.4594661295413971,-3.7272956371307373
1403638130210097000,0.10078893601894379,-0.008385695517063141,-0.05075667053461075,9.178629875183105,-0.5159863829612732,-3.719900369644165
1403638130215097000,0.09925448894500732,-0.005364835262298584,-0.04235368221998215,9.316713333129883,-0.5083736777305603,-3.7513155937194824
1403638130220097000,0.10113918781280518,0.008302144706249237,-0.01617565006017685,9.282504081726074,-0.604310929775238,-3.75872802734375
1403638130225097000,0.10582244396209717,0.020536795258522034,0.005977518856525421,9.407931327819824,-0.691840410232544,-3.7893364429473877
1403638130230097000,0.11335064470767975,0.02968982607126236,0.029031988233327866,9.270502090454102,-0.7642949819564819,-3.7647573947906494
1403638130235097000,0.12398138642311096,0.045705437660217285,0.049342766404151917,9.375388145446777,-0.7246102690696716,-3.8194539546966553
1403638130240097000,0.13147680461406708,0.06368065625429153,0.06764117628335953,9.297780990600586,-0.6530888676643372,-3.794926881790161
1403638130245097000,0.13398031890392303,0.07748927921056747,0.08115269988775253,9.50816535949707,-0.4783290922641754,-3.8737070560455322
1403638130250097000,0.1364276260137558,0.10505111515522003,0.10411807894706726,9.422262191772461,-0.36800873279571533,-3.888784408569336
1403638130255097000,0.13845503330230713,0.13351298868656158,0.13065102696418762,9.544010162353516,-0.2736135721206665,-3.91066575050354
1403638130260097000,0.13262802362442017,0.1642073392868042,0.1471998691558838,9.426770210266113,-0.2103528380393982,-3.847156286239624
1403638130265097000,0.1237339973449707,0.1888793706893921,0.16239601373672485,9.485254287719727,-0.036330875009298325,-3.863050699234009
1403638130270097000,0.11221645772457123,0.2091304361820221,0.176906555891037,9.382508277893066,-0.027775514870882034,-3.862168550491333
1403638130275097000,0.09943696856498718,0.2240886688232422,0.1907554566860199,9.39067268371582,-0.0677282065153122,-3.884556293487549
1403638130280097000,0.08867904543876648,0.2336196005344391,0.21318867802619934,9.190797805786133,-0.17899464070796967,-3.8034794330596924
1403638130285097000,0.08072221279144287,0.2381974458694458,0.23195254802703857,9.230077743530273,-0.25854378938674927,-3.7623233795166016
1403638130290097000,0.0781535804271698,0.2453119456768036,0.255442351102829,9.173174858093262,-0.297913134098053,-3.7129061222076416
1403638130295097000,0.0769428163766861,0.25193944573402405,0.2833368182182312,9.219955444335938,-0.3758808672428131,-3.647711992263794
1403638130300097000,0.07633374631404877,0.2592776417732239,0.30324164032936096,9.227703094482422,-0.49248039722442627,-3.5900042057037354
1403638130305097000,0.07428362965583801,0.26258349418640137,0.32789376378059387,9.228620529174805,-0.539566159248352,-3.563824415206909
1403638130310097000,0.07141900062561035,0.27494698762893677,0.35294586420059204,9.190532684326172,-0.6563500761985779,-3.574772834777832
1403638130315097000,0.07773837447166443,0.28940895199775696,0.3775026202201843,9.153182029724121,-0.7489639520645142,-3.555331230163574
1403638130320097000,0.07986371219158173,0.29682284593582153,0.3966718912124634,9.066688537597656,-0.8103525042533875,-3.529595136642456
1403638130325097000,0.09300440549850464,0.29732996225357056,0.4106728434562683,8.948534965515137,-0.8804306387901306,-3.458204746246338
1403638130330097000,0.09973132610321045,0.29270637035369873,0.41209930181503296,8.947816848754883,-0.9199782609939575,-3.4422271251678467
1403638130335097000,0.11099511384963989,0.28689008951187134,0.4165242910385132,9.01919937133789,-1.0164180994033813,-3.4017014503479004
1403638130340097000,0.12341980636119843,0.2852173149585724,0.4149761199951172,9.248010635375977,-0.9460927844047546,-3.4489145278930664
1403638130345097000,0.13166968524456024,0.28823763132095337,0.41750577092170715,9.263026237487793,-0.8588545918464661,-3.5035934448242188
1403638130350097000,0.1339179277420044,0.2913128435611725,0.4122813940048218,9.334489822387695,-0.6766192317008972,-3.561152458190918
1403638130355097000,0.12991121411323547,0.28405705094337463,0.40630823373794556,9.050216674804688,-0.6355809569358826,-3.4843482971191406
1403638130360097000,0.12535181641578674,0.2678753733634949,0.3888867497444153,9.0338716506958,-0.5487480163574219,-3.5251989364624023
1403638130365097000,0.11808504164218903,0.2524663805961609,0.36317163705825806,8.799773216247559,-0.4616871178150177,-3.465100049972534
1403638130370097000,0.11089345812797546,0.22823894023895264,0.338632196187973,8.794268608093262,-0.3840319812297821,-3.475229501724243
1403638130375097000,0.09838518500328064,0.20932990312576294,0.3151644170284271,8.542884826660156,-0.39868688583374023,-3.4130136966705322
1403638130380097000,0.08770392835140228,0.1871538758277893,0.29105234146118164,8.579181671142578,-0.46401771903038025,-3.413637161254883
1403638130385097000,0.08301016688346863,0.15624849498271942,0.2642136514186859,8.424538612365723,-0.7420207262039185,-3.3179805278778076
1403638130390097000,0.07990260422229767,0.12995919585227966,0.2445904016494751,8.563878059387207,-0.9525682330131531,-3.262787342071533
1403638130395097000,0.08182767033576965,0.1101880669593811,0.2255871295928955,8.549735069274902,-1.2980650663375854,-3.134016513824463
1403638130400097000,0.09224992990493774,0.09296244382858276,0.2103332281112671,8.817214012145996,-1.4932199716567993,-3.1095335483551025
1403638130405097000,0.10563905537128448,0.08360721170902252,0.2026258111000061,8.879328727722168,-1.6637731790542603,-3.08390736579895
1403638130410097000,0.12153464555740356,0.07932920753955841,0.19685058295726776,9.048120498657227,-1.7206997871398926,-3.0906171798706055
1403638130415097000,0.13501185178756714,0.08299754559993744,0.192337304353714,9.008478164672852,-1.6232411861419678,-3.065190315246582
1403638130420097000,0.14394743740558624,0.08129396289587021,0.18229611217975616,9.08871841430664,-1.469055414199829,-3.097036838531494
1403638130425097000,0.15268686413764954,0.07660367339849472,0.1726350039243698,8.904560089111328,-1.4020326137542725,-3.151823043823242
1403638130430097000,0.1569269895553589,0.07098248600959778,0.15390028059482574,8.936229705810547,-1.2405672073364258,-3.26464581489563
1403638130435097000,0.1571560800075531,0.06872226297855377,0.1292794793844223,8.806985855102539,-1.1517138481140137,-3.2894413471221924
1403638130440097000,0.16179898381233215,0.05483861267566681,0.09982818365097046,8.759033203125,-0.992081880569458,-3.3957247734069824
1403638130445097000,0.15746772289276123,0.04143145680427551,0.06087051331996918,8.680983543395996,-0.7933600544929504,-3.4634451866149902
1403638130450097000,0.14817999303340912,0.021237961947917938,0.0304400734603405,8.715017318725586,-0.6427615880966187,-3.522951364517212
1403638130455097000,0.1392650455236435,0.00717645138502121,-0.012067899107933044,8.778921127319336,-0.6032756567001343,-3.5571558475494385
1403638130460097000,0.12033925950527191,-0.013282446190714836,-0.04843715578317642,8.787036895751953,-0.6370618343353271,-3.542252540588379
1403638130465097000,0.10762077569961548,-0.029717005789279938,-0.08436623960733414,8.810698509216309,-0.7022938132286072,-3.48673939704895
1403638130470097000,0.09309284389019012,-0.055557385087013245,-0.11427783221006393,8.812562942504883,-0.7126010060310364,-3.400155782699585
1403638130475097000,0.07487909495830536,-0.08148042857646942,-0.14772480726242065,8.943297386169434,-0.6907229423522949,-3.3615500926971436
1403638130480097000,0.04937254264950752,-0.09889870882034302,-0.1703813672065735,9.136033058166504,-0.794639527797699,-3.36151123046875
1403638130485097000,0.035359304398298264,-0.09746421873569489,-0.19690895080566406,9.279279708862305,-0.8736676573753357,-3.329713821411133
1403638130490097000,0.031762633472681046,-0.09147854894399643,-0.22008469700813293,9.34138298034668,-0.9834325909614563,-3.329531669616699
1403638130495097000,0.03364936634898186,-0.07748767733573914,-0.24197542667388916,9.516830444335938,-1.0820753574371338,-3.3611319065093994
1403638130500097000,0.02575787529349327,-0.08004172891378403,-0.2513517141342163,9.067431449890137,-1.107115387916565,-3.296907901763916
1403638130505097000,0.016014929860830307,-0.09157934784889221,-0.25795453786849976,8.791269302368164,-0.8221986889839172,-3.3457906246185303
1403638130510097000,0.007335048168897629,-0.09711164236068726,-0.23234209418296814,8.625147819519043,-0.7019217610359192,-3.4176738262176514
1403638130515097000,0.005171153694391251,-0.09979245066642761,-0.21476680040359497,8.8851957321167,-0.9537139534950256,-3.5516014099121094
1403638130520097000,0.010280285030603409,-0.10704366862773895,-0.21536406874656677,8.721309661865234,-1.281740665435791,-3.493345022201538
1403638130525097000,0.011010978370904922,-0.11435076594352722,-0.23521533608436584,8.557333946228027,-0.8562965393066406,-3.433415412902832
1403638130530097000,0.016646917909383774,-0.12504330277442932,-0.21049439907073975,8.453429222106934,-0.538337230682373,-3.38177752494812
1403638130535097000,0.006049651652574539,-0.12250220775604248,-0.19340389966964722,9.031835556030273,-0.5423395037651062,-3.557622194290161
1403638130540097000,-0.011153917759656906,-0.10756240785121918,-0.1899193823337555,9.04250431060791,-0.7658371329307556,-3.564305543899536
1403638130545097000,-0.007844332605600357,-0.08814612030982971,-0.17015185952186584,9.02038288116455,-0.7287030816078186,-3.4138572216033936
1403638130550097000,0.0022352896630764008,-0.07089170813560486,-0.14292195439338684,8.917665481567383,-0.8012516498565674,-3.2458841800689697
1403638130555097000,-0.0004172772169113159,-0.05787304788827896,-0.13427072763442993,9.3049898147583,-0.670691192150116,-3.3720204830169678
1403638130560097000,-0.007806692272424698,-0.033202920109033585,-0.1243254616856575,9.447999954223633,-0.5076591372489929,-3.4903316497802734
1403638130565097000,-0.018406003713607788,-0.00233566015958786,-0.10091828554868698,9.447776794433594,-0.4981495141983032,-3.4667508602142334
1403638130570097000,-0.02424682304263115,0.023608379065990448,-0.08830250054597855,9.29662799835205,-0.5641221404075623,-3.308398485183716
1403638130575097000,-0.031986650079488754,0.036966413259506226,-0.061889566481113434,9.389165878295898,-0.48577433824539185,-3.4587044715881348
1403638130580097000,-0.03726932778954506,0.06949262320995331,-0.02764921635389328,9.523537635803223,-0.5849318504333496,-3.6320881843566895
1403638130585097000,-0.03607651963829994,0.11037756502628326,-0.0027332082390785217,9.562495231628418,-0.591350793838501,-3.616413116455078
1403638130590097000,-0.034247901290655136,0.14030209183692932,0.012326247990131378,9.3734769821167,-0.4980175495147705,-3.51456618309021
1403638130595097000,-0.034589674323797226,0.16188494861125946,0.028821256011724472,9.250374794006348,-0.3799644708633423,-3.5543265342712402
1403638130600097000,-0.029149457812309265,0.18119356036186218,0.03951720520853996,9.093012809753418,-0.3563559353351593,-3.6407735347747803
1403638130605097000,-0.025099731981754303,0.19546185433864594,0.0458882600069046,9.051849365234375,-0.3959145247936249,-3.616443157196045
1403638130610097000,-0.020491700619459152,0.21213337779045105,0.049006663262844086,8.94604206085205,-0.3706764280796051,-3.529510498046875
1403638130615097000,-0.01665644347667694,0.2117515504360199,0.061553556472063065,8.99249267578125,-0.3318140506744385,-3.576960325241089
1403638130620097000,-0.014112617820501328,0.22645026445388794,0.06779768317937851,9.167234420776367,-0.22257302701473236,-3.6172475814819336
1403638130625097000,-0.011450793594121933,0.23557201027870178,0.08021073043346405,9.127250671386719,-0.1991393268108368,-3.5543596744537354
1403638130630097000,-0.010247442871332169,0.24708741903305054,0.0910973995923996,9.111969947814941,-0.12777236104011536,-3.4678218364715576
1403638130635097000,-0.014651842415332794,0.24816784262657166,0.1167556643486023,8.960012435913086,-0.1820012331008911,-3.3163998126983643
1403638130640097000,-0.018745161592960358,0.2451149821281433,0.13400056958198547,9.101750373840332,-0.22129948437213898,-3.331815242767334
1403638130645097000,-0.019235458225011826,0.24609637260437012,0.15765926241874695,9.153956413269043,-0.37136468291282654,-3.30551815032959
1403638130650097000,-0.020388495177030563,0.2540432810783386,0.17366379499435425,9.373848915100098,-0.4035056531429291,-3.3359107971191406
1403638130655097000,-0.018368035554885864,0.2594977021217346,0.19991254806518555,9.325533866882324,-0.41888225078582764,-3.3100223541259766
1403638130660097000,-0.009690716862678528,0.27344924211502075,0.22768378257751465,9.367050170898438,-0.5203115940093994,-3.329457998275757
1403638130665097000,-0.0038508325815200806,0.2790686786174774,0.2577968239784241,9.147369384765625,-0.7172608375549316,-3.2604055404663086
1403638130670097000,0.009355708956718445,0.2861204743385315,0.28985852003097534,9.151540756225586,-0.7963510155677795,-3.287717342376709
1403638130675097000,0.027439359575510025,0.2927842140197754,0.32404065132141113,8.971424102783203,-0.8356643915176392,-3.251216173171997
1403638130680097000,0.04200286045670509,0.2952403426170349,0.35787147283554077,9.075578689575195,-0.8207226991653442,-3.2495834827423096
1403638130685097000,0.05669869855046272,0.3035823106765747,0.38670358061790466,8.822087287902832,-0.8279675841331482,-3.1693336963653564
1403638130690097000,0.0682181864976883,0.3072187602519989,0.4139382839202881,8.759902954101562,-0.7023600339889526,-3.0637142658233643
1403638130695097000,0.07917752861976624,0.3116551637649536,0.43973326683044434,8.603375434875488,-0.7025604844093323,-2.955073833465576
1403638130700097000,0.08604398369789124,0.3101186454296112,0.4642001986503601,8.762983322143555,-0.7289498448371887,-2.9539225101470947
1403638130705097000,0.09095396101474762,0.3136831521987915,0.4831620454788208,8.705745697021484,-0.8007077574729919,-2.920577049255371
1403638130710097000,0.09852936863899231,0.3206879198551178,0.5009415149688721,8.936365127563477,-0.8279122710227966,-2.950505495071411
1403638130715097000,0.10619881749153137,0.3350953161716461,0.5138565897941589,8.81702709197998,-0.8138906359672546,-2.8585045337677
1403638130720097000,0.10936504602432251,0.32859349250793457,0.5268893241882324,8.762090682983398,-0.8140612244606018,-2.90368390083313
1403638130725097000,0.11350490152835846,0.33141815662384033,0.5369570851325989,8.659070014953613,-0.8689021468162537,-2.8795077800750732
1403638130730097000,0.11911191046237946,0.3149666488170624,0.5487555265426636,8.450082778930664,-0.9948364496231079,-2.8688392639160156
1403638130735097000,0.12886016070842743,0.2960667312145233,0.5592317581176758,8.464255332946777,-1.036714792251587,-2.8524012565612793
1403638130740097000,0.13601630926132202,0.2741382122039795,0.5690077543258667,8.540362358093262,-1.0218021869659424,-2.9738125801086426
1403638130745097000,0.148296058177948,0.2541279196739197,0.5660315155982971,8.418095588684082,-1.0757906436920166,-2.9732308387756348
1403638130750097000,0.15877734124660492,0.23175862431526184,0.5642408132553101,8.412647247314453,-1.0851980447769165,-2.8970885276794434
1403638130755097000,0.1665165275335312,0.21407294273376465,0.5479995012283325,8.397905349731445,-0.9734843969345093,-2.8372280597686768
1403638130760097000,0.16488118469715118,0.19085094332695007,0.5309894680976868,8.556084632873535,-0.8550163507461548,-2.8459270000457764
1403638130765097000,0.16104690730571747,0.18264484405517578,0.5062549710273743,8.777032852172852,-0.7042427659034729,-2.8872158527374268
1403638130770097000,0.1518089324235916,0.17471127212047577,0.48003196716308594,8.782282829284668,-0.7341028451919556,-2.8786323070526123
1403638130775097000,0.14109480381011963,0.17563752830028534,0.44076162576675415,8.74163818359375,-0.8032081127166748,-2.815664052963257
1403638130780097000,0.133042573928833,0.16520138084888458,0.4047579765319824,8.573661804199219,-0.8648169636726379,-2.806128740310669
1403638130785097000,0.1298922598361969,0.15433333814144135,0.3673144578933716,8.657176971435547,-0.8259902000427246,-2.8463387489318848
1403638130790097000,0.12418211996555328,0.13605472445487976,0.3319036066532135,8.525230407714844,-0.9193069934844971,-2.891495943069458
1403638130795097000,0.11626148223876953,0.12309733033180237,0.29031795263290405,8.57446002960205,-0.9124591946601868,-2.924173355102539
1403638130800097000,0.1108061671257019,0.10387146472930908,0.2590048909187317,8.355284690856934,-0.9996168613433838,-2.9149343967437744
1403638130805097000,0.10817594826221466,0.09200674295425415,0.23414230346679688,8.337385177612305,-0.9921274185180664,-2.963059425354004
1403638130810097000,0.10238976776599884,0.07866835594177246,0.21675285696983337,8.057459831237793,-0.9500687122344971,-2.9238178730010986
1403638130815097000,0.10096900165081024,0.06474224478006363,0.19649358093738556,8.064231872558594,-0.81376051902771,-2.9658713340759277
1403638130820097000,0.09440027177333832,0.050866782665252686,0.18052542209625244,7.9086408615112305,-0.8437266945838928,-2.949517011642456
1403638130825097000,0.09215214848518372,0.04022504389286041,0.15885275602340698,8.007760047912598,-0.8220317363739014,-2.9667916297912598
1403638130830097000,0.08987322449684143,0.03920230269432068,0.14464443922042847,7.8430094718933105,-0.9101235866546631,-2.8701860904693604
1403638130835097000,0.09109717607498169,0.03648677468299866,0.13699084520339966,7.8963165283203125,-0.9435411095619202,-2.8146071434020996
1403638130840097000,0.0923568457365036,0.04164790362119675,0.1336536407470703,7.743012428283691,-0.9188037514686584,-2.7505788803100586
1403638130845097000,0.09161080420017242,0.04335997998714447,0.1363094449043274,7.829661846160889,-0.8635460734367371,-2.735295534133911
1403638130850097000,0.09081961214542389,0.05506061762571335,0.1386508345603943,7.7548370361328125,-0.9418153166770935,-2.7410645484924316
1403638130855097000,0.08863130211830139,0.06229346990585327,0.14562156796455383,7.871975421905518,-0.9912991523742676,-2.779574155807495
1403638130860097000,0.09046748280525208,0.07419301569461823,0.14599937200546265,7.757630348205566,-1.070406198501587,-2.7379519939422607
1403638130865097000,0.0970890074968338,0.08002472668886185,0.15027448534965515,7.797828674316406,-0.9812825322151184,-2.778167963027954
1403638130870097000,0.10400143265724182,0.08252602815628052,0.1547863781452179,7.6461896896362305,-0.9547070860862732,-2.738067388534546
1403638130875097000,0.1047709584236145,0.0842534601688385,0.15904951095581055,7.798094749450684,-0.7870401740074158,-2.740427017211914
1403638130880097000,0.09794542193412781,0.0925786942243576,0.15942293405532837,7.8531413078308105,-0.6109893321990967,-2.8056912422180176
1403638130885097000,0.0816110223531723,0.10530662536621094,0.1557878851890564,7.987534046173096,-0.4603303372859955,-2.8233485221862793
1403638130890097000,0.059168484061956406,0.12223315238952637,0.15021973848342896,8.035426139831543,-0.42797425389289856,-2.7767598628997803
1403638130895097000,0.035364944487810135,0.14242303371429443,0.1532813310623169,8.045355796813965,-0.3954237103462219,-2.75317645072937
1403638130900097000,0.01037852093577385,0.17051905393600464,0.14911961555480957,8.111250877380371,-0.40333372354507446,-2.7453577518463135
1403638130905097000,-0.013280436396598816,0.19282223284244537,0.14513260126113892,8.104137420654297,-0.4908248484134674,-2.6812944412231445
1403638130910097000,-0.04037880152463913,0.22786059975624084,0.13854442536830902,8.136185646057129,-0.6260054111480713,-2.7032434940338135
1403638130915097000,-0.05640099197626114,0.2529744505882263,0.13719134032726288,8.182143211364746,-0.7697385549545288,-2.6534335613250732
1403638130920097000,-0.0669180303812027,0.2881355583667755,0.13640213012695312,8.126890182495117,-0.8005800843238831,-2.6595041751861572
1403638130925097000,-0.07246929407119751,0.3144347071647644,0.14238008856773376,7.9289445877075195,-0.8062417507171631,-2.5635063648223877
1403638130930097000,-0.07756909728050232,0.3401973843574524,0.14312773942947388,7.89969539642334,-0.7483412623405457,-2.508439779281616
1403638130935097000,-0.08899855613708496,0.35458266735076904,0.14672785997390747,7.669708251953125,-0.807685136795044,-2.467886209487915
1403638130940097000,-0.10298915207386017,0.37100639939308167,0.14272646605968475,7.710790157318115,-0.7742899060249329,-2.5150058269500732
1403638130945097000,-0.10589990019798279,0.3919547200202942,0.14605769515037537,7.5878448486328125,-0.8361262679100037,-2.3802618980407715
1403638130950097000,-0.11091670393943787,0.4054863452911377,0.14312154054641724,7.688862323760986,-0.7728024125099182,-2.3717193603515625
1403638130955097000,-0.1125827431678772,0.4213726222515106,0.14705002307891846,7.560290813446045,-0.7406001091003418,-2.275909662246704
1403638130960097000,-0.1210760772228241,0.4378427267074585,0.14507675170898438,7.577345371246338,-0.7009978890419006,-2.2595438957214355
1403638130965097000,-0.1267096847295761,0.4477770924568176,0.15790468454360962,7.409329414367676,-0.796384334564209,-2.156151533126831
1403638130970097000,-0.1313595175743103,0.45225656032562256,0.15290400385856628,7.517074108123779,-0.9646303057670593,-2.1319499015808105
1403638130975097000,-0.12826357781887054,0.45110422372817993,0.15604883432388306,7.436794281005859,-1.2221546173095703,-2.074571371078491
1403638130980097000,-0.12115520238876343,0.4471607208251953,0.15993428230285645,7.556619167327881,-1.3135260343551636,-2.0327346324920654
1403638130985097000,-0.11770503222942352,0.4425293803215027,0.1668880581855774,7.423196792602539,-1.3890283107757568,-1.929120421409607
1403638130990097000,-0.11148287355899811,0.4319387376308441,0.17142906785011292,7.546432018280029,-1.423509955406189,-1.8871560096740723
1403638130995097000,-0.10187675058841705,0.42398035526275635,0.17762386798858643,7.52393913269043,-1.5410008430480957,-1.7892950773239136
1403638131000097000,-0.092668816447258,0.4161783456802368,0.1861860752105713,7.648804664611816,-1.5361645221710205,-1.7615149021148682
1403638131005097000,-0.084120973944664,0.4158501923084259,0.19549769163131714,7.60648250579834,-1.5474224090576172,-1.679473638534546
1403638131010097000,-0.07871706783771515,0.40652117133140564,0.1960693597793579,7.649224758148193,-1.4418938159942627,-1.7091197967529297
1403638131015097000,-0.07523438334465027,0.39387020468711853,0.19638529419898987,7.516103744506836,-1.4013557434082031,-1.692873239517212
1403638131020097000,-0.06871810555458069,0.3701675534248352,0.19177255034446716,7.5189433097839355,-1.3533730506896973,-1.6928460597991943
1403638131025097000,-0.06518036127090454,0.3524233102798462,0.18059854209423065,7.495422840118408,-1.3703784942626953,-1.7472795248031616
1403638131030097000,-0.06826293468475342,0.32931235432624817,0.1654907912015915,7.663238525390625,-1.2753372192382812,-1.8030588626861572
1403638131035097000,-0.06907550990581512,0.318202406167984,0.14722543954849243,7.632475852966309,-1.1476366519927979,-1.7810792922973633
1403638131040097000,-0.06892886757850647,0.29453784227371216,0.13150975108146667,7.565025329589844,-0.9961574673652649,-1.720873475074768
1403638131045097000,-0.07717913389205933,0.2741556167602539,0.11307717114686966,7.434606552124023,-0.8591424226760864,-1.7229938507080078
1403638131050097000,-0.0873674526810646,0.24427253007888794,0.09658574312925339,7.34030818939209,-0.8133003115653992,-1.6302777528762817
1403638131055097000,-0.09885323792695999,0.2189311683177948,0.0707370787858963,7.401481628417969,-0.8150882720947266,-1.6781494617462158
1403638131060097000,-0.10307662189006805,0.19311979413032532,0.05471699684858322,7.310434818267822,-1.0169239044189453,-1.7249308824539185
1403638131065097000,-0.10206060111522675,0.17239823937416077,0.024876222014427185,7.401841163635254,-1.1410330533981323,-1.732103943824768
1403638131070097000,-0.10341306030750275,0.14175333082675934,0.008036479353904724,7.360021591186523,-1.354973554611206,-1.7236607074737549
1403638131075097000,-0.09247659146785736,0.11318270862102509,-0.007460109889507294,7.359562397003174,-1.5450453758239746,-1.7219915390014648
1403638131080097000,-0.07456400990486145,0.07699282467365265,-0.011924587190151215,7.313277244567871,-1.7281758785247803,-1.712592363357544
1403638131085097000,-0.056822288781404495,0.046309396624565125,-0.01906750351190567,7.499857425689697,-1.818402886390686,-1.765891194343567
1403638131090097000,-0.04477402940392494,0.015715181827545166,-0.02339804172515869,7.548978328704834,-1.8918460607528687,-1.773111343383789
1403638131095097000,-0.03721636161208153,-0.013555876910686493,-0.029140479862689972,7.744298458099365,-1.794677495956421,-1.8451435565948486
1403638131100097000,-0.03118171915411949,-0.04463305324316025,-0.03517398238182068,7.691620826721191,-1.74725341796875,-1.8236916065216064
1403638131105097000,-0.03028126433491707,-0.07371827214956284,-0.04508582502603531,7.833044528961182,-1.595805048942566,-1.8281686305999756
1403638131110097000,-0.030068982392549515,-0.10110350698232651,-0.05714566260576248,7.764630317687988,-1.502131462097168,-1.7928848266601562
1403638131115097000,-0.028860319405794144,-0.11983690410852432,-0.06471114605665207,7.895453453063965,-1.375443935394287,-1.827641487121582
1403638131120097000,-0.037710804492235184,-0.14512762427330017,-0.07600928097963333,7.817106246948242,-1.3140584230422974,-1.7927939891815186
1403638131125097000,-0.03816095367074013,-0.16462743282318115,-0.09338671714067459,7.938385009765625,-1.2512681484222412,-1.8741804361343384
1403638131130097000,-0.04260825738310814,-0.19312706589698792,-0.10776344686746597,7.777387619018555,-1.25381338596344,-1.8780261278152466
1403638131135097000,-0.04610472545027733,-0.21798251569271088,-0.1263909935951233,7.915365695953369,-1.3110915422439575,-1.943745493888855
1403638131140097000,-0.04536877200007439,-0.24294507503509521,-0.14621829986572266,7.8809380531311035,-1.3442261219024658,-1.9865446090698242
1403638131145097000,-0.04643959924578667,-0.26739662885665894,-0.15773367881774902,8.091395378112793,-1.3134576082229614,-2.1074788570404053
1403638131150097000,-0.043483901768922806,-0.28644970059394836,-0.1803397536277771,8.18581485748291,-1.3445905447006226,-2.11922025680542
1403638131155097000,-0.0425507090985775,-0.30312544107437134,-0.20174157619476318,8.378518104553223,-1.3904740810394287,-2.2240641117095947
1403638131160097000,-0.04188113287091255,-0.3169042766094208,-0.22254955768585205,8.457574844360352,-1.4993752241134644,-2.258059501647949
1403638131165097000,-0.03513845428824425,-0.33139267563819885,-0.24204155802726746,8.595318794250488,-1.5059680938720703,-2.269947052001953
1403638131170097000,-0.031230811029672623,-0.33605867624282837,-0.265562504529953,8.643596649169922,-1.4004485607147217,-2.281683921813965
1403638131175097000,-0.02528074011206627,-0.3441500663757324,-0.28097450733184814,8.727035522460938,-1.2552127838134766,-2.3556935787200928
1403638131180097000,-0.03375962749123573,-0.34874290227890015,-0.29672470688819885,8.704740524291992,-1.164876937866211,-2.4064791202545166
1403638131185097000,-0.03988612815737724,-0.3541383147239685,-0.30987825989723206,8.674854278564453,-1.0522223711013794,-2.4259915351867676
1403638131190097000,-0.04744907096028328,-0.3613396883010864,-0.3228294849395752,8.573657035827637,-0.8927052021026611,-2.461615562438965
1403638131195097000,-0.056885089725255966,-0.3760066032409668,-0.32373785972595215,8.44630241394043,-0.8846613168716431,-2.511698007583618
1403638131200097000,-0.06682148575782776,-0.3826446533203125,-0.33349156379699707,8.515379905700684,-0.7648566961288452,-2.5559465885162354
1403638131205097000,-0.0731067806482315,-0.3996528089046478,-0.3353751599788666,8.513172149658203,-0.8612865805625916,-2.590346336364746
1403638131210097000,-0.0716937780380249,-0.4077112078666687,-0.3487221598625183,8.681679725646973,-0.8929798007011414,-2.6327602863311768
1403638131215097000,-0.07312136888504028,-0.41330474615097046,-0.34997108578681946,8.6967191696167,-0.9975256323814392,-2.6570234298706055
1403638131220097000,-0.06707559525966644,-0.41359248757362366,-0.34932589530944824,8.846017837524414,-0.9898142218589783,-2.69705867767334
1403638131225097000,-0.060345765203237534,-0.4081348776817322,-0.3348506689071655,8.811039924621582,-0.9656965732574463,-2.7258758544921875
1403638131230097000,-0.051967259496450424,-0.39613422751426697,-0.32689592242240906,8.890401840209961,-0.860891580581665,-2.7712550163269043
1403638131235097000,-0.044176917523145676,-0.39297348260879517,-0.3175201416015625,8.818632125854492,-0.8987120985984802,-2.8078114986419678
1403638131240097000,-0.03858301416039467,-0.3798251450061798,-0.3056090772151947,8.936749458312988,-0.8324069380760193,-2.8771324157714844
1403638131245097000,-0.034697968512773514,-0.3795917332172394,-0.28701287508010864,8.841697692871094,-0.8406352996826172,-2.8676910400390625
1403638131250097000,-0.026770804077386856,-0.36440396308898926,-0.27507513761520386,8.990403175354004,-0.8205914497375488,-2.9136533737182617
1403638131255097000,-0.022129926830530167,-0.34718629717826843,-0.25357604026794434,8.920500755310059,-0.8503422141075134,-2.925625801086426
1403638131260097000,-0.015238221734762192,-0.33337876200675964,-0.23327407240867615,9.055607795715332,-0.7061478495597839,-2.9334092140197754
1403638131265097000,-0.011375557631254196,-0.3171636760234833,-0.21221977472305298,8.96226692199707,-0.6810370087623596,-2.9310054779052734
1403638131270097000,-0.009920034557580948,-0.2968425452709198,-0.18795189261436462,9.126172065734863,-0.6382594108581543,-2.96893572807312
1403638131275097000,-0.008902128785848618,-0.2765461206436157,-0.17541620135307312,9.046419143676758,-0.6357412934303284,-2.998380422592163
1403638131280097000,-0.0030046775937080383,-0.25690221786499023,-0.15551498532295227,9.19992446899414,-0.6073420643806458,-3.0837502479553223
1403638131285097000,0.0055616311728954315,-0.22932183742523193,-0.13776752352714539,9.045608520507812,-0.6914445161819458,-3.0972511768341064
1403638131290097000,0.011157214641571045,-0.2158055305480957,-0.12374789267778397,9.150528907775879,-0.6660944223403931,-3.1215524673461914
1403638131295097000,0.01711774617433548,-0.19982492923736572,-0.10914295166730881,9.149537086486816,-0.6799324750900269,-3.15268874168396
1403638131300097000,0.01985950395464897,-0.18862944841384888,-0.0944857969880104,9.286710739135742,-0.5198817253112793,-3.177901029586792
1403638131305097000,0.017822276800870895,-0.17490172386169434,-0.08510351926088333,9.200157165527344,-0.38321125507354736,-3.2339305877685547
1403638131310097000,0.01811615750193596,-0.16229680180549622,-0.06393124908208847,9.154013633728027,-0.24721458554267883,-3.2194435596466064
1403638131315097000,0.003519956022500992,-0.1492326706647873,-0.05333658307790756,9.083477020263672,-0.11811969429254532,-3.2436108589172363
1403638131320097000,-0.010202376171946526,-0.142141193151474,-0.041329286992549896,9.052682876586914,-0.036210451275110245,-3.3380918502807617
1403638131325097000,-0.026028431951999664,-0.1239558607339859,-0.0362788587808609,9.090343475341797,-0.01814359612762928,-3.3616867065429688
1403638131330097000,-0.0393923744559288,-0.11266536265611649,-0.023180149495601654,9.056074142456055,-0.1685817986726761,-3.353710889816284
1403638131335097000,-0.050312161445617676,-0.09003984928131104,-0.019519157707691193,9.028964042663574,-0.29548850655555725,-3.321901798248291
1403638131340097000,-0.05384674295783043,-0.07084541022777557,-0.006433822214603424,9.01116943359375,-0.35292813181877136,-3.2589855194091797
1403638131345097000,-0.055711980909109116,-0.04885644465684891,0.007519684731960297,8.977095603942871,-0.44773608446121216,-3.2663567066192627
1403638131350097000,-0.0583367682993412,-0.029589256271719933,0.02827463299036026,8.94217300415039,-0.5748719573020935,-3.249392509460449
1403638131355097000,-0.05590980872511864,-0.0019416101276874542,0.046230390667915344,8.978780746459961,-0.5984041094779968,-3.217434883117676
1403638131360097000,-0.05439288541674614,0.014143884181976318,0.06977973878383636,8.887504577636719,-0.7079660296440125,-3.2550899982452393
1403638131365097000,-0.052388425916433334,0.027430042624473572,0.0892367735505104,8.846379280090332,-0.6988351345062256,-3.2705585956573486
1403638131370097000,-0.04911243915557861,0.02843490242958069,0.11218520253896713,8.653665542602539,-0.745942234992981,-3.2456300258636475
1403638131375097000,-0.04708201810717583,0.02930300682783127,0.12682080268859863,8.747904777526855,-0.7134365439414978,-3.2308568954467773
1403638131380097000,-0.04573361203074455,0.028271004557609558,0.1384417861700058,8.59395694732666,-0.7694946527481079,-3.18194317817688
1403638131385097000,-0.04325889050960541,0.026891671121120453,0.1536567211151123,8.775123596191406,-0.7399811744689941,-3.182997226715088
1403638131390097000,-0.039189085364341736,0.02545347809791565,0.1596953272819519,8.716755867004395,-0.8044577240943909,-3.126173496246338
1403638131395097000,-0.027912866324186325,0.028500370681285858,0.1614646017551422,8.922802925109863,-0.8056179285049438,-3.1423254013061523
1403638131400097000,-0.025574304163455963,0.03345043957233429,0.15990281105041504,8.946723937988281,-0.7915520668029785,-3.086731433868408
1403638131405097000,-0.026926320046186447,0.04641864448785782,0.15276041626930237,9.187926292419434,-0.7123948335647583,-3.1436734199523926
1403638131410097000,-0.02786102145910263,0.057919569313526154,0.1376861333847046,9.141335487365723,-0.6960634589195251,-3.1429648399353027
1403638131415097000,-0.03375856578350067,0.07278579473495483,0.12179794907569885,9.256312370300293,-0.671650767326355,-3.245577335357666
1403638131420097000,-0.035253994166851044,0.08532929420471191,0.10128095000982285,9.106366157531738,-0.6236897110939026,-3.17429256439209
1403638131425097000,-0.04521516337990761,0.08735078573226929,0.07988590002059937,9.149106979370117,-0.5598881840705872,-3.214540719985962
1403638131430097000,-0.05133552849292755,0.08715066313743591,0.05435033142566681,9.077956199645996,-0.5038058161735535,-3.198744773864746
1403638131435097000,-0.06367694586515427,0.0874541699886322,0.03397699445486069,9.063141822814941,-0.3843928575515747,-3.2467708587646484
1403638131440097000,-0.07591503858566284,0.08736379444599152,-0.006465114653110504,8.98197078704834,-0.391396164894104,-3.2143027782440186
1403638131445097000,-0.08235178887844086,0.07755140960216522,-0.034469276666641235,8.957879066467285,-0.3675698935985565,-3.2375388145446777
1403638131450097000,-0.0951254591345787,0.06804811954498291,-0.0694878026843071,8.891680717468262,-0.2810460329055786,-3.2060165405273438
1403638131455097000,-0.10470013320446014,0.05104623734951019,-0.09703730791807175,8.858621597290039,-0.2254341095685959,-3.2142558097839355
1403638131460097000,-0.11707662045955658,0.03941071033477783,-0.13064998388290405,8.694483757019043,-0.24167907238006592,-3.143333673477173
1403638131465097000,-0.1318168044090271,0.020581919699907303,-0.14537787437438965,8.54887866973877,-0.3072245419025421,-3.0804972648620605
1403638131470097000,-0.14093849062919617,0.007120996713638306,-0.15273183584213257,8.475923538208008,-0.4048306941986084,-3.00136661529541
1403638131475097000,-0.14828342199325562,-0.016563409939408302,-0.14796322584152222,8.403351783752441,-0.5907838344573975,-2.9215891361236572
1403638131480097000,-0.15152759850025177,-0.03024163655936718,-0.14179185032844543,8.523887634277344,-0.7133616805076599,-2.8649275302886963
1403638131485097000,-0.14634571969509125,-0.04466176778078079,-0.12446103245019913,8.530970573425293,-0.945854663848877,-2.8619086742401123
1403638131490097000,-0.13693653047084808,-0.05341804027557373,-0.11063937097787857,8.610982894897461,-1.0668134689331055,-2.8360509872436523
1403638131495097000,-0.12032793462276459,-0.051312316209077835,-0.07782462984323502,8.52991771697998,-1.1873611211776733,-2.817131757736206
1403638131500097000,-0.09569163620471954,-0.05638653784990311,-0.053592748939991,8.52145767211914,-1.2271727323532104,-2.8231558799743652
1403638131505097000,-0.07724738121032715,-0.06608026474714279,-0.02245791256427765,8.496026039123535,-1.2595605850219727,-2.8219521045684814
1403638131510097000,-0.05839912220835686,-0.07693894952535629,-0.004951268434524536,8.631721496582031,-1.1706634759902954,-2.917849063873291
1403638131515097000,-0.036531660705804825,-0.08251408487558365,0.017483294010162354,8.572723388671875,-1.1155012845993042,-2.862485647201538
1403638131520097000,-0.01926315203309059,-0.08956250548362732,0.033556245267391205,8.775132179260254,-0.9311685562133789,-2.9287023544311523
1403638131525097000,-0.012906614691019058,-0.09420318901538849,0.04867543280124664,8.697036743164062,-0.7963970303535461,-2.9220523834228516
1403638131530097000,-0.004929099231958389,-0.10174611955881119,0.0571809783577919,8.829524993896484,-0.5978876948356628,-2.917091131210327
1403638131535097000,-0.0018919780850410461,-0.10612384229898453,0.06507138162851334,8.84058952331543,-0.5115382075309753,-2.9182846546173096
1403638131540097000,-0.002941623330116272,-0.10580717027187347,0.06892523169517517,9.028456687927246,-0.38384881615638733,-3.0698509216308594
1403638131545097000,-0.007591608911752701,-0.09802021831274033,0.06857617199420929,8.998025894165039,-0.29709821939468384,-3.05486798286438
1403638131550097000,-0.014065301045775414,-0.0900103747844696,0.061503686010837555,9.09000015258789,-0.19330739974975586,-3.135098934173584
1403638131555097000,-0.01865786500275135,-0.08605623990297318,0.05300496518611908,8.931401252746582,-0.208814337849617,-3.135089874267578
1403638131560097000,-0.0218258798122406,-0.0869244709610939,0.04440920799970627,8.949889183044434,-0.2329898327589035,-3.1513819694519043
1403638131565097000,-0.02554573118686676,-0.0947817862033844,0.032406456768512726,8.766027450561523,-0.24111217260360718,-3.1362791061401367
1403638131570097000,-0.024031665176153183,-0.10966616868972778,0.02500930428504944,8.847338676452637,-0.2575812339782715,-3.168290138244629
1403638131575097000,-0.021685190498828888,-0.12189796566963196,0.008764833211898804,8.862181663513184,-0.3455532491207123,-3.1207680702209473
1403638131580097000,-0.02532736212015152,-0.13458460569381714,-0.002211928367614746,8.999055862426758,-0.3776134252548218,-3.1289522647857666
1403638131585097000,-0.021560881286859512,-0.14242911338806152,-0.012052901089191437,9.031816482543945,-0.44822943210601807,-3.160281181335449
