#timestamp [ns],w_RS_S_x [rad s^-1],w_RS_S_y [rad s^-1],w_RS_S_z [rad s^-1],a_RS_S_x [m s^-2],a_RS_S_y [m s^-2],a_RS_S_z [m s^-2]
1403638127270097000,-0.010471975511965976,0.01117010721276371,0.06562437987498679,8.956740333333332,0.08172208333333333,-3.930832208333333
1403638127275097000,-0.012566370614359173,0.0153588974175501,0.059341194567807204,9.095667875,0.04903325,-3.947176625
1403638127280097000,-0.01117010721276371,0.0153588974175501,0.059341194567807204,9.07115125,-0.04086104166666667,-3.955348833333333
1403638127285097000,-0.011868238913561441,0.021642082724729686,0.04817108735504349,9.201906583333333,-0.08989429166666667,-3.9962098749999995
1403638127290097000,-0.01117010721276371,0.02722713633111154,0.050963614158234416,9.005773583333333,-0.16344416666666667,-3.947176625
1403638127295097000,-0.006283185307179587,0.03420845333908886,0.05305800926062762,8.964912541666667,-0.17978858333333333,-3.930832208333333
1403638127300097000,-0.006981317007977318,0.030019663134302467,0.05864306286700947,8.7279185,-0.196133,-3.87362675
1403638127305097000,-0.006981317007977318,0.019547687622336492,0.0614355896702004,8.77695175,-0.17978858333333333,-3.87362675
1403638127310097000,-0.013962634015954637,0.01117010721276371,0.06771877497737998,8.695229666666666,-0.24516625,-3.8491101249999997
1403638127315097000,-0.014660765716752367,0.010471975511965976,0.07330382858376185,8.842329416666665,-0.26151066666666667,-3.898143375
1403638127320097000,-0.014660765716752367,0.00767944870877505,0.08447393579652555,8.858673833333333,-0.4004382083333333,-3.8654545416666664
1403638127325097000,-0.008377580409572781,0.013962634015954637,0.09285151620609833,9.087495666666666,-0.392266,-3.92266
1403638127330097000,0.0020943951023931952,0.016755160819145562,0.10471975511965977,8.964912541666667,-0.43312704166666666,-3.97169325
1403638127335097000,0.017453292519943295,0.024434609527920613,0.11030480872604163,9.103840083333333,-0.34323275000000003,-3.97169325
1403638127340097000,0.01815142422074103,0.028623399732707,0.10471975511965977,8.891362666666666,-0.269682875,-3.930832208333333
1403638127345097000,0.020943951023931952,0.021642082724729686,0.10192722831646883,8.948568125,-0.04903325,-3.97169325
1403638127350097000,0.0153588974175501,0.016057029118347832,0.1054178868204575,8.825985,0.04903325,-3.955348833333333
1403638127355097000,0.010471975511965976,0.014660765716752367,0.10821041362364843,8.858673833333333,0.0980665,-3.9635210416666666
1403638127360097000,0.0020943951023931952,0.00767944870877505,0.1054178868204575,8.77695175,0.0980665,-3.92266
1403638127365097000,0.0,0.003490658503988659,0.10471975511965977,8.997601374999999,0.13892754166666665,-3.906315583333333
1403638127370097000,-0.004886921905584123,0.0020943951023931952,0.09704030641088471,8.981256958333333,0.06537766666666667,-3.9144877916666663
1403638127375097000,-0.009075712110370514,0.0013962634015954637,0.08587019919812101,9.1201845,0.08172208333333333,-3.92266
1403638127380097000,-0.009075712110370514,0.004886921905584123,0.0747000919853573,9.030290208333332,0.016344416666666667,-3.857282333333333
1403638127385097000,-0.004886921905584123,0.005585053606381855,0.06632251157578452,9.087495666666666,0.016344416666666667,-3.8654545416666664
1403638127390097000,-0.0041887902047863905,0.013264502315156905,0.060039326268604934,9.030290208333332,-0.016344416666666667,-3.906315583333333
1403638127395097000,-0.003490658503988659,0.014660765716752367,0.057246799465414,8.989429166666666,-0.016344416666666667,-3.9635210416666666
1403638127400097000,0.0006981317007977319,0.019547687622336492,0.04817108735504349,8.97308475,0.04903325,-3.97169325
1403638127405097000,-0.0027925268031909274,0.023736477827122883,0.04537856055185257,9.062979041666667,0.13075533333333333,-4.069759749999999
1403638127410097000,-0.005585053606381855,0.0307177948351002,0.05166174585903216,8.997601374999999,0.11441091666666667,-4.086104166666667
1403638127415097000,-0.010632120072841644,0.028688624501228333,0.052070844918489456,8.966706275939941,0.09033216536045074,-4.137516021728516
1403638127420097000,-0.013438500463962555,0.03145752474665642,0.059760574251413345,8.835963249206543,0.01690247468650341,-4.023110866546631
1403638127425097000,-0.015521816909313202,0.025861555710434914,0.05905512347817421,8.90142822265625,-0.05680212005972862,-3.9987382888793945
1403638127430097000,-0.01901707798242569,0.0300179161131382,0.0611671544611454,8.835904121398926,-0.1384657919406891,-4.014984607696533
1403638127435097000,-0.011331163346767426,0.03280245512723923,0.07373194396495819,8.958441734313965,-0.18769916892051697,-4.031381130218506
1403638127440097000,-0.003665931522846222,0.04045087471604347,0.076546311378479,8.966470718383789,-0.26942387223243713,-4.055842876434326
1403638127445097000,0.0019301101565361023,0.04464222118258476,0.0821285992860794,9.089061737060547,-0.24496829509735107,-4.023169994354248
1403638127450097000,0.004728727042675018,0.051636531949043274,0.08004888892173767,9.113503456115723,-0.16313180327415466,-3.9985876083374023
1403638127455097000,0.010988272726535797,0.059330567717552185,0.0870426744222641,9.02352237701416,-0.09757028520107269,-3.90047550201416
1403638127460097000,0.01096314936876297,0.06491115689277649,0.09055674076080322,8.810914039611816,-0.10543195903301239,-3.8104751110076904
1403638127465097000,0.0046845898032188416,0.04819577932357788,0.09469632804393768,8.819352149963379,-0.048462267965078354,-3.7943036556243896
1403638127470097000,-0.006459124386310577,0.04053913801908493,0.09258241951465607,8.86037826538086,0.00043802111758850515,-3.786189556121826
1403638127475097000,-0.019697226583957672,0.03423433005809784,0.09187547862529755,8.90126895904541,-0.08952943235635757,-3.769846200942993
1403638127480097000,-0.02320697158575058,0.025131328031420708,0.0883801132440567,8.827746391296387,-0.22021232545375824,-3.6963353157043457
1403638127485097000,-0.017645306885242462,0.009764919057488441,0.08904670178890228,8.860578536987305,-0.3184962570667267,-3.6556999683380127
1403638127490097000,-0.014852948486804962,0.006954347714781761,0.08066952228546143,8.926045417785645,-0.3839362859725952,-3.6721272468566895
1403638127495097000,-0.003713078796863556,0.002051660791039467,0.08065783977508545,8.917899131774902,-0.43310293555259705,-3.721266269683838
1403638127500097000,0.012344233691692352,0.01183304749429226,0.07298704981803894,9.048787117004395,-0.3432873487472534,-3.8357491493225098
1403638127505097000,0.017216287553310394,0.013264315202832222,0.07647129893302917,8.967019081115723,-0.2288338840007782,-3.8684005737304688
1403638127510097000,0.018632493913173676,0.007746623829007149,0.07085596024990082,9.057095527648926,-0.032859690487384796,-4.031839370727539
1403638127515097000,0.015842653810977936,0.015438629314303398,0.07924504578113556,9.007859230041504,0.02446982078254223,-4.088857173919678
1403638127520097000,0.010944239795207977,0.011976886540651321,0.08272308111190796,8.909822463989258,0.09812242537736893,-4.0970072746276855
1403638127525097000,0.011632569134235382,0.00985969603061676,0.08691233396530151,8.852619171142578,0.016402974724769592,-4.015379428863525
1403638127530097000,0.009528301656246185,0.002214347943663597,0.07502883672714233,8.812005996704102,0.09000344574451447,-3.884758949279785
1403638127535097000,0.000481925904750824,-0.007526593282818794,0.07429945468902588,8.926567077636719,0.15513044595718384,-4.007412910461426
1403638127540097000,-0.012032680213451385,0.002250606194138527,0.0764198899269104,9.024476051330566,0.19598478078842163,-4.007300853729248
1403638127545097000,-0.02109614759683609,-0.0005801096558570862,0.08619189262390137,8.97537899017334,0.05700816959142685,-3.9664394855499268
1403638127550097000,-0.023165561258792877,0.007028421387076378,0.08482787013053894,9.081488609313965,-0.1472800225019455,-3.860191822052002
1403638127555097000,-0.015549100935459137,-5.910173058509827e-06,0.08622850477695465,8.926135063171387,-0.33511558175086975,-3.778493642807007
1403638127560097000,-0.00016773492097854614,0.011827966198325157,0.07159046828746796,9.2041654586792,-0.367910236120224,-3.868459463119507
1403638127565097000,0.012349285185337067,0.017423363402485847,0.060440558940172195,9.032428741455078,-0.28589528799057007,-3.868398666381836
1403638127570097000,0.01443866640329361,0.02585839107632637,0.05277029052376747,8.942395210266113,-0.06501937657594681,-3.95804500579834
1403638127575097000,0.012316785752773285,0.017506267875432968,0.06390966475009918,8.762595176696777,-0.02415432035923004,-3.9580111503601074
1403638127580097000,0.003949098289012909,0.012637792155146599,0.07296867668628693,8.729955673217773,0.008473909460008144,-3.9661779403686523
1403638127585097000,-0.0009286627173423767,0.0007553268224000931,0.08132356405258179,8.762713432312012,-0.08988319337368011,-3.9826958179473877
1403638127590097000,-0.0043797120451927185,0.0035631898790597916,0.07713454961776733,8.934403419494629,-0.04097910597920418,-4.056248664855957
1403638127595097000,-0.007175065577030182,-0.0006479043513536453,0.0855080783367157,8.909878730773926,-0.13914775848388672,-3.9991331100463867
1403638127600097000,-0.0008638575673103333,0.005626406520605087,0.07923436164855957,9.10606861114502,-0.13924859464168549,-4.040027618408203
1403638127605097000,0.0005066022276878357,0.007013753056526184,0.08273196220397949,8.999752044677734,-0.16361896693706512,-3.9664599895477295
1403638127610097000,0.008883409202098846,0.016766084358096123,0.08414627611637115,9.08139419555664,-0.18809770047664642,-3.9664149284362793
1403638127615097000,0.014432273805141449,0.018889186903834343,0.08973173797130585,8.9178466796875,-0.09800034761428833,-3.941828727722168
1403638127620097000,0.020029790699481964,0.026584209874272346,0.08415913581848145,9.03226089477539,-0.01625957153737545,-3.974472999572754
1403638127625097000,0.015128277242183685,0.02590540051460266,0.078579843044281,8.876970291137695,0.04117048159241676,-3.949859142303467
1403638127630097000,0.008174248039722443,0.029427671805024147,0.07090765237808228,8.950480461120605,0.16379661858081818,-4.039604663848877
1403638127635097000,-0.0023002997040748596,0.023156939074397087,0.06810221076011658,8.836213111877441,0.18836864829063416,-3.9660751819610596
1403638127640097000,-0.009242184460163116,0.021080898120999336,0.061120931059122086,8.98336410522461,0.2372538298368454,-3.990669012069702
1403638127645097000,-0.014134697616100311,0.016848810017108917,0.06251557171344757,8.87717342376709,0.08204934000968933,-3.89265513420105
1403638127650097000,-0.018976621329784393,0.011936357244849205,0.05413858965039253,9.065195083618164,-0.024413088336586952,-3.9418537616729736
1403638127655097000,-0.01691310852766037,0.014664916321635246,0.05206312611699104,8.975174903869629,-0.20410025119781494,-3.9499573707580566
1403638127660097000,-0.014118500053882599,0.017429692670702934,0.04439966753125191,9.040586471557617,-0.2776338458061218,-3.933671236038208
1403638127665097000,-0.005785159766674042,0.02788257971405983,0.05140245333313942,8.876867294311523,-0.2855353057384491,-3.8844313621520996
1403638127670097000,-0.000881679356098175,0.02931232377886772,0.05837080255150795,8.983150482177734,-0.17947271466255188,-3.9579877853393555
1403638127675097000,0.0018974468111991882,0.03628121316432953,0.06955340504646301,8.917577743530273,-0.20392566919326782,-3.95786452293396
1403638127680097000,-0.009930141270160675,0.03421599790453911,0.07233518362045288,8.983028411865234,-0.12228448688983917,-3.957843065261841
1403638127685097000,-0.01066424697637558,0.036259718239307404,0.08491824567317963,8.802957534790039,-0.2938300371170044,-3.9495413303375244
1403638127690097000,-0.006468631327152252,0.034166641533374786,0.0939752608537674,8.933783531188965,-0.31854650378227234,-3.9332940578460693
1403638127695097000,0.0011645033955574036,0.03206346184015274,0.10375280678272247,8.745589256286621,-0.35931628942489624,-3.8924062252044678
1403638127700097000,0.008147917687892914,0.022325018420815468,0.10092177987098694,8.868526458740234,-0.27781885862350464,-3.9090142250061035
1403638127705097000,0.015101335942745209,0.018869007006287575,0.1044003814458847,8.754125595092773,-0.17966197431087494,-3.884549856185913
1403638127710097000,0.015101321041584015,0.007740912958979607,0.09947913885116577,8.803511619567871,-0.08989232033491135,-3.8193860054016113
1403638127715097000,0.004654489457607269,8.04513692855835e-05,0.0938798189163208,8.844559669494629,-0.06548339128494263,-3.7704451084136963
1403638127720097000,0.0039929673075675964,-0.0005748830735683441,0.09385721385478973,9.040871620178223,0.056836072355508804,-3.8849470615386963
1403638127725097000,0.000530831515789032,0.008478419855237007,0.0917862057685852,9.114270210266113,0.03237347677350044,-3.89298939704895
1403638127730097000,-0.00500129908323288,0.018946833908557892,0.08971400558948517,9.269392967224121,0.08136919885873795,-3.909212112426758
1403638127735097000,-0.004345454275608063,0.024505535140633583,0.08764684200286865,9.056795120239258,0.01637939177453518,-3.8926942348480225
1403638127740097000,-0.0008524283766746521,0.021706176921725273,0.07857094705104828,9.114086151123047,-0.008166074752807617,-3.925450325012207
1403638127745097000,-0.0008847042918205261,0.025888513773679733,0.07091207802295685,8.92601490020752,0.00033353568869642913,-3.9416165351867676
1403638127750097000,-0.004377670586109161,0.02101413533091545,0.06531523168087006,8.893379211425781,0.03302645683288574,-3.9906318187713623
1403638127755097000,-0.0023180022835731506,0.01888883113861084,0.05973351374268532,8.729846954345703,-0.04854368045926094,-3.957907199859619
1403638127760097000,-0.0030029788613319397,0.0133270975202322,0.058316487818956375,8.828020095825195,0.0003075420972891152,-4.039695739746094
1403638127765097000,-0.003708072006702423,0.009132156148552895,0.059704024344682693,8.795336723327637,-0.032446201890707016,-4.039738655090332
1403638127770097000,-0.004372499883174896,0.00496322475373745,0.06666892766952515,8.97529411315918,-0.01638362556695938,-4.048083782196045
1403638127775097000,-0.007840953767299652,0.007751131430268288,0.07435174286365509,9.040628433227539,-0.032825663685798645,-4.039908409118652
1403638127780097000,-0.006428219377994537,0.009818483144044876,0.07784773409366608,9.138689041137695,-0.1146799772977829,-4.039951801300049
1403638127785097000,-0.007842577993869781,0.020264213904738426,0.07857903838157654,9.024081230163574,-0.15523172914981842,-3.9499075412750244
1403638127790097000,-0.005060039460659027,0.025816956534981728,0.08696910738945007,9.015765190124512,-0.24512089788913727,-3.949829339981079
1403638127795097000,-0.0029872283339500427,0.03278268873691559,0.08978419005870819,8.90115737915039,-0.26942360401153564,-3.917006254196167
1403638127800097000,0.0005085989832878113,0.030001936480402946,0.091165691614151,8.982989311218262,-0.24504803121089935,-3.9171009063720703
1403638127805097000,-0.00020388513803482056,0.030713964253664017,0.09047393500804901,8.860346794128418,-0.19584041833877563,-3.884350061416626
1403638127810097000,0.0011824145913124084,0.023052047938108444,0.09184987843036652,8.835936546325684,-0.17140616476535797,-3.876277446746826
1403638127815097000,0.0032602623105049133,0.023742761462926865,0.09255516529083252,8.745929718017578,-0.18766814470291138,-3.892564058303833
1403638127820097000,0.00536925345659256,0.016781657934188843,0.09950274229049683,8.901405334472656,-0.163463294506073,-3.9172656536102295
1403638127825097000,0.006064899265766144,0.020303070545196533,0.0925290435552597,8.860583305358887,-0.04888765513896942,-3.9008686542510986
1403638127830097000,0.004670672118663788,0.012660736218094826,0.09599079191684723,8.885254859924316,0.032696645706892014,-3.9499900341033936
1403638127835097000,0.0025958195328712463,0.010583259165287018,0.09458307921886444,8.98340892791748,0.0734291821718216,-3.9663991928100586
1403638127840097000,0.001934833824634552,0.014060614630579948,0.08900661766529083,9.146827697753906,0.056970566511154175,-3.9909162521362305
1403638127845097000,-0.005035616457462311,0.025194136425852776,0.08206871151924133,9.081236839294434,4.986971543985419e-05,-3.9906883239746094
1403638127850097000,-0.005034677684307098,0.026579707860946655,0.08625823259353638,9.089385986328125,-0.0326542966067791,-3.966176748275757
1403638127855097000,-0.0050476714968681335,0.030754325911402702,0.08278599381446838,9.00757884979248,-0.056995537132024765,-3.9742517471313477
1403638127860097000,-0.004356496036052704,0.02726234495639801,0.08487117290496826,8.999465942382812,-0.08155925571918488,-3.9416329860687256
1403638127865097000,-0.005758263170719147,0.03144603967666626,0.07930418848991394,8.934036254882812,-0.07321283221244812,-3.91703724861145
1403638127870097000,-0.0037032589316368103,0.023739105090498924,0.0792987048625946,8.778738021850586,-0.18754591047763824,-3.8517067432403564
1403638127875097000,0.0004780516028404236,0.019555361941456795,0.06951715052127838,8.803365707397461,-0.17942482233047485,-3.8681480884552
1403638127880097000,-0.000211276113986969,0.01329590193927288,0.07507802546024323,8.86069393157959,-0.13876384496688843,-3.8927578926086426
1403638127885097000,0.0012022629380226135,0.0098187904804945,0.07227253913879395,8.983443260192871,-0.11441325396299362,-3.892896890640259
1403638127890097000,0.0026122555136680603,0.009126750752329826,0.08272911608219147,9.081548690795898,-0.10643555968999863,-3.8929648399353027
1403638127895097000,0.0005283430218696594,0.01680862531065941,0.08204831182956696,9.081433296203613,-0.0654628723859787,-3.909174919128418
1403638127900097000,-0.0029529258608818054,0.02029060572385788,0.08833581209182739,9.081315040588379,-0.0818088948726654,-3.941763162612915
1403638127905097000,-0.0015634521842002869,0.026565736159682274,0.08277322351932526,9.032179832458496,-0.07345853000879288,-3.974330425262451
1403638127910097000,0.001206912100315094,0.02516944892704487,0.08556410670280457,8.934049606323242,-0.0815887525677681,-4.047828197479248
1403638127915097000,0.008875764906406403,0.030751654878258705,0.08069099485874176,8.958548545837402,-0.06513795256614685,-4.0069780349731445
1403638127920097000,0.011621437966823578,0.018904343247413635,0.07857212424278259,8.754375457763672,-0.04050888493657112,-3.909022331237793
1403638127925097000,0.0061065033078193665,0.01615608111023903,0.07157383859157562,9.097845077514648,0.08170046657323837,-3.9827144145965576
1403638127930097000,-0.005764581263065338,0.016852419823408127,0.06949231028556824,8.934405326843262,0.07373394817113876,-3.868243932723999
1403638127935097000,-0.018288753926753998,0.02033066749572754,0.0681072324514389,8.999656677246094,0.0655546560883522,-3.9579966068267822
1403638127940097000,-0.022508107125759125,0.020283328369259834,0.07649378478527069,8.803400039672852,-0.08134174346923828,-3.859830856323242
1403638127945097000,-0.023211292922496796,0.013970255851745605,0.07718716561794281,8.836090087890625,-0.22038967907428741,-3.835421323776245
1403638127950097000,-0.01205480843782425,0.004168232902884483,0.07856236398220062,8.966978073120117,-0.35976460576057434,-3.9255595207214355
1403638127955097000,-0.0029861554503440857,0.010442862287163734,0.07089647650718689,9.007859230041504,-0.34334102272987366,-3.9419021606445312
1403638127960097000,0.006052039563655853,0.013227017596364021,0.06462517380714417,8.893350601196289,-0.33495503664016724,-3.89284086227417
1403638127965097000,0.010261349380016327,0.016081590205430984,0.06321625411510468,8.991559982299805,-0.13066384196281433,-3.925536870956421
1403638127970097000,0.00814201682806015,0.016814181581139565,0.0674000233411789,8.795348167419434,-0.024206526577472687,-3.884528875350952
1403638127975097000,0.0025943443179130554,0.014069344848394394,0.06737914681434631,8.967036247253418,0.11451481282711029,-4.047940731048584
1403638127980097000,-0.005077831447124481,0.01266932301223278,0.07226341962814331,8.91798210144043,0.098176971077919,-4.047908782958984
1403638127985097000,-0.0071501657366752625,0.011258931830525398,0.07366038858890533,8.999773979187012,0.032686278223991394,-3.982668876647949
1403638127990097000,-0.016224659979343414,0.00843753106892109,0.07296788692474365,8.918004989624023,-0.06533662974834442,-3.9662888050079346
1403638127995097000,-0.0162118598818779,0.011228121817111969,0.07088114321231842,8.975220680236816,-0.06533020734786987,-3.9417929649353027
1403638128000097000,-0.012746118009090424,0.014694200828671455,0.07229074835777283,8.885210990905762,-0.12238999456167221,-3.9090347290039062
1403638128005097000,-0.012015871703624725,0.02097168378531933,0.07299956679344177,9.0486421585083,-0.122492216527462,-3.9172182083129883
1403638128010097000,-0.009240128099918365,0.023748153820633888,0.07161405682563782,8.99134635925293,-0.15510118007659912,-3.949834108352661
1403638128015097000,-0.00016269832849502563,0.02654508873820305,0.06812597811222076,9.089446067810059,-0.12246841937303543,-3.982558012008667
1403638128020097000,0.00467769056558609,0.025158895179629326,0.060449350625276566,8.893321990966797,-0.08950876444578171,-3.9008264541625977
1403638128025097000,0.0005052611231803894,0.017521394416689873,0.05902953818440437,8.942560195922852,0.0002486184239387512,-3.884594202041626
1403638128030097000,-0.005100958049297333,0.015421632677316666,0.056930262595415115,8.762690544128418,0.00042809100705198944,-3.8926079273223877
1403638128035097000,-0.012050695717334747,0.007779058068990707,0.05830321088433266,8.885459899902344,0.06556224822998047,-3.925435781478882
1403638128040097000,-0.016913704574108124,0.009839901700615883,0.06668947637081146,8.950726509094238,-0.040790360420942307,-3.94994854927063
1403638128045097000,-0.01897219568490982,0.009830499067902565,0.07366661727428436,9.11419677734375,-0.09005528688430786,-3.9337103366851807
1403638128050097000,-0.014824874699115753,0.009066378697752953,0.07437999546527863,9.02421760559082,-0.30247318744659424,-3.90918231010437
1403638128055097000,-0.008542411029338837,0.008355723693966866,0.07577121257781982,9.1060209274292,-0.3434840738773346,-3.9419431686401367
1403638128060097000,-0.005085088312625885,0.015331728383898735,0.07369948923587799,8.942368507385254,-0.3186294436454773,-3.8682491779327393
1403638128065097000,0.0004974380135536194,0.0167518500238657,0.07160104811191559,8.950587272644043,-0.2287358194589615,-3.9091198444366455
1403638128070097000,0.0025742128491401672,0.01817769557237625,0.07718110084533691,8.836102485656738,-0.13054592907428741,-3.9008586406707764
1403638128075097000,0.003970257937908173,0.016821367666125298,0.0890287458896637,8.844311714172363,-0.02439023368060589,-3.9498941898345947
1403638128080097000,-0.002286277711391449,0.01474308967590332,0.09250767529010773,8.917848587036133,0.016321269795298576,-4.080597400665283
1403638128085097000,-0.008550338447093964,0.011254079639911652,0.09668542444705963,8.966933250427246,-0.00014194250979926437,-4.0398125648498535
1403638128090097000,-0.011332668364048004,0.016125889495015144,0.09321235120296478,8.975030899047852,-0.024571605026721954,-4.015234470367432
1403638128095097000,-0.01342570036649704,0.016093837097287178,0.09461735188961029,8.966794967651367,-0.13084638118743896,-4.023393154144287
1403638128100097000,-0.008569680154323578,0.022353557869791985,0.08696675300598145,8.835919380187988,-0.163230299949646,-3.9661002159118652
1403638128105097000,0.0004905834794044495,0.015399191528558731,0.08833630383014679,8.885151863098145,-0.11431380361318588,-3.9009275436401367
1403638128110097000,0.0011881813406944275,0.01400953158736229,0.08554045855998993,8.893372535705566,-0.09798238426446915,-3.9009556770324707
1403638128115097000,-0.00019926577806472778,0.002162465825676918,0.08829870820045471,8.96716022491455,-0.09007032960653305,-3.8684892654418945
1403638128120097000,-0.004363350570201874,0.00496475026011467,0.08551006019115448,9.032539367675781,-0.04924222081899643,-3.901132583618164
1403638128125097000,-0.005768783390522003,0.007703954353928566,0.0918082445859909,8.999690055847168,-0.2044675201177597,-3.868367910385132
1403638128130097000,-0.00019653886556625366,0.009799031540751457,0.08902087807655334,8.983349800109863,-0.18804840743541718,-3.8520314693450928
1403638128135097000,0.0025744810700416565,0.007009964436292648,0.08832019567489624,8.885255813598633,-0.17983253300189972,-3.892868995666504
1403638128140097000,0.004686988890171051,0.004948459565639496,0.08341734111309052,8.991646766662598,-0.0819089263677597,-3.9991488456726074
1403638128145097000,0.0018983706831932068,0.009830998256802559,0.09110596776008606,8.958803176879883,-0.08187775313854218,-4.048052787780762
1403638128150097000,0.0019307658076286316,0.017513180151581764,0.08902308344841003,9.09765338897705,-0.041049931198358536,-4.105163097381592
1403638128155097000,-0.0008917227387428284,0.02376926690340042,0.09463690221309662,8.8767728805542,-0.10614801943302155,-4.072332382202148
1403638128160097000,0.0018908604979515076,0.02448132447898388,0.09324035048484802,8.844088554382324,-0.05702890455722809,-4.0804924964904785
1403638128165097000,-0.0009196922183036804,0.021683350205421448,0.09463748335838318,8.713286399841309,-0.07326299697160721,-4.023272514343262
1403638128170097000,0.002587713301181793,0.01819988340139389,0.0897362232208252,8.87687873840332,-0.07348481565713882,-4.080599308013916
1403638128175097000,0.0011761859059333801,0.014010746031999588,0.09252093732357025,8.80335807800293,-0.08977922052145004,-3.974423885345459
1403638128180097000,0.0018932744860649109,0.01195749081671238,0.08970941603183746,8.934290885925293,0.024501657113432884,-4.015358924865723
1403638128185097000,0.0018876418471336365,0.009851943701505661,0.08901160955429077,8.918009757995605,-0.024526920169591904,-3.884707450866699
1403638128190097000,0.002619408071041107,0.009145542979240417,0.08063411712646484,9.106114387512207,-0.04922199621796608,-3.8766722679138184
1403638128195097000,0.003997720777988434,0.012634249404072762,0.07855287194252014,9.016159057617188,-0.040876008570194244,-3.8439064025878906
1403638128200097000,0.0012364313006401062,0.013357911258935928,0.06878481805324554,9.122525215148926,0.04077378660440445,-3.8358051776885986
1403638128205097000,0.0019147172570228577,0.019618647173047066,0.06740675866603851,9.016108512878418,0.008326709270477295,-3.8682913780212402
1403638128210097000,-0.002243258059024811,0.01963946782052517,0.06321875751018524,9.114233016967773,0.07361215353012085,-3.884669542312622
1403638128215097000,-0.007835425436496735,0.025898342952132225,0.061843547970056534,8.99966812133789,0.03299272432923317,-3.8844785690307617
1403638128220097000,-0.009201519191265106,0.03775212541222572,0.061871711164712906,9.09748363494873,0.05756761506199837,-3.982339382171631
1403638128225097000,-0.014132507145404816,0.039095763117074966,0.06397908926010132,8.819515228271484,-0.09740767627954483,-3.941336154937744
1403638128230097000,-0.010656438767910004,0.029312893748283386,0.06395810842514038,8.844104766845703,-0.17934858798980713,-3.982354164123535
1403638128235097000,-0.011384882032871246,0.025104394182562828,0.06395776569843292,8.688722610473633,-0.24466338753700256,-3.9333033561706543
1403638128240097000,-0.00857514888048172,0.01814127527177334,0.06602838635444641,8.852375030517578,-0.23681361973285675,-3.990697145462036
1403638128245097000,-0.0037078484892845154,0.01674143597483635,0.07021325826644897,8.803288459777832,-0.2531665861606598,-3.966200590133667
1403638128250097000,0.004665665328502655,0.011169733479619026,0.07228586077690125,8.8933687210083,-0.23698702454566956,-3.958207607269287
1403638128255097000,0.006073705852031708,0.011186031624674797,0.07297651469707489,8.967002868652344,-0.18801423907279968,-3.958247184753418
1403638128260097000,0.007474146783351898,0.009144170209765434,0.07714433968067169,8.991637229919434,-0.04094347730278969,-3.9501116275787354
1403638128265097000,0.0081724151968956,0.014747008681297302,0.07785177230834961,8.983412742614746,0.03270737826824188,-3.941861391067505
1403638128270097000,-0.0022676363587379456,0.019625231623649597,0.07996045053005219,9.00783634185791,0.02456934191286564,-3.9335877895355225
1403638128275097000,-0.0036657676100730896,0.023116284981369972,0.07857564091682434,8.966937065124512,0.0410323366522789,-3.90901255607605
1403638128280097000,-0.0043351128697395325,0.029363535344600677,0.07998746633529663,9.097556114196777,-0.04076385870575905,-3.949814796447754
1403638128285097000,-0.0036568567156791687,0.03770247846841812,0.07443706691265106,8.982973098754883,-0.12221322953701019,-3.965999126434326
1403638128290097000,-0.005049280822277069,0.02864118479192257,0.07162243127822876,9.015810012817383,-0.11419792473316193,-3.990631103515625
1403638128295097000,-0.005762927234172821,0.032828439027071,0.07233263552188873,8.901284217834473,-0.09767761826515198,-3.9905126094818115
1403638128300097000,-0.0051042065024375916,0.028632234781980515,0.07930828630924225,8.680542945861816,-0.13022705912590027,-3.9332664012908936
1403638128305097000,-0.002316199243068695,0.019589561969041824,0.07718347012996674,8.729764938354492,-0.06500718742609024,-3.957918405532837
1403638128310097000,0.0004813000559806824,0.011935114860534668,0.08273948729038239,8.82799243927002,-0.03256302699446678,-3.990767240524292
1403638128315097000,-0.002282656729221344,0.016099706292152405,0.0764729231595993,8.942370414733887,-0.08983930945396423,-4.023442268371582
1403638128320097000,0.0019041374325752258,0.01331213116645813,0.07227693498134613,8.991512298583984,-0.08171682804822922,-3.9990291595458984
1403638128325097000,-0.0015695467591285706,0.022404653951525688,0.0708998441696167,9.007763862609863,0.00832641776651144,-3.9825503826141357
1403638128330097000,0.0005259737372398376,0.025876954197883606,0.07718880474567413,9.032217025756836,-0.04072866216301918,-3.9661993980407715
1403638128335097000,-0.0008497163653373718,0.031467534601688385,0.0723172277212143,9.097530364990234,0.00834664236754179,-3.9906392097473145
1403638128340097000,-0.0043612197041511536,0.03494078665971756,0.07163572311401367,8.934025764465332,-0.03226614370942116,-3.9333384037017822
1403638128345097000,-0.00923406332731247,0.029357044026255608,0.061160240322351456,8.9750394821167,-0.04864787310361862,-3.8925914764404297
1403638128350097000,-0.009264238178730011,0.020285112783312798,0.06951239705085754,8.844322204589844,-0.0813649594783783,-3.859940528869629
1403638128355097000,-0.011325277388095856,0.027945201843976974,0.06883309781551361,8.991349220275879,-0.11411812156438828,-3.8925931453704834
1403638128360097000,-0.007175378501415253,0.022340863943099976,0.07371184229850769,8.868743896484375,-0.2039526104927063,-3.810919761657715
1403638128365097000,-0.004357673227787018,0.019560398533940315,0.0688142478466034,9.04872989654541,-0.17966152727603912,-3.827435255050659
1403638128370097000,-0.010659433901309967,0.017454663291573524,0.07230581343173981,8.885135650634766,-0.22042517364025116,-3.859981060028076
1403638128375097000,-0.009234495460987091,0.018171822652220726,0.07160027325153351,9.040534019470215,-0.16338340938091278,-3.8764171600341797
1403638128380097000,-0.007865123450756073,0.01886916160583496,0.0778844803571701,8.909676551818848,-0.16325505077838898,-3.8354828357696533
1403638128385097000,-0.001585535705089569,0.020276416093111038,0.08067087829113007,8.950545310974121,-0.12246257811784744,-3.892700672149658
1403638128390097000,-0.00020188838243484497,0.02307015098631382,0.08486475050449371,8.876882553100586,-0.1060347706079483,-3.9171271324157715
1403638128395097000,-0.0008744224905967712,0.020985612645745277,0.08206245303153992,9.007715225219727,-0.08170674741268158,-4.015230178833008
1403638128400097000,-0.0008961334824562073,0.025149261578917503,0.0869670957326889,8.87678337097168,-0.14692582190036774,-3.990618944168091
1403638128405097000,-0.0008796378970146179,0.02516915462911129,0.09044739603996277,8.95854377746582,-0.0898246318101883,-4.039663791656494
1403638128410097000,-0.00021334737539291382,0.02516268752515316,0.0925496369600296,8.786858558654785,-0.10594240576028824,-3.9252312183380127
1403638128415097000,0.006058059632778168,0.016110073775053024,0.09391643106937408,8.82789134979248,-0.07343414425849915,-3.966262102127075
1403638128420097000,0.002575494349002838,0.014025095850229263,0.08902604877948761,8.844314575195312,-0.04891934618353844,-3.9335970878601074
1403638128425097000,-0.000893034040927887,0.008454568684101105,0.08900745213031769,8.950706481933594,-0.03276966139674187,-3.9337239265441895
1403638128430097000,-0.004395253956317902,0.0070429593324661255,0.08971107006072998,8.852575302124023,-0.08170288056135178,-3.8928158283233643
1403638128435097000,-0.006464742124080658,0.0035606063902378082,0.09039489924907684,8.983468055725098,-0.0819096565246582,-3.8766069412231445
1403638128440097000,-0.002965115010738373,0.01052631065249443,0.09040799736976624,9.0569429397583,-0.09824954718351364,-3.8847291469573975
1403638128445097000,0.0033241286873817444,0.016102543100714684,0.08483576774597168,9.138656616210938,-0.09006427228450775,-3.917395830154419
1403638128450097000,0.003303132951259613,0.025862326845526695,0.0771941989660263,8.99138355255127,-0.08969933539628983,-3.8926889896392822
1403638128455097000,-0.004359416663646698,0.02238604798913002,0.07369726896286011,8.99144458770752,-0.05703788623213768,-3.9171948432922363
1403638128460097000,-0.009946487843990326,0.025883516296744347,0.07370541989803314,8.893254280090332,-0.007856634445488453,-3.9823832511901855
1403638128465097000,-0.009959958493709564,0.018192755058407784,0.0799710750579834,8.852411270141602,-0.08153800666332245,-4.006975173950195
1403638128470097000,-0.01344037801027298,0.020985206589102745,0.08276873826980591,8.860529899597168,-0.07334345579147339,-3.9987576007843018
1403638128475097000,-0.009279511868953705,0.014666477218270302,0.09532658755779266,8.811417579650879,-0.22874727845191956,-3.933492660522461
1403638128480097000,-0.0023178085684776306,0.010458316653966904,0.09043766558170319,8.819628715515137,-0.302370548248291,-3.9172661304473877
1403638128485097000,0.0032718107104301453,0.01116766594350338,0.0869404524564743,8.90966510772705,-0.2615365982055664,-3.8846678733825684
1403638128490097000,0.006068579852581024,0.011892598122358322,0.07786308228969574,8.926097869873047,-0.163448765873909,-3.9500396251678467
1403638128495097000,0.007472537457942963,0.007720554247498512,0.08063749969005585,8.991598129272461,-0.13090647757053375,-3.9664711952209473
1403638128500097000,0.007482446730136871,0.01753692701458931,0.08483447134494781,9.007831573486328,0.032670505344867706,-3.9989945888519287
1403638128505097000,0.0032969340682029724,0.01963573694229126,0.09111987054347992,8.966903686523438,0.04906449839472771,-3.9989280700683594
1403638128510097000,-0.002965204417705536,0.027312826365232468,0.08416447043418884,8.974993705749512,0.08190688490867615,-3.974290132522583
1403638128515097000,-0.00786937028169632,0.022421639412641525,0.08276326954364777,8.83612060546875,0.057509277015924454,-3.933415412902832
1403638128520097000,-0.007151715457439423,0.02519700676202774,0.07370129227638245,8.942346572875977,0.016626767814159393,-3.9416165351867676
1403638128525097000,-0.009257353842258453,0.018895840272307396,0.06880992650985718,8.88521957397461,-0.06507392227649689,-3.8763270378112793
1403638128530097000,-0.008539609611034393,0.014696124941110611,0.0660092830657959,9.024247169494629,-0.12249338626861572,-3.9091532230377197
1403638128535097000,-0.005769498646259308,0.013290675356984138,0.07089133560657501,8.950640678405762,-0.1551714837551117,-3.91729998588562
1403638128540097000,-0.004359744489192963,0.019572369754314423,0.06950697302818298,9.015966415405273,-0.1306515783071518,-3.9580941200256348
1403638128545097000,-0.0029807016253471375,0.02305447682738304,0.07440242171287537,8.934148788452148,-0.14687186479568481,-3.900830030441284
1403638128550097000,-0.0071431174874305725,0.0216675978153944,0.07160523533821106,9.0241060256958,-0.12248053401708603,-3.949883222579956
1403638128555097000,-0.004386626183986664,0.020958203822374344,0.07509766519069672,8.860544204711914,-0.15505465865135193,-3.966148614883423
1403638128560097000,0.0005114302039146423,0.018886810168623924,0.07578033208847046,8.983269691467285,-0.09799385070800781,-3.966268539428711
1403638128565097000,0.001883096992969513,0.02235410362482071,0.07649555802345276,8.860553741455078,-0.1550077199935913,-3.900824785232544
1403638128570097000,-0.0022736117243766785,0.01749817281961441,0.08066073060035706,8.999653816223145,-0.08986296504735947,-3.9009451866149902
1403638128575097000,0.0004930272698402405,0.020292581990361214,0.077879399061203,8.86882209777832,-0.06513583660125732,-3.8845067024230957
1403638128580097000,-0.00019422918558120728,0.01612410694360733,0.0785614550113678,8.934313774108887,-0.02440381608903408,-3.9009335041046143
1403638128585097000,-0.0064762309193611145,0.016091179102659225,0.07927015423774719,8.876999855041504,-0.12241481989622116,-3.8926925659179688
1403638128590097000,-0.00017613917589187622,0.010538158938288689,0.08621779084205627,9.056979179382324,-0.057368721812963486,-3.9255828857421875
1403638128595097000,-0.0008855536580085754,0.018172612413764,0.08694551885128021,8.983210563659668,-0.1634378880262375,-3.9254252910614014
1403638128600097000,0.0026125386357307434,0.022368986159563065,0.08904175460338593,9.040393829345703,-0.12260269373655319,-3.9662532806396484
1403638128605097000,0.0011995062232017517,0.02864982560276985,0.08139052987098694,8.90137004852295,-0.09776735305786133,-3.8925857543945312
1403638128610097000,-0.00018566101789474487,0.023791329935193062,0.07718591392040253,8.950525283813477,-0.024313421919941902,-3.9498374462127686
1403638128615097000,-0.0022872760891914368,0.027284380048513412,0.07370635867118835,8.8687162399292,0.008532905951142311,-3.9742236137390137
1403638128620097000,-0.004377491772174835,0.02449764870107174,0.07858310639858246,8.87692642211914,0.008468505926430225,-3.9660942554473877
1403638128625097000,-0.0064801499247550964,0.02101181447505951,0.07438924908638,8.819781303405762,0.016692116856575012,-3.9334218502044678
1403638128630097000,-0.009256727993488312,0.016797229647636414,0.07578083872795105,8.901512145996094,-0.08973044157028198,-3.95803165435791
1403638128635097000,-0.012038789689540863,0.01746959798038006,0.06462602317333221,8.942403793334961,-0.16324585676193237,-3.925384283065796
1403638128640097000,-0.011361680924892426,0.010509733110666275,0.06460791826248169,8.844429016113281,-0.12234677374362946,-3.868231773376465
1403638128645097000,-0.01275508850812912,0.0063048601150512695,0.06739369034767151,8.877127647399902,-0.19604574143886566,-3.8928110599517822
1403638128650097000,-0.012740112841129303,0.0014231428503990173,0.07435648143291473,8.975284576416016,-0.21266134083271027,-3.9419472217559814
1403638128655097000,-0.008562721312046051,0.009069779887795448,0.07996012270450592,8.975132942199707,-0.2861349880695343,-3.909175395965576
1403638128660097000,-0.002307482063770294,0.010468479245901108,0.08833606541156769,8.885132789611816,-0.26968514919281006,-3.8601083755493164
1403638128665097000,-0.0022923722863197327,0.011894671246409416,0.08693359792232513,8.934252738952637,-0.17165397107601166,-3.884634017944336
1403638128670097000,-0.004383794963359833,0.004915110766887665,0.09808085858821869,8.958799362182617,-0.20456229150295258,-3.917396306991577
1403638128675097000,-0.005745746195316315,0.006326884031295776,0.09876814484596252,9.114154815673828,-0.15569822490215302,-3.9419541358947754
1403638128680097000,-0.00996091216802597,0.004231058061122894,0.10505490005016327,8.950613021850586,-0.17186623811721802,-3.852010488510132
1403638128685097000,-0.010659851133823395,0.0007484443485736847,0.10504686832427979,8.950678825378418,-0.16372600197792053,-3.827552080154419
1403638128690097000,-0.01694958657026291,-0.007631303742527962,0.11201675236225128,8.87708568572998,-0.20468546450138092,-3.8765852451324463
1403638128695097000,-0.0162472203373909,-0.01877785287797451,0.11477541923522949,8.950862884521484,-0.18858930468559265,-3.8523037433624268
1403638128700097000,-0.011379025876522064,-0.018778229132294655,0.11826440691947937,8.909965515136719,-0.18037503957748413,-3.8359687328338623
1403638128705097000,-0.011331893503665924,-0.012468436732888222,0.11894778907299042,9.114354133605957,-0.08252861350774765,-3.9503872394561768
1403638128710097000,-0.005075670778751373,-0.003414701670408249,0.11270067095756531,8.999788284301758,-0.0985540971159935,-3.9583897590637207
1403638128715097000,-0.002942599356174469,0.0028897468000650406,0.10293041169643402,9.17961597442627,-0.0005574747920036316,-4.031895160675049
1403638128720097000,-0.0008947029709815979,0.012684661895036697,0.09598560631275177,8.942481994628906,0.11437126994132996,-4.03982400894165
1403638128725097000,-0.007169283926486969,0.014133160002529621,0.09319163858890533,8.98334789276123,0.28601670265197754,-4.113312721252441
1403638128730097000,-0.011369593441486359,0.01688866689801216,0.09390527009963989,8.819814682006836,0.20453104376792908,-4.088658332824707
1403638128735097000,-0.013442762196063995,0.017582900822162628,0.08344022929668427,8.901556968688965,0.196339413523674,-4.0641655921936035
1403638128740097000,-0.019723571836948395,0.016857346519827843,0.07716672122478485,8.819845199584961,0.12289854884147644,-3.9905879497528076
1403638128745097000,-0.025298215448856354,0.004987342283129692,0.06597699224948883,8.852700233459473,0.06554888933897018,-3.99074387550354
1403638128750097000,-0.02949909120798111,0.0014507025480270386,0.06458926200866699,8.754557609558105,-0.08967867493629456,-3.9335434436798096
1403638128755097000,-0.03085576742887497,-0.004845043644309044,0.06807081401348114,8.983531951904297,-0.21267272531986237,-3.9338197708129883
1403638128760097000,-0.028086505830287933,0.002103157341480255,0.07227975130081177,8.9097900390625,-0.2778928279876709,-3.8928186893463135
1403638128765097000,-0.018317721784114838,0.004190821200609207,0.0736735612154007,8.983380317687988,-0.28617361187934875,-3.9255595207214355
1403638128770097000,-0.007143758237361908,0.018835844472050667,0.07858243584632874,9.073102951049805,-0.26985087990760803,-4.031632423400879
1403638128775097000,0.0026088282465934753,0.032098811119794846,0.07791416347026825,8.99932861328125,-0.2124014049768448,-4.080477714538574
1403638128780097000,0.010253407061100006,0.0376916266977787,0.07583792507648468,8.827508926391602,-0.16314363479614258,-4.129395961761475
1403638128785097000,0.009535454213619232,0.033570729196071625,0.07092547416687012,8.721406936645508,0.05776424705982208,-4.080303192138672
1403638128790097000,-0.0009326264262199402,0.02665630355477333,0.06461268663406372,8.7379789352417,0.26207178831100464,-4.0802741050720215
1403638128795097000,-0.013454876840114594,0.023166030645370483,0.06740213930606842,8.836115837097168,0.24556855857372284,-4.0640130043029785
1403638128800097000,-0.024594314396381378,0.02380833961069584,0.059043917804956436,8.819753646850586,0.09037166833877563,-3.9986352920532227
1403638128805097000,-0.03715064376592636,0.006338100880384445,0.05622832849621773,8.795454025268555,-0.0732511654496193,-3.8926539421081543
1403638128810097000,-0.039247848093509674,-0.000688403844833374,0.059721533209085464,8.84444808959961,-0.2859351336956024,-3.868284225463867
1403638128815097000,-0.03019406646490097,-0.0028343331068754196,0.06810204684734344,8.917941093444824,-0.4742792546749115,-3.9419162273406982
1403638128820097000,-0.02390698343515396,0.0006566327065229416,0.07089182734489441,8.991534233093262,-0.4579337537288666,-3.9255824089050293
1403638128825097000,-0.023921184241771698,-0.0014396030455827713,0.07996061444282532,8.942413330078125,-0.4742353856563568,-3.85199236869812
1403638128830097000,-0.018333159387111664,0.0006610024720430374,0.0918145477771759,9.024157524108887,-0.44977936148643494,-3.8111369609832764
1403638128835097000,-0.012748755514621735,0.010418402031064034,0.11485590040683746,9.081168174743652,-0.4908919334411621,-3.933558464050293
1403638128840097000,-0.007884882390499115,0.016707779839634895,0.12672922015190125,8.98286247253418,-0.43344056606292725,-3.851715087890625
1403638128845097000,-0.0009210333228111267,0.01255846582353115,0.14207077026367188,8.88475513458252,-0.32729196548461914,-3.9253838062286377
1403638128850097000,0.005358494818210602,0.01889161579310894,0.1469450443983078,8.884783744812012,-0.13919302821159363,-3.8845555782318115
1403638128855097000,0.01649167388677597,0.007753221318125725,0.14483407139778137,8.78691577911377,-0.08198077976703644,-3.9501640796661377
1403638128860097000,0.017270348966121674,0.010600775480270386,0.11688631772994995,9.228504180908203,0.11384197324514389,-4.162586688995361
1403638128865097000,0.010915778577327728,0.014156867749989033,0.09877428412437439,8.860870361328125,0.3269854485988617,-4.072566509246826
1403638128870097000,0.006728462874889374,0.015602946281433105,0.08202715218067169,8.967045783996582,0.49863556027412415,-4.170562744140625
1403638128875097000,0.0032538995146751404,0.02395150065422058,0.07088568806648254,8.942316055297852,0.4743568003177643,-4.170341491699219
1403638128880097000,-0.00022787600755691528,0.024625055491924286,0.04576242342591286,8.91779899597168,0.4500255584716797,-4.113039493560791
1403638128885097000,-0.014164350926876068,0.02248460054397583,0.024815205484628677,8.893131256103516,0.3847995698451996,-4.153756141662598
1403638128890097000,-0.0210946723818779,0.03012709692120552,0.01229080930352211,8.950406074523926,0.30317795276641846,-4.047609806060791
1403638128895097000,-0.026684589684009552,0.02724713645875454,0.007403228431940079,8.860556602478027,0.025387482717633247,-4.023189544677734
1403638128900097000,-0.024577192962169647,0.032103389501571655,0.007432837039232254,8.934141159057617,-0.08901335299015045,-3.9579341411590576
1403638128905097000,-0.01346481591463089,0.028584381565451622,0.017201367765665054,8.778858184814453,-0.2197188138961792,-3.8272085189819336
1403638128910097000,-0.0029733404517173767,0.0188190545886755,0.024863693863153458,9.040684700012207,-0.2773452699184418,-3.7948906421661377
1403638128915097000,-0.004374049603939056,0.018134208396077156,0.022765357047319412,8.983466148376465,-0.23646175861358643,-3.786675453186035
1403638128920097000,-0.007806099951267242,0.022324228659272194,0.023478660732507706,9.212358474731445,-0.2121606022119522,-3.8521034717559814
1403638128925097000,-0.012715183198451996,0.03554092347621918,0.03746730461716652,9.081254959106445,-0.3182452321052551,-3.9089486598968506
1403638128930097000,-0.006483010947704315,0.03761819377541542,0.05212726071476936,8.884902954101562,-0.3753650486469269,-3.8842875957489014
1403638128935097000,-0.0009190067648887634,0.04180915281176567,0.06818754971027374,8.770217895507812,-0.3672785758972168,-3.957712173461914
1403638128940097000,0.0032655373215675354,0.04042751342058182,0.07795283198356628,8.753816604614258,-0.34291505813598633,-4.023102283477783
1403638128945097000,0.01373165100812912,0.038347277790308,0.08004121482372284,8.794695854187012,-0.3268400728702545,-4.1702799797058105
1403638128950097000,0.012350060045719147,0.039060767740011215,0.08213171362876892,8.843768119812012,-0.2777925729751587,-4.186609745025635
1403638128955097000,0.010231636464595795,0.0397782102227211,0.07934023439884186,8.655714988708496,-0.17931784689426422,-4.047630786895752
1403638128960097000,0.01162400096654892,0.022380374372005463,0.08835463225841522,8.737820625305176,-0.08147872239351273,-4.007019519805908
1403638128965097000,0.010941199958324432,0.015426427125930786,0.08693160116672516,8.86061954498291,-0.024452662095427513,-4.039827346801758
1403638128970097000,0.0005084052681922913,0.004290496930480003,0.08898989856243134,9.008016586303711,0.024286990985274315,-3.966501474380493
1403638128975097000,-0.006432928144931793,0.011301752179861069,0.07993577420711517,9.106123924255371,0.13871827721595764,-3.8929572105407715
1403638128980097000,-0.011321209371089935,0.010581886395812035,0.07506075501441956,9.032608985900879,0.06529778987169266,-3.8112404346466064
1403638128985097000,-0.014095000922679901,0.009174730628728867,0.06599009037017822,9.089841842651367,0.03261180222034454,-3.8439414501190186
1403638128990097000,-0.018980301916599274,0.016102075576782227,0.0625293105840683,9.048827171325684,-0.09792718291282654,-3.819274425506592
1403638128995097000,-0.013409353792667389,0.023066608235239983,0.0576644130051136,9.02425765991211,-0.11409395188093185,-3.77836275100708
1403638129000097000,-0.007206626236438751,0.023732604458928108,0.07024085521697998,8.615316390991211,-0.20350728929042816,-3.598318338394165
1403638129005097000,0.002521030604839325,-0.0006606932729482651,0.08413973450660706,8.541925430297852,-0.19569841027259827,-3.4760708808898926
1403638129010097000,0.01092422753572464,-0.00976916216313839,0.09456297755241394,8.967228889465332,-0.31899452209472656,-3.7052600383758545
1403638129015097000,0.017392314970493317,0.015340199694037437,0.08829112350940704,9.792742729187012,-0.19708117842674255,-4.080857276916504
1403638129020097000,0.013952367007732391,0.046730801463127136,0.07583290338516235,9.800042152404785,-0.09858958423137665,-4.276258945465088
1403638129025097000,0.0062675997614860535,0.0780881941318512,0.05431890860199928,9.660683631896973,-0.14682871103286743,-4.2269673347473145
1403638129030097000,0.006096161901950836,0.07111811637878418,0.034768689423799515,8.933637619018555,-0.23590558767318726,-3.949383020401001
1403638129035097000,0.010963641107082367,0.04184870421886444,0.008157137781381607,8.991195678710938,-0.13815079629421234,-4.039604663848877
1403638129040097000,0.0075102075934410095,0.03836200386285782,-0.014199938625097275,9.137984275817871,-0.056532178074121475,-4.325446605682373
1403638129045097000,-0.0008379295468330383,0.03282950073480606,-0.040744420140981674,9.244035720825195,0.15618866682052612,-4.317264080047607
1403638129050097000,-0.01827547699213028,0.031432539224624634,-0.05192193016409874,9.154387474060059,0.1399366855621338,-4.178576469421387
1403638129055097000,-0.02943062037229538,0.02305629849433899,-0.0624094121158123,9.09762954711914,0.04184631630778313,-3.990994453430176
1403638129060097000,-0.04059738665819168,0.014630207791924477,-0.07011476159095764,9.081436157226562,-0.16255754232406616,-3.9912562370300293
1403638129065097000,-0.04335876554250717,0.01107419840991497,-0.08407051861286163,9.261445999145508,-0.3997555673122406,-4.048876762390137
1403638129070097000,-0.04134175926446915,0.013851026073098183,-0.09456758201122284,8.999679565429688,-0.3912660479545593,-3.9505186080932617
1403638129075097000,-0.041306979954242706,0.005520256236195564,-0.08480285108089447,9.097928047180176,-0.3179704248905182,-3.9670026302337646
1403638129080097000,-0.04554004222154617,0.007603315636515617,-0.07365258038043976,8.90161418914795,-0.29346421360969543,-3.999363899230957
1403638129085097000,-0.047611676156520844,-0.003525851294398308,-0.06320248544216156,8.958977699279785,-0.24473632872104645,-4.048506736755371
1403638129090097000,-0.04690093547105789,0.0034366119652986526,-0.05480123683810234,9.024277687072754,-0.26119786500930786,-4.154682636260986
1403638129095097000,-0.04132506996393204,0.009004419669508934,-0.04220722243189812,9.024280548095703,-0.31027674674987793,-4.154603481292725
1403638129100097000,-0.02877817302942276,0.017387690022587776,-0.04009872302412987,9.015925407409668,-0.22832700610160828,-4.1380720138549805
1403638129105097000,-0.025974445044994354,0.02721248008310795,-0.03239930793642998,9.015729904174805,-0.015557453036308289,-4.105080604553223
1403638129110097000,-0.028761737048625946,0.027298588305711746,-0.029614727944135666,9.015632629394531,0.2705259919166565,-4.104875564575195
1403638129115097000,-0.038481347262859344,0.03221307322382927,-0.010031875222921371,9.129923820495605,0.3684660792350769,-4.162046909332275
1403638129120097000,-0.0482112392783165,0.04894357919692993,0.0025922395288944244,9.137847900390625,0.40129804611206055,-4.1781768798828125
1403638129125097000,-0.05514300614595413,0.05451888591051102,0.020774561911821365,9.154472351074219,0.33579981327056885,-4.014855861663818
1403638129130097000,-0.05512256175279617,0.06429468840360641,0.02220948413014412,9.162646293640137,0.39303624629974365,-3.941293478012085
1403638129135097000,-0.06000330299139023,0.06151112914085388,0.022204909473657608,9.14639663696289,0.40933260321617126,-3.924999475479126
1403638129140097000,-0.06342720240354538,0.07058306783437729,0.009003717452287674,9.342184066772461,0.5074483752250671,-4.006754398345947
1403638129145097000,-0.06760149449110031,0.08238883316516876,0.005541209131479263,9.30119514465332,0.40151247382164,-3.998380184173584
1403638129150097000,-0.06270533055067062,0.09347862005233765,0.0006819106638431549,9.39905834197998,0.1566484421491623,-4.022809982299805
1403638129155097000,-0.053682856261730194,0.10597459971904755,0.008377034217119217,9.358174324035645,-0.11278865486383438,-3.9899184703826904
1403638129160097000,-0.03144199401140213,0.11504890024662018,0.02931501343846321,9.129287719726562,-0.14534547924995422,-3.9242897033691406
1403638129165097000,-0.009189300239086151,0.11575286835432053,0.062091950327157974,8.998327255249023,-0.23541806638240814,-3.9241998195648193
1403638129170097000,0.008238844573497772,0.10811924934387207,0.09413786232471466,9.128945350646973,-0.16245947778224945,-3.9569931030273438
1403638129175097000,0.024236582219600677,0.1081916019320488,0.12762273848056793,8.908143043518066,-0.007280759513378143,-3.9244344234466553
1403638129180097000,0.038186050951480865,0.09982077032327652,0.1763862818479538,9.234965324401855,-0.032675761729478836,-4.022705554962158
1403638129185097000,0.06046100705862045,0.11999138444662094,0.21132582426071167,9.300129890441895,-0.22086304426193237,-4.047172546386719
1403638129190097000,0.0862317904829979,0.13046683371067047,0.2420213371515274,9.447121620178223,-0.11500825732946396,-4.120964527130127
1403638129195097000,0.10986653715372086,0.15001797676086426,0.2699986398220062,9.307710647583008,0.06474856287240982,-4.07211971282959
1403638129200097000,0.12307316809892654,0.16614384949207306,0.2958407402038574,9.446473121643066,0.39131152629852295,-4.06404972076416
1403638129205097000,0.1293257474899292,0.1843367964029312,0.32312893867492676,9.5116605758667,0.5711172223091125,-4.121365547180176
1403638129210097000,0.13280171155929565,0.20595835149288177,0.35667458176612854,9.650580406188965,0.6281778216362,-4.145651817321777
1403638129215097000,0.13346406817436218,0.23029887676239014,0.38119441270828247,9.454277038574219,0.562857985496521,-4.039073467254639
1403638129220097000,0.13067078590393066,0.23725426197052002,0.41120341420173645,9.544696807861328,0.5544973611831665,-3.973432779312134
1403638129225097000,0.13066807389259338,0.25328460335731506,0.4440632164478302,9.520301818847656,0.5710582137107849,-4.030738353729248
1403638129230097000,0.12860506772994995,0.26090988516807556,0.47683241963386536,9.643362998962402,0.472928911447525,-4.137116432189941
1403638129235097000,0.12791603803634644,0.2824309766292572,0.5131095051765442,9.63567066192627,0.34223419427871704,-4.136784553527832
1403638129240097000,0.1307128369808197,0.3046378493309021,0.548672616481781,9.644351959228516,0.18713994324207306,-4.152769088745117
1403638129245097000,0.13977190852165222,0.3240329921245575,0.580726683139801,9.6693696975708,-0.025028610602021217,-4.14412260055542
1403638129250097000,0.14674249291419983,0.3351408541202545,0.6120944619178772,9.759445190429688,-0.13906101882457733,-4.2339301109313965
1403638129255097000,0.15508466958999634,0.3630105257034302,0.6421196460723877,9.759354591369629,-0.024424990639090538,-4.3073039054870605
1403638129260097000,0.16129028797149658,0.382489949464798,0.6783477663993835,9.833234786987305,-0.007944180630147457,-4.298614025115967
1403638129265097000,0.16193407773971558,0.4103473424911499,0.6992537379264832,9.907163619995117,-0.007760107517242432,-4.306177616119385
1403638129270097000,0.15844175219535828,0.4304819405078888,0.7202278971672058,9.77670669555664,-0.04013044759631157,-4.24851131439209
1403638129275097000,0.15557774901390076,0.45556381344795227,0.7411249279975891,9.842720985412598,-0.015441504307091236,-4.21521520614624
1403638129280097000,0.15415045619010925,0.4763988256454468,0.7585904002189636,9.761536598205566,-0.0559852197766304,-4.124902248382568
1403638129285097000,0.1499347984790802,0.49315011501312256,0.7739512324333191,9.737275123596191,0.017790785059332848,-4.132813930511475
1403638129290097000,0.14362874627113342,0.5133334994316101,0.7921224236488342,9.647852897644043,0.02631332166492939,-4.075319766998291
1403638129295097000,0.13594084978103638,0.5398222208023071,0.7977808117866516,9.509477615356445,0.059587083756923676,-3.977060079574585
1403638129300097000,0.12550070881843567,0.5418517589569092,0.8041310906410217,9.288908004760742,0.019048698246479034,-3.8463709354400635
1403638129305097000,0.1157006248831749,0.5432956218719482,0.8034142851829529,9.305660247802734,0.0601230189204216,-3.780926465988159
1403638129310097000,0.10671965032815933,0.5409915447235107,0.8105408549308777,9.035555839538574,-0.18499919772148132,-3.691356658935547
1403638129315097000,0.1011289581656456,0.537429928779602,0.8182334899902344,9.109342575073242,-0.3241385519504547,-3.6914899349212646
1403638129320097000,0.09980975836515427,0.5371913313865662,0.8323953747749329,8.814322471618652,-0.5526800155639648,-3.5770368576049805
1403638129325097000,0.10611460357904434,0.5251538157463074,0.84087073802948,8.780867576599121,-0.7735037207603455,-3.5442306995391846
1403638129330097000,0.11316996067762375,0.5137516260147095,0.8459662199020386,8.542028427124023,-1.0188038349151611,-3.4455525875091553
1403638129335097000,0.11944027990102768,0.4941486120223999,0.843150794506073,8.63121509552002,-1.1580899953842163,-3.453563928604126
1403638129340097000,0.12640854716300964,0.4786609411239624,0.8410775661468506,8.638108253479004,-1.3382736444473267,-3.387962579727173
1403638129345097000,0.13120242953300476,0.4557195007801056,0.8367059230804443,8.998108863830566,-1.4283121824264526,-3.461967706680298
1403638129350097000,0.14164027571678162,0.44161757826805115,0.83314049243927,8.939787864685059,-1.5182193517684937,-3.3228909969329834
1403638129355097000,0.14786487817764282,0.4277465045452118,0.8287478089332581,9.03049087524414,-1.4032573699951172,-3.3148281574249268
1403638129360097000,0.14997771382331848,0.41372475028038025,0.8223896026611328,8.817455291748047,-1.3458383083343506,-3.2082154750823975
1403638129365097000,0.14784026145935059,0.38174259662628174,0.8102905750274658,8.85083293914795,-1.2310638427734375,-3.1592934131622314
1403638129370097000,0.14090508222579956,0.35608166456222534,0.7801898121833801,8.777581214904785,-1.1246179342269897,-3.1512398719787598
1403638129375097000,0.1339300572872162,0.3249356150627136,0.744442880153656,8.852248191833496,-0.9448052048683167,-3.1356396675109863
1403638129380097000,0.1173102930188179,0.29723823070526123,0.6977539658546448,8.73766803741455,-0.8797527551651001,-3.217609405517578
1403638129385097000,0.10200398415327072,0.2624768018722534,0.6509472727775574,8.590738296508789,-0.8141389489173889,-3.0957205295562744
1403638129390097000,0.09018050879240036,0.22494681179523468,0.6048454642295837,8.533516883850098,-0.8222724795341492,-3.03092885017395
1403638129395097000,0.07490978389978409,0.18185798823833466,0.5518144965171814,8.459503173828125,-0.9692407846450806,-3.0228748321533203
1403638129400097000,0.054023973643779755,0.12275000661611557,0.5035534501075745,8.484302520751953,-1.042964220046997,-2.9744670391082764
1403638129405097000,0.04079540818929672,0.08171867579221725,0.4581249952316284,8.492447853088379,-1.1492993831634521,-2.893171787261963
1403638129410097000,0.026179425418376923,0.04068513959646225,0.40997597575187683,8.500215530395508,-1.30534827709198,-2.925930976867676
1403638129415097000,0.013610675930976868,-0.005986431613564491,0.36180976033210754,8.4998140335083,-1.4620740413665771,-2.9506592750549316
1403638129420097000,0.005205325782299042,-0.04434596747159958,0.3157185912132263,8.475025177001953,-1.5945630073547363,-2.9346892833709717
1403638129425097000,0.010056771337985992,-0.08626054972410202,0.2821047902107239,8.556596755981445,-1.8428022861480713,-2.959900140762329
1403638129430097000,0.010719217360019684,-0.12255088984966278,0.22755372524261475,8.581636428833008,-1.9096601009368896,-2.8710856437683105
1403638129435097000,0.009986720979213715,-0.15884004533290863,0.1793643683195114,8.606552124023438,-1.861232042312622,-2.9536261558532715
1403638129440097000,0.010001890361309052,-0.18460673093795776,0.13602006435394287,8.68907642364502,-1.8033868074417114,-2.8646392822265625
1403638129445097000,0.012083180248737335,-0.21530917286872864,0.08499892055988312,8.575494766235352,-1.87852942943573,-2.8740131855010986
1403638129450097000,0.015598081052303314,-0.2535868287086487,0.02770950272679329,8.698295593261719,-1.738250732421875,-2.899338722229004
1403638129455097000,0.015581898391246796,-0.288431853055954,-0.007268916815519333,8.624847412109375,-1.6480932235717773,-2.891608953475952
1403638129460097000,0.006582252681255341,-0.3141803443431854,-0.058293964713811874,8.861058235168457,-1.5082452297210693,-3.0386886596679688
1403638129465097000,-0.0010921135544776917,-0.3330473005771637,-0.10166379809379578,8.893251419067383,-1.5085529088974,-3.046989679336548
1403638129470097000,-0.007429994642734528,-0.361024409532547,-0.14922954142093658,8.917184829711914,-1.5586386919021606,-3.1044466495513916
1403638129475097000,-0.010296083986759186,-0.3876190483570099,-0.1911567598581314,8.794479370117188,-1.551346778869629,-3.137216806411743
1403638129480097000,-0.019369162619113922,-0.41409653425216675,-0.23023460805416107,8.819134712219238,-1.4613409042358398,-3.227189540863037
1403638129485097000,-0.025702930986881256,-0.4385892152786255,-0.25745484232902527,8.647906303405762,-1.4620147943496704,-3.27632737159729
1403638129490097000,-0.024990566074848175,-0.4594216048717499,-0.2840318977832794,8.893106460571289,-1.4372069835662842,-3.383101463317871
1403638129495097000,-0.027145959436893463,-0.4748559296131134,-0.3141234815120697,8.87662124633789,-1.5281052589416504,-3.3917746543884277
1403638129500097000,-0.03120330721139908,-0.481037974357605,-0.3455439507961273,8.991764068603516,-1.428946852684021,-3.490297317504883
1403638129505097000,-0.0304703488945961,-0.4790179431438446,-0.38541293144226074,8.92623233795166,-1.494765281677246,-3.4499189853668213
1403638129510097000,-0.033129461109638214,-0.4816839098930359,-0.4134238660335541,9.131158828735352,-1.4201350212097168,-3.4916303157806396
1403638129515097000,-0.032350994646549225,-0.4726591110229492,-0.43520262837409973,9.262295722961426,-1.4445148706436157,-3.5739941596984863
1403638129520097000,-0.030166424810886383,-0.46769365668296814,-0.45279863476753235,9.508161544799805,-1.4111462831497192,-3.6321053504943848
1403638129525097000,-0.03156260401010513,-0.4538789391517639,-0.47033730149269104,9.466964721679688,-1.509961485862732,-3.6078250408172607
1403638129530097000,-0.03004256635904312,-0.4468591809272766,-0.48435941338539124,9.492158889770508,-1.4518014192581177,-3.6571662425994873
1403638129535097000,-0.022222615778446198,-0.44119927287101746,-0.4997364580631256,9.427103996276855,-1.3852779865264893,-3.673492908477783
1403638129540097000,-0.018580056726932526,-0.43547332286834717,-0.5116496682167053,9.52598762512207,-1.2776613235473633,-3.7147865295410156
1403638129545097000,-0.018347539007663727,-0.42830345034599304,-0.5248948931694031,9.559751510620117,-1.096009612083435,-3.7641124725341797
1403638129550097000,-0.020220018923282623,-0.42110952734947205,-0.5268566012382507,9.544374465942383,-0.873875081539154,-3.8048832416534424
1403638129555097000,-0.02283526211977005,-0.4084489345550537,-0.540785014629364,9.544955253601074,-0.7586456537246704,-3.821448564529419
1403638129560097000,-0.029625006020069122,-0.39850714802742004,-0.5427764654159546,9.61134147644043,-0.5536967515945435,-3.878937005996704
1403638129565097000,-0.03992921859025955,-0.37752801179885864,-0.5489310622215271,9.54653263092041,-0.42271390557289124,-3.919642448425293
1403638129570097000,-0.04612559825181961,-0.36006438732147217,-0.5494887232780457,9.4403715133667,-0.3410781919956207,-3.919161558151245
1403638129575097000,-0.058617956936359406,-0.33991560339927673,-0.5627824664115906,9.457100868225098,-0.3489096462726593,-3.9848687648773193
1403638129580097000,-0.07045284658670425,-0.32392433285713196,-0.5633894801139832,9.318146705627441,-0.3244185149669647,-4.008831977844238
1403638129585097000,-0.07540033012628555,-0.3107812702655792,-0.5599302053451538,9.342612266540527,-0.3898269832134247,-4.033452033996582
1403638129590097000,-0.07839284092187881,-0.29500728845596313,-0.5474082827568054,9.252039909362793,-0.5863627791404724,-4.033014297485352
1403638129595097000,-0.07847455888986588,-0.2783111333847046,-0.5354760885238647,9.284445762634277,-0.6194505095481873,-4.008360862731934
1403638129600097000,-0.07792536169290543,-0.27142101526260376,-0.5116623044013977,9.234848976135254,-0.677334725856781,-3.991406202316284
1403638129605097000,-0.07386884838342667,-0.2546934187412262,-0.48861899971961975,9.488443374633789,-0.7186881303787231,-4.065425395965576
1403638129610097000,-0.0684174969792366,-0.2365642935037613,-0.4556850492954254,9.537123680114746,-0.7110328674316406,-4.097487926483154
1403638129615097000,-0.06357524544000626,-0.19881676137447357,-0.43460604548454285,9.741678237915039,-0.6128987073898315,-4.20362663269043
1403638129620097000,-0.05256766825914383,-0.16610507667064667,-0.4030371308326721,9.568843841552734,-0.6458021998405457,-4.144941806793213
1403638129625097000,-0.04490334540605545,-0.14161427319049835,-0.3882526755332947,9.658689498901367,-0.5148608088493347,-4.185469150543213
1403638129630097000,-0.04218531399965286,-0.11434343457221985,-0.3608650267124176,9.469807624816895,-0.30236098170280457,-4.15142822265625
1403638129635097000,-0.04504070430994034,-0.08846528828144073,-0.3335148096084595,9.518390655517578,-0.08991801738739014,-4.216259479522705
1403638129640097000,-0.05283097177743912,-0.06127174198627472,-0.30903589725494385,9.435815811157227,0.008359931409358978,-4.272651672363281
1403638129645097000,-0.05847536772489548,-0.02985781617462635,-0.2837831676006317,9.508695602416992,0.1066281720995903,-4.215123653411865
1403638129650097000,-0.06348273903131485,0.000774359330534935,-0.25656256079673767,9.278813362121582,0.11526045203208923,-4.148550987243652
1403638129655097000,-0.06770359724760056,0.017473092302680016,-0.22861869633197784,9.319045066833496,0.05836305022239685,-4.148185729980469
1403638129660097000,-0.07054398208856583,0.037657320499420166,-0.19859032332897186,9.187658309936523,0.07503924518823624,-4.131016731262207
1403638129665097000,-0.07610698789358139,0.05574987083673477,-0.16572844982147217,9.252601623535156,-0.006402892060577869,-4.155201435089111
1403638129670097000,-0.07334139198064804,0.08287082612514496,-0.13494117558002472,9.105284690856934,-0.20209209620952606,-4.0891032218933105
1403638129675097000,-0.06633367389440536,0.09820571541786194,-0.10552634298801422,9.203218460083008,-0.29192498326301575,-4.1378679275512695
1403638129680097000,-0.05655734986066818,0.12190701067447662,-0.07051272690296173,9.154038429260254,-0.35714253783226013,-4.129130840301514
1403638129685097000,-0.04467248171567917,0.13866408169269562,-0.032036762684583664,9.227340698242188,-0.3735581934452057,-4.112356662750244
1403638129690097000,-0.03770466893911362,0.15609312057495117,-0.004064571112394333,9.202630996704102,-0.4715522825717926,-4.095573425292969
1403638129695097000,-0.024449042975902557,0.16726648807525635,0.02735765650868416,9.324846267700195,-0.48810872435569763,-4.0870819091796875
1403638129700097000,-0.015384890139102936,0.18748687207698822,0.04832952097058296,9.389811515808105,-0.4962102472782135,-4.004929542541504
1403638129705097000,-0.009120263159275055,0.19168119132518768,0.06995323300361633,9.405953407287598,-0.48007145524024963,-3.972074031829834
1403638129710097000,0.0006439611315727234,0.20843978226184845,0.08813351392745972,9.356473922729492,-0.33316725492477417,-3.9719297885894775
1403638129715097000,0.006196282804012299,0.21333517134189606,0.11046338081359863,9.274561882019043,-0.31695204973220825,-3.9473071098327637
1403638129720097000,0.010352946817874908,0.22031712532043457,0.1300210803747177,9.159979820251465,-0.35779571533203125,-3.9635329246520996
1403638129725097000,0.013116933405399323,0.2112674117088318,0.1488436758518219,9.07833194732666,-0.43146753311157227,-3.9799423217773438
1403638129730097000,0.020771585404872894,0.2015276700258255,0.16067400574684143,9.045625686645508,-0.34183645248413086,-3.9393250942230225
1403638129735097000,0.027023829519748688,0.1813174933195114,0.17249299585819244,8.98044490814209,-0.39925602078437805,-3.9477860927581787
1403638129740097000,0.029811717569828033,0.1631937026977539,0.17382733523845673,9.062414169311523,-0.38320979475975037,-3.9644079208374023
1403638129745097000,0.03187880665063858,0.13737989962100983,0.18075135350227356,9.021888732910156,-0.48966601490974426,-3.9238228797912598
1403638129750097000,0.0381476953625679,0.1199326366186142,0.17370828986167908,9.136642456054688,-0.49812400341033936,-3.9322926998138428
1403638129755097000,0.04022400826215744,0.09202192723751068,0.16526727378368378,9.128881454467773,-0.5310349464416504,-3.899989366531372
1403638129760097000,0.04162176698446274,0.06340056657791138,0.1533125638961792,9.325765609741211,-0.555925726890564,-3.8677234649658203
1403638129765097000,0.047182597219944,0.036178797483444214,0.14837120473384857,9.32626724243164,-0.6215961575508118,-3.884519577026367
1403638129770097000,0.04861042648553848,0.012464722618460655,0.14061757922172546,9.605008125305176,-0.5974996089935303,-3.917640447616577
1403638129775097000,0.04370860010385513,-0.011964960023760796,0.12663032114505768,9.499062538146973,-0.6466012597084045,-3.860778331756592
1403638129780097000,0.043720729649066925,-0.03635802119970322,0.11541049182415009,9.565017700195312,-0.5896494388580322,-3.861253261566162
1403638129785097000,0.03882860392332077,-0.06424915790557861,0.10002157092094421,9.434579849243164,-0.5816963911056519,-3.8617310523986816
1403638129790097000,0.038163743913173676,-0.08722768723964691,0.08322060108184814,9.52509593963623,-0.5166190266609192,-3.935746669769287
1403638129795097000,0.03744881600141525,-0.10537749528884888,0.06994295120239258,9.345441818237305,-0.5413268208503723,-3.9850358963012695
1403638129800097000,0.0416460856795311,-0.12769579887390137,0.05314302816987038,9.403169631958008,-0.5742778182029724,-4.050807952880859
1403638129805097000,0.044425226747989655,-0.1514444500207901,0.025872934609651566,9.288774490356445,-0.6315550804138184,-4.026566028594971
1403638129810097000,0.04862309247255325,-0.18419751524925232,0.00623403862118721,9.346259117126465,-0.623486340045929,-4.043320655822754
1403638129815097000,0.045841284096241,-0.20441146194934845,-0.009180467575788498,9.2643404006958,-0.5825619101524353,-4.002554416656494
1403638129820097000,0.050727762281894684,-0.22947140038013458,-0.018333908170461655,9.378954887390137,-0.5744185447692871,-4.027360916137695
1403638129825097000,0.050019316375255585,-0.24689452350139618,-0.021155398339033127,9.411625862121582,-0.6398874521255493,-4.011231422424316
1403638129830097000,0.047249190509319305,-0.2684203088283539,-0.02959522232413292,9.64076042175293,-0.6482015252113342,-4.068665504455566
1403638129835097000,0.05004792660474777,-0.27259567379951477,-0.03870010003447533,9.71450138092041,-0.6564749479293823,-4.134030342102051
1403638129840097000,0.04796943813562393,-0.27676230669021606,-0.04848773404955864,9.829005241394043,-0.7055819034576416,-4.158565044403076
1403638129845097000,0.04522173851728439,-0.2655957043170929,-0.05616609379649162,9.886347770690918,-0.6156542897224426,-4.207411766052246
1403638129850097000,0.051484785974025726,-0.2642180919647217,-0.058265622705221176,9.878156661987305,-0.6319228410720825,-4.20737886428833
1403638129855097000,0.05010775476694107,-0.25519147515296936,-0.06523843109607697,9.796489715576172,-0.5828871726989746,-4.239925861358643
1403638129860097000,0.053592197597026825,-0.25240612030029297,-0.06314526498317719,9.804759979248047,-0.5747255086898804,-4.264394283294678
1403638129865097000,0.052210353314876556,-0.2503080368041992,-0.06315146386623383,9.788484573364258,-0.5093613862991333,-4.296996593475342
1403638129870097000,0.051524676382541656,-0.24959470331668854,-0.062459636479616165,9.829455375671387,-0.47671812772750854,-4.329638481140137
1403638129875097000,0.057124294340610504,-0.23842011392116547,-0.06455162167549133,9.952125549316406,-0.39488857984542847,-4.386580467224121
1403638129880097000,0.05018649250268936,-0.23351682722568512,-0.06873983144760132,9.99298095703125,-0.2559676170349121,-4.427280902862549
1403638129885097000,0.043946705758571625,-0.21888156235218048,-0.07080058753490448,10.042019844055176,-0.16607345640659332,-4.4842376708984375
1403638129890097000,0.04465679079294205,-0.20427492260932922,-0.07215489447116852,10.058375358581543,-0.21503938734531403,-4.508570194244385
1403638129895097000,0.038420550525188446,-0.18616585433483124,-0.08395779132843018,10.123576164245605,-0.17397500574588776,-4.508435249328613
1403638129900097000,0.03284610062837601,-0.16807590425014496,-0.08599193394184113,10.049844741821289,-0.20652393996715546,-4.491973876953125
1403638129905097000,0.030774004757404327,-0.15134772658348083,-0.08663319051265717,10.106834411621094,-0.16547845304012299,-4.491803169250488
1403638129910097000,0.025895453989505768,-0.13533946871757507,-0.0900769829750061,10.057623863220215,-0.18171779811382294,-4.52426290512085
1403638129915097000,0.028694219887256622,-0.1137344092130661,-0.08931154012680054,10.106289863586426,-0.12424233555793762,-4.564688682556152
1403638129920097000,0.024461917579174042,-0.09633639454841614,-0.08507673442363739,9.90982723236084,-0.22212709486484528,-4.499267101287842
1403638129925097000,0.02797124534845352,-0.07403283566236496,-0.08360011875629425,10.02394962310791,-0.2136465460062027,-4.499019622802734
1403638129930097000,0.027210555970668793,-0.05033180117607117,-0.07097059488296509,9.835380554199219,-0.24602410197257996,-4.425197601318359
1403638129935097000,0.03140465170145035,-0.030086757615208626,-0.04577484354376793,9.90032958984375,-0.1887056976556778,-4.449219226837158
1403638129940097000,0.03418537229299545,0.0005837846547365189,-0.02962109073996544,9.916219711303711,-0.24559426307678223,-4.391733646392822
1403638129945097000,0.03283662348985672,0.029873674735426903,-0.017652194947004318,10.070934295654297,-0.2125770002603531,-4.334211349487305
1403638129950097000,0.03490466624498367,0.06263799965381622,0.0068515874445438385,10.04589557647705,-0.2858712673187256,-4.284750461578369
1403638129955097000,0.04118860512971878,0.09819848090410233,0.02925819531083107,10.102385520935059,-0.2856673300266266,-4.341341972351074
1403638129960097000,0.043225936591625214,0.1372750848531723,0.05933128669857979,9.921645164489746,-0.28535962104797363,-4.324455261230469
1403638129965097000,0.04809912294149399,0.1693544238805771,0.09077450633049011,9.95363712310791,-0.29351481795310974,-4.34847354888916
1403638129970097000,0.05432046204805374,0.19588899612426758,0.12291876971721649,9.748506546020508,-0.22805385291576385,-4.356329441070557
1403638129975097000,0.061276547610759735,0.21542240679264069,0.14946894347667694,9.723470687866211,-0.2117409110069275,-4.429627895355225
1403638129980097000,0.06263811141252518,0.23984524607658386,0.1774468719959259,9.567607879638672,-0.1462797075510025,-4.413046360015869
1403638129985097000,0.0647231861948967,0.2489398568868637,0.20468172430992126,9.542675971984863,-0.0401502326130867,-4.453829288482666
1403638129990097000,0.06817267090082169,0.2691534459590912,0.23684148490428925,9.444528579711914,-0.06468591839075089,-4.429211139678955
1403638129995097000,0.07234816998243332,0.281010240316391,0.25988686084747314,9.509650230407715,0.0005398780340328813,-4.46998405456543
1403638130000097000,0.06815852969884872,0.2977386713027954,0.27876296639442444,9.558572769165039,0.024851620197296143,-4.420670032501221
1403638130005097000,0.07163745909929276,0.31583747267723083,0.2948373258113861,9.664826393127441,-0.00800536759197712,-4.420394420623779
1403638130010097000,0.06815492361783981,0.34439143538475037,0.3004840016365051,9.738146781921387,-0.008051221258938313,-4.38713264465332
1403638130015097000,0.07022757083177567,0.36738020181655884,0.3068143427371979,9.737972259521484,0.03273745998740196,-4.3377156257629395
1403638130020097000,0.06325716525316238,0.38899803161621094,0.2992049753665924,9.704728126525879,0.14712457358837128,-4.255429744720459
1403638130025097000,0.05278361588716507,0.40224358439445496,0.3062508702278137,9.549772262573242,0.0820288211107254,-4.173617839813232
1403638130030097000,0.04650299996137619,0.41130882501602173,0.3042013645172119,9.459809303283691,0.08220215886831284,-4.1244425773620605
1403638130035097000,0.042988307774066925,0.4120030105113983,0.3126329779624939,9.207231521606445,-0.08880584686994553,-4.059330940246582
1403638130040097000,0.04577112942934036,0.4064285159111023,0.322422057390213,9.101593017578125,-0.2191888689994812,-4.051338195800781
1403638130045097000,0.04577326029539108,0.38413774967193604,0.3328728973865509,8.995983123779297,-0.3334099352359772,-4.002640247344971
1403638130050097000,0.050652943551540375,0.36949092149734497,0.33072414994239807,9.086143493652344,-0.4071119725704193,-3.9946389198303223
1403638130055097000,0.05901315063238144,0.3520444631576538,0.3348903954029083,9.029377937316895,-0.578510046005249,-3.9375340938568115
1403638130060097000,0.06946127861738205,0.3422709107398987,0.3327163755893707,9.217489242553711,-0.6034339666366577,-3.986764907836914
1403638130065097000,0.08059249073266983,0.33666032552719116,0.33129292726516724,9.209380149841309,-0.701413094997406,-3.9295408725738525
1403638130070097000,0.08754833787679672,0.33386507630348206,0.3242744505405426,9.290960311889648,-0.6445260047912598,-3.954216718673706
1403638130075097000,0.09448780864477158,0.3338301181793213,0.3152008652687073,9.192648887634277,-0.6688597798347473,-3.839754343032837
1403638130080097000,0.10282591730356216,0.3352043926715851,0.2998117208480835,9.257816314697266,-0.620002806186676,-3.8152964115142822
1403638130085097000,0.10769426077604294,0.326828271150589,0.28935500979423523,9.077592849731445,-0.6279579997062683,-3.766309976577759
1403638130090097000,0.11325318366289139,0.31567680835723877,0.2718771994113922,9.00367259979248,-0.5382065176963806,-3.7257184982299805
1403638130095097000,0.10978180915117264,0.3038344383239746,0.25792521238327026,8.8562650680542,-0.5706176161766052,-3.7093887329101562
1403638130100097000,0.11465317755937576,0.27456021308898926,0.24177898466587067,8.89722728729248,-0.5871591567993164,-3.7097771167755127
1403638130105097000,0.11188382655382156,0.25017088651657104,0.22290398180484772,8.741754531860352,-0.6523293256759644,-3.6935746669769287
1403638130110097000,0.11188017576932907,0.22019614279270172,0.21023662388324738,8.864847183227539,-0.677075982093811,-3.685826301574707
1403638130115097000,0.1111866906285286,0.19160157442092896,0.20040127635002136,8.78321361541748,-0.7669236660003662,-3.628812074661255
1403638130120097000,0.11327553540468216,0.16021572053432465,0.19051559269428253,9.004743576049805,-0.7918554544448853,-3.678377389907837
1403638130125097000,0.12023099511861801,0.14345483481884003,0.17929686605930328,8.980405807495117,-0.8163361549377441,-3.6050679683685303
1403638130130097000,0.1216326579451561,0.11905840039253235,0.16178397834300995,9.0792875289917,-0.7348464131355286,-3.5975024700164795
1403638130135097000,0.12233851104974747,0.10094904899597168,0.14221611618995667,9.038846969604492,-0.6532564759254456,-3.6143088340759277
1403638130140097000,0.12025707215070724,0.08141962438821793,0.12333734333515167,9.055728912353516,-0.6450933218002319,-3.598289728164673
1403638130145097000,0.10982915014028549,0.07446973770856857,0.10031343996524811,9.072456359863281,-0.571465253829956,-3.5902774333953857
1403638130150097000,0.10913381725549698,0.06326339393854141,0.07378144562244415,9.113641738891602,-0.6693676710128784,-3.6230356693267822
1403638130155097000,0.11191249638795853,0.047899045050144196,0.05700676515698433,9.032083511352539,-0.7102376222610474,-3.623224973678589
1403638130160097000,0.11400476843118668,0.027642974629998207,0.03672221675515175,9.07340145111084,-0.7511559128761292,-3.6153175830841064
1403638130165097000,0.1154087707400322,0.01785552315413952,0.008785594254732132,9.171871185302734,-0.7593407034873962,-3.672668933868408
1403638130170097000,0.11889911442995071,0.009493006393313408,-0.006595786660909653,9.18846321105957,-0.6942084431648254,-3.7709059715270996
1403638130175097000,0.11890807002782822,0.006023900583386421,-0.02126183733344078,9.188515663146973,-0.6205748915672302,-3.7546122074127197
1403638130180097000,0.11612100154161453,-0.0044171009212732315,-0.032460760325193405,9.082199096679688,-0.5552433133125305,-3.7301642894744873
1403638130185097000,0.11336075514554977,-0.016232727095484734,-0.04156933352351189,9.172396659851074,-0.4490821957588196,-3.730348825454712
1403638130190097000,0.1070871576666832,-0.02459806017577648,-0.04927228018641472,9.090585708618164,-0.4409365653991699,-3.70584774017334
1403638130195097000,0.10711280256509781,-0.023190876469016075,-0.05903339013457298,9.237899780273438,-0.4081896245479584,-3.722264528274536
1403638130200097000,0.10571209341287613,-0.01973607949912548,-0.05902281031012535,9.237849235534668,-0.489820659160614,-3.7140471935272217
1403638130205097000,0.1057252511382103,-0.012054091319441795,-0.061090316623449326,9.319602966308594,-0.4652099013328552,-3.722179412841797
1403638130210097000,0.10151847451925278,-0.0120741818100214,-0.05411746725440025,9.180458068847656,-0.5224369764328003,-3.713911533355713
1403638130215097000,0.10014525800943375,-0.008578484877943993,-0.04503099247813225,9.31960391998291,-0.5143091082572937,-3.746655225753784
1403638130220097000,0.10220984369516373,0.006038697436451912,-0.017775367945432663,9.286747932434082,-0.6123698353767395,-3.754639148712158
1403638130225097000,0.1070854440331459,0.01856677420437336,0.005278009921312332,9.417569160461426,-0.7022745609283447,-3.7871713638305664
1403638130230097000,0.11471370607614517,0.02761351503431797,0.029014695435762405,9.278237342834473,-0.7758778929710388,-3.762491464614868
1403638130235097000,0.1258605420589447,0.0443623811006546,0.049968171864748,9.38443374633789,-0.7351033091545105,-3.819589138031006
1403638130240097000,0.13350853323936462,0.06321711838245392,0.06884622573852539,9.30220890045166,-0.6615452170372009,-3.7949211597442627
1403638130245097000,0.1363295316696167,0.0772184431552887,0.0828171968460083,9.514782905578613,-0.4820297956466675,-3.8765859603881836
1403638130250097000,0.139103502035141,0.1058533638715744,0.10659860074520111,9.424044609069824,-0.36767977476119995,-3.89260196685791
1403638130255097000,0.14119857549667358,0.13515976071357727,0.13384626805782318,9.546051979064941,-0.26983386278152466,-3.916682004928589
1403638130260097000,0.13491052389144897,0.16656021773815155,0.1506734937429428,9.422605514526367,-0.20436441898345947,-3.850834608078003
1403638130265097000,0.12587693333625793,0.19171340763568878,0.16607828438282013,9.479211807250977,-0.02474384941160679,-3.8666985034942627
1403638130270097000,0.11403226107358932,0.21264132857322693,0.18080122768878937,9.372385025024414,-0.016386108472943306,-3.866340398788452
1403638130275097000,0.10080819576978683,0.2279747575521469,0.1948021799325943,9.38026237487793,-0.05713857337832451,-3.8905038833618164
1403638130280097000,0.0896407887339592,0.2377295047044754,0.21789708733558655,9.175825119018555,-0.17125479876995087,-3.8086445331573486
1403638130285097000,0.0812772884964943,0.24190421402454376,0.23675668239593506,9.216915130615234,-0.25301089882850647,-3.7676148414611816
1403638130290097000,0.07847648113965988,0.24887119233608246,0.2605226933956146,9.159820556640625,-0.2938663363456726,-3.718498706817627
1403638130295097000,0.07706885784864426,0.2551208734512329,0.2891509532928467,9.209383010864258,-0.37567463517189026,-3.653028726577759
1403638130300097000,0.07636421173810959,0.2620590031147003,0.3094100058078766,9.21800708770752,-0.4980406165122986,-3.5956833362579346
1403638130305097000,0.07427554577589035,0.2648274600505829,0.3345398008823395,9.218467712402344,-0.5470228791236877,-3.5711681842803955
1403638130310097000,0.0715041235089302,0.2773454487323761,0.3604029417037964,9.177939414978027,-0.669175386428833,-3.5872790813446045
1403638130315097000,0.0784759595990181,0.29193076491355896,0.3855498135089874,9.137276649475098,-0.7668409943580627,-3.5707173347473145
1403638130320097000,0.08057645708322525,0.29885679483413696,0.4051140248775482,9.04741382598877,-0.8318495154380798,-3.5460152626037598
1403638130325097000,0.0945042297244072,0.29877620935440063,0.4190608561038971,8.924468040466309,-0.9050232172012329,-3.4722979068756104
1403638130330097000,0.10146670788526535,0.2938745617866516,0.4197332561016083,8.924307823181152,-0.9458630681037903,-3.4559226036071777
1403638130335097000,0.11329982429742813,0.28755128383636475,0.42384442687034607,8.997782707214355,-1.0438271760940552,-3.4150450229644775
1403638130340097000,0.12650570273399353,0.2854953706264496,0.42168620228767395,9.235301971435547,-0.970863938331604,-3.4645028114318848
1403638130345097000,0.1348550021648407,0.2882993817329407,0.42379239201545715,9.251616477966309,-0.8813722729682922,-3.5218405723571777
1403638130350097000,0.13693073391914368,0.29114219546318054,0.41752150654792786,9.325294494628906,-0.694169819355011,-3.57934308052063
1403638130355097000,0.13274577260017395,0.28345194458961487,0.4105946719646454,9.030349731445312,-0.6530349850654602,-3.497594118118286
1403638130360097000,0.1278688907623291,0.2667848765850067,0.39175066351890564,9.013741493225098,-0.5635308623313904,-3.5387096405029297
1403638130365097000,0.12019612640142441,0.2514951825141907,0.3645675778388977,8.775970458984375,-0.473534494638443,-3.4734649658203125
1403638130370097000,0.1125359907746315,0.22646687924861908,0.33869966864585876,8.77586841583252,-0.39207497239112854,-3.4820008277893066
1403638130375097000,0.09931432455778122,0.20699144899845123,0.3142862319946289,8.522067070007324,-0.407900333404541,-3.4166419506073
1403638130380097000,0.08818694204092026,0.18401141464710236,0.28910475969314575,8.563142776489258,-0.47314897179603577,-3.416752815246582
1403638130385097000,0.08331843465566635,0.15190169215202332,0.26112353801727295,8.407526969909668,-0.7584996819496155,-3.318312644958496
1403638130390097000,0.0798371359705925,0.12464594095945358,0.24076519906520844,8.554922103881836,-0.9708628058433533,-3.2610297203063965
1403638130395097000,0.0819597914814949,0.10430384427309036,0.22109375894069672,8.546236038208008,-1.3221535682678223,-3.1297457218170166
1403638130400097000,0.09313643723726273,0.08609402924776077,0.2055892050266266,8.824275016784668,-1.5185742378234863,-3.105419874191284
1403638130405097000,0.10709046572446823,0.07626733928918839,0.19780243933200836,8.889277458190918,-1.690812587738037,-3.0809075832366943
1403638130410097000,0.1238151416182518,0.07206163555383682,0.19214759767055511,9.060914039611816,-1.748048186302185,-3.0892536640167236
1403638130415097000,0.13771399855613708,0.07623854279518127,0.18797804415225983,9.020211219787598,-1.6495730876922607,-3.0649142265319824
1403638130420097000,0.14673995971679688,0.07486693561077118,0.1782398670911789,9.102697372436523,-1.4939465522766113,-3.0979809761047363
1403638130425097000,0.15575584769248962,0.07067690789699554,0.1684848964214325,8.914661407470703,-1.4289865493774414,-3.155327558517456
1403638130430097000,0.1599137783050537,0.06583037972450256,0.1496829092502594,8.94814395904541,-1.265701413154602,-3.270285129547119
1403638130435097000,0.15991416573524475,0.0644524097442627,0.12460404634475708,8.817598342895508,-1.175819993019104,-3.2951135635375977
1403638130440097000,0.16478466987609863,0.050548627972602844,0.09462076425552368,8.769352912902832,-1.0127235651016235,-3.4020965099334717
1403638130445097000,0.15993094444274902,0.037368737161159515,0.05487211421132088,8.688283920288086,-0.8085415959358215,-3.4680700302124023
1403638130450097000,0.15020433068275452,0.017191899940371513,0.02413031831383705,8.721601486206055,-0.6533457636833191,-3.525646686553955
1403638130455097000,0.14116960763931274,0.0032315608114004135,-0.019174065440893173,8.787294387817383,-0.6123456358909607,-3.558361291885376
1403638130460097000,0.12098332494497299,-0.017715299502015114,-0.05621495470404625,8.795583724975586,-0.6449787020683289,-3.54203200340271
1403638130465097000,0.10776341706514359,-0.03448262810707092,-0.09254574775695801,8.820151329040527,-0.7102493047714233,-3.4848625659942627
1403638130470097000,0.09246527403593063,-0.06097292900085449,-0.12262244522571564,8.82021427154541,-0.7185178995132446,-3.395202875137329
1403638130475097000,0.07300727814435959,-0.08741491287946701,-0.15617503225803375,8.951240539550781,-0.6942412257194519,-3.354860782623291
1403638130480097000,0.046574659645557404,-0.10484114289283752,-0.17854748666286469,9.147428512573242,-0.8006354570388794,-3.3553707599639893
1403638130485097000,0.03267454355955124,-0.10274316370487213,-0.2050432413816452,9.294410705566406,-0.8821690678596497,-3.322972059249878
1403638130490097000,0.02920224517583847,-0.09650301933288574,-0.22804327309131622,9.359640121459961,-0.9963752031326294,-3.32300066947937
1403638130495097000,0.03132425993680954,-0.08187385648488998,-0.2496344894170761,9.53943157196045,-1.1022350788116455,-3.3557374477386475
1403638130500097000,0.022893957793712616,-0.08403979241847992,-0.25864583253860474,9.081555366516113,-1.127063512802124,-3.289891004562378
1403638130505097000,0.013129569590091705,-0.09577437490224838,-0.2649632394313812,8.795930862426758,-0.8332738876342773,-3.3388469219207764
1403638130510097000,0.0047154054045677185,-0.1006312370300293,-0.2378244251012802,8.624123573303223,-0.7110590934753418,-3.411900043487549
1403638130515097000,0.002615131437778473,-0.10287179797887802,-0.21905262768268585,8.893791198730469,-0.9730872511863708,-3.5512821674346924
1403638130520097000,0.00815456360578537,-0.11005838215351105,-0.21973811089992523,8.738003730773926,-1.3094797134399414,-3.493896722793579
1403638130525097000,0.008878998458385468,-0.11818064749240875,-0.23996113240718842,8.566694259643555,-0.8668637275695801,-3.42830753326416
1403638130530097000,0.015171878039836884,-0.12914009392261505,-0.21347872912883759,8.452425956726074,-0.5399690270423889,-3.3707261085510254
1403638130535097000,0.004090957343578339,-0.12631617486476898,-0.19466380774974823,9.033526420593262,-0.5482023358345032,-3.551841974258423
1403638130540097000,-0.013369791209697723,-0.11039775609970093,-0.1911630481481552,9.049362182617188,-0.7768172025680542,-3.5598316192626953
1403638130545097000,-0.00849587470293045,-0.09082847833633423,-0.17085132002830505,9.024600982666016,-0.7353144288063049,-3.404229164123535
1403638130550097000,0.0019398853182792664,-0.07343026995658875,-0.14287032186985016,8.918051719665527,-0.8082362413406372,-3.23214054107666
1403638130555097000,-0.0014831200242042542,-0.06009945273399353,-0.13376735150814056,9.310880661010742,-0.6776754260063171,-3.363389492034912
1403638130560097000,-0.008425511419773102,-0.03423754870891571,-0.1232229620218277,9.458151817321777,-0.5142773389816284,-3.4859542846679688
1403638130565097000,-0.018883876502513885,-0.002149416133761406,-0.09938858449459076,9.457929611206055,-0.5056969523429871,-3.460913896560669
1403638130570097000,-0.024484790861606598,0.024343883618712425,-0.08673349022865295,9.302350044250488,-0.5703321099281311,-3.296881675720215
1403638130575097000,-0.03213951736688614,0.03760595619678497,-0.059480633586645126,9.392256736755371,-0.4889020323753357,-3.4519009590148926
1403638130580097000,-0.03769996017217636,0.071721151471138,-0.02450142428278923,9.530671119689941,-0.5948721170425415,-3.630769968032837
1403638130585097000,-0.03628452867269516,0.11424492299556732,0.0007211454212665558,9.570940971374512,-0.6025508642196655,-3.6135478019714355
1403638130590097000,-0.03419987112283707,0.1442466527223587,0.01615198329091072,9.374540328979492,-0.5041190385818481,-3.5069003105163574
1403638130595097000,-0.03419109433889389,0.1658804565668106,0.032952819019556046,9.243494987487793,-0.3815649747848511,-3.5475077629089355
1403638130600097000,-0.027928180992603302,0.18610046803951263,0.04347493126988411,9.079700469970703,-0.35683542490005493,-3.6371049880981445
1403638130605097000,-0.02375064045190811,0.20073266327381134,0.049795377999544144,9.038629531860352,-0.39743638038635254,-3.6123392581939697
1403638130610097000,-0.01886630803346634,0.21746192872524261,0.05264692381024361,8.932284355163574,-0.3726631700992584,-3.5223236083984375
1403638130615097000,-0.014691896736621857,0.21608690917491913,0.06518577039241791,8.981104850769043,-0.33215612173080444,-3.571369171142578
1403638130620097000,-0.011872969567775726,0.23074179887771606,0.07148917019367218,9.1605224609375,-0.21821995079517365,-3.6120996475219727
1403638130625097000,-0.009093709290027618,0.23980845510959625,0.0840664952993393,9.11952018737793,-0.19375604391098022,-3.5466232299804688
1403638130630097000,-0.007697202265262604,0.25097113847732544,0.09525614976882935,9.10304069519043,-0.12039060890674591,-3.456688404083252
1403638130635097000,-0.012610413134098053,0.2516670525074005,0.12177197635173798,8.947847366333008,-0.1773400753736496,-3.301414966583252
1403638130640097000,-0.016803346574306488,0.24818065762519836,0.13917560875415802,9.094971656799316,-0.21848177909851074,-3.3175525665283203
1403638130645097000,-0.01753530651330948,0.24886222183704376,0.16288626194000244,9.152316093444824,-0.3736027479171753,-3.292741060256958
1403638130650097000,-0.018925361335277557,0.2565251886844635,0.1789214164018631,9.381307601928711,-0.4067518711090088,-3.3251259326934814
1403638130655097000,-0.016866929829120636,0.2614075839519501,0.20615433156490326,9.332446098327637,-0.4231894612312317,-3.30061411857605
1403638130660097000,-0.007837869226932526,0.2753371000289917,0.23479105532169342,9.373549461364746,-0.5293877124786377,-3.324950695037842
1403638130665097000,-0.0022947117686271667,0.2808791399002075,0.2655474841594696,9.144933700561523,-0.7326481938362122,-3.2595651149749756
1403638130670097000,0.011624477803707123,0.28782227635383606,0.2983493506908417,9.145233154296875,-0.8144329190254211,-3.2922921180725098
1403638130675097000,0.030414961278438568,0.2947402000427246,0.33327487111091614,8.957194328308105,-0.8550401926040649,-3.2597615718841553
1403638130680097000,0.04503152519464493,0.29678064584732056,0.3674081265926361,9.064078330993652,-0.8391570448875427,-3.2600719928741455
1403638130685097000,0.06034476310014725,0.3050561547279358,0.3967571556568146,8.80212688446045,-0.8467403650283813,-3.1783950328826904
1403638130690097000,0.07215183228254318,0.308473140001297,0.4239344298839569,8.737038612365723,-0.7160285115242004,-3.0644843578338623
1403638130695097000,0.08328311890363693,0.31254827976226807,0.449737548828125,8.57343578338623,-0.7154014706611633,-2.9501919746398926
1403638130700097000,0.09024073928594589,0.3103920519351959,0.4740579426288605,8.737651824951172,-0.7401512861251831,-2.950364112854004
1403638130705097000,0.09512043744325638,0.31378865242004395,0.492876797914505,8.680344581604004,-0.813201904296875,-2.9175448417663574
1403638130710097000,0.1027754619717598,0.32073894143104553,0.5102476477622986,8.918188095092773,-0.8380123376846313,-2.950378894805908
1403638130715097000,0.11043190211057663,0.33530718088150024,0.5228368639945984,8.795464515686035,-0.8210006952285767,-2.8524363040924072
1403638130720097000,0.11321084946393967,0.3275989592075348,0.5353736877441406,8.738011360168457,-0.8212134838104248,-2.9011762142181396
1403638130725097000,0.11739694327116013,0.330313503742218,0.5451532006263733,8.63131046295166,-0.8780093193054199,-2.876411199569702
1403638130730097000,0.12298207730054855,0.31276026368141174,0.5562909841537476,8.417614936828613,-1.008527159690857,-2.8674581050872803
1403638130735097000,0.13270869851112366,0.29248228669166565,0.5659404397010803,8.43376350402832,-1.0495942831039429,-2.8510234355926514
1403638130740097000,0.13965877890586853,0.26950332522392273,0.5749335289001465,8.515484809875488,-1.034076452255249,-2.98149037361145
1403638130745097000,0.1521889865398407,0.2485577017068863,0.5707014203071594,8.392006874084473,-1.0914454460144043,-2.9810268878936768
1403638130750097000,0.1625857651233673,0.2248367965221405,0.5677852034568787,8.38373851776123,-1.0996274948120117,-2.899566411972046
1403638130755097000,0.17019668221473694,0.2067832350730896,0.5502897500991821,8.367779731750488,-0.9854764342308044,-2.8348331451416016
1403638130760097000,0.1680707037448883,0.18321748077869415,0.5321036577224731,8.532087326049805,-0.8636515140533447,-2.843846321105957
1403638130765097000,0.16388842463493347,0.17571310698986053,0.5063233971595764,8.761744499206543,-0.7094882130622864,-2.8854808807373047
1403638130770097000,0.15416234731674194,0.16811148822307587,0.4791467487812042,8.769868850708008,-0.7421999573707581,-2.8774518966674805
1403638130775097000,0.14306050539016724,0.16956937313079834,0.43874192237854004,8.728694915771484,-0.8153881430625916,-2.812166690826416
1403638130780097000,0.13472434878349304,0.15917672216892242,0.4018169939517975,8.556236267089844,-0.8805026412010193,-2.803802490234375
1403638130785097000,0.1312558948993683,0.14881950616836548,0.36346712708473206,8.646120071411133,-0.8401457071304321,-2.844892740249634
1403638130790097000,0.1250106394290924,0.13075046241283417,0.32718899846076965,8.514570236206055,-0.9380252957344055,-2.8936498165130615
1403638130795097000,0.11668428033590317,0.11826345324516296,0.2846158444881439,8.57180118560791,-0.9299623370170593,-2.926527261734009
1403638130800097000,0.11113282293081284,0.09876486659049988,0.2524869441986084,8.350544929504395,-1.0196545124053955,-2.91816782951355
1403638130805097000,0.10835786908864975,0.0869348794221878,0.22734369337558746,8.334243774414062,-1.0116488933563232,-2.9673402309417725
1403638130810097000,0.10209279507398605,0.07373997569084167,0.20989291369915009,8.04805850982666,-0.9708595871925354,-2.926513671875
1403638130815097000,0.10069244354963303,0.0598469004034996,0.18963046371936798,8.056724548339844,-0.8322343230247498,-2.967965841293335
1403638130820097000,0.09373251348733902,0.04591304808855057,0.1735554337501526,7.901500701904297,-0.8649868369102478,-2.9515886306762695
1403638130825097000,0.09165238589048386,0.03544282913208008,0.15189583599567413,8.00823974609375,-0.8404896259307861,-2.9683408737182617
1403638130830097000,0.08959048241376877,0.03473013639450073,0.13794119656085968,7.8448052406311035,-0.9301092028617859,-2.8701393604278564
1403638130835097000,0.09099728614091873,0.03191591799259186,0.13094519078731537,7.9022979736328125,-0.9626044631004333,-2.813122272491455
1403638130840097000,0.09240587800741196,0.03752505034208298,0.12817709147930145,7.747023105621338,-0.9379104971885681,-2.7477405071258545
1403638130845097000,0.0917077586054802,0.039624832570552826,0.13166454434394836,7.837023735046387,-0.8806105852127075,-2.7316031455993652
1403638130850097000,0.0910314992070198,0.052154816687107086,0.13449162244796753,7.763099193572998,-0.9621068835258484,-2.739351987838745
1403638130855097000,0.08894320577383041,0.05979020893573761,0.14217472076416016,7.885447978973389,-1.0110430717468262,-2.7799882888793945
1403638130860097000,0.09106098860502243,0.07232054322957993,0.14290940761566162,7.770778656005859,-1.0925589799880981,-2.7387919425964355
1403638130865097000,0.09801211208105087,0.07862430810928345,0.14780586957931519,7.8114519119262695,-1.0026946067810059,-2.779788017272949
1403638130870097000,0.10497695952653885,0.08143997937440872,0.15270011126995087,7.656033992767334,-0.9782643914222717,-2.738889217376709
1403638130875097000,0.10565244406461716,0.08357425779104233,0.15758675336837769,7.811572074890137,-0.8066751956939697,-2.739457607269287
1403638130880097000,0.09868329018354416,0.0926964059472084,0.15832936763763428,7.868834018707275,-0.6271519064903259,-2.805067777633667
1403638130885097000,0.08198565989732742,0.10597630590200424,0.1548967808485031,8.008112907409668,-0.47194159030914307,-2.82161021232605
1403638130890097000,0.05903980880975723,0.12340544909238815,0.1493903398513794,8.057336807250977,-0.4387093782424927,-2.7724437713623047
1403638130895097000,0.03468417376279831,0.14431874454021454,0.15296439826488495,8.06556510925293,-0.40545979142189026,-2.7476272583007812
1403638130900097000,0.00894445925951004,0.1735791116952896,0.14888326823711395,8.131128311157227,-0.4128517508506775,-2.7390406131744385
1403638130905097000,-0.015401490032672882,0.19654561579227448,0.14479145407676697,8.123276710510254,-0.5015645027160645,-2.6732826232910156
1403638130910097000,-0.04322405904531479,0.23273836076259613,0.1379421502351761,8.156285285949707,-0.6390510201454163,-2.6970527172088623
1403638130915097000,-0.05920957773923874,0.2584787607192993,0.1366262137889862,8.20571231842041,-0.7849202752113342,-2.6476950645446777
1403638130920097000,-0.06963121145963669,0.29468584060668945,0.1360592097043991,8.148609161376953,-0.8167601227760315,-2.6555228233337402
1403638130925097000,-0.07518532127141953,0.32183408737182617,0.14247772097587585,7.944591522216797,-0.8239039778709412,-2.557668924331665
1403638130930097000,-0.0800604596734047,0.3483043313026428,0.1432630866765976,7.912093162536621,-0.766312837600708,-2.5007336139678955
1403638130935097000,-0.09189363569021225,0.3628862202167511,0.1468798816204071,7.675562858581543,-0.8307820558547974,-2.4597928524017334
1403638130940097000,-0.10582985728979111,0.379594624042511,0.14274205267429352,7.716681480407715,-0.7981383204460144,-2.508629322052002
1403638130945097000,-0.10791238397359848,0.40113863348960876,0.14633285999298096,7.594614505767822,-0.8624885082244873,-2.3702919483184814
1403638130950097000,-0.11279187351465225,0.41438525915145874,0.1435416340827942,7.700901508331299,-0.7972326278686523,-2.362372398376465
1403638130955097000,-0.1142028346657753,0.43039387464523315,0.14780935645103455,7.570449352264404,-0.7640367746353149,-2.2648210525512695
1403638130960097000,-0.12256691604852676,0.4470999240875244,0.14575842022895813,7.587029457092285,-0.7231245040893555,-2.2486915588378906
1403638130965097000,-0.1281772255897522,0.45680785179138184,0.1590987890958786,7.41584587097168,-0.8202733397483826,-2.1427979469299316
1403638130970097000,-0.1323195993900299,0.46021923422813416,0.1534949094057083,7.53065299987793,-0.9916326999664307,-2.118617057800293
1403638130975097000,-0.12886184453964233,0.45800790190696716,0.15632078051567078,7.457172393798828,-1.253523349761963,-2.061441421508789
1403638130980097000,-0.12119431048631668,0.45313072204589844,0.16042321920394897,7.587642669677734,-1.343681812286377,-2.0211021900177
1403638130985097000,-0.1177954152226448,0.44752785563468933,0.16743731498718262,7.456972599029541,-1.417778730392456,-1.9151259660720825
1403638130990097000,-0.11081639677286148,0.4357373118400574,0.17221607267856598,7.587599754333496,-1.4505633115768433,-1.8748829364776611
1403638130995097000,-0.10044915229082108,0.4266686737537384,0.17846642434597015,7.57102108001709,-1.5660144090652466,-1.777215600013733
1403638131000097000,-0.09066606312990189,0.41839298605918884,0.187435582280159,7.701493740081787,-1.5576424598693848,-1.753046989440918
1403638131005097000,-0.0816655084490776,0.4177326261997223,0.19720639288425446,7.660430908203125,-1.566009283065796,-1.6713510751724243
1403638131010097000,-0.07602015882730484,0.4080575406551361,0.19785521924495697,7.701347351074219,-1.4590040445327759,-1.7038133144378662
1403638131015097000,-0.07256311923265457,0.394828736782074,0.19788260757923126,7.562448501586914,-1.4181737899780273,-1.6870231628417969
1403638131020097000,-0.06556142121553421,0.37050074338912964,0.19292667508125305,7.562631607055664,-1.369187355041504,-1.68696129322052
1403638131025097000,-0.06205142289400101,0.35236579179763794,0.1810312420129776,7.538076400756836,-1.3859549760818481,-1.7439061403274536
1403638131030097000,-0.0654369667172432,0.3287583589553833,0.16555607318878174,7.710230350494385,-1.2877025604248047,-1.80144464969635
1403638131035097000,-0.06608956307172775,0.3176513612270355,0.14670655131340027,7.678161144256592,-1.1568598747253418,-1.7770394086837769
1403638131040097000,-0.06606786698102951,0.29332226514816284,0.13061361014842987,7.6053009033203125,-1.0020499229431152,-1.7118414640426636
1403638131045097000,-0.07511305063962936,0.2724091112613678,0.11177395284175873,7.466855049133301,-0.8636837601661682,-1.7118340730667114
1403638131050097000,-0.08558829873800278,0.2417796403169632,0.09497857093811035,7.369907855987549,-0.8154934048652649,-1.6143677234649658
1403638131055097000,-0.09743600338697433,0.21599335968494415,0.06839969754219055,7.43596076965332,-0.8161007761955261,-1.6638118028640747
1403638131060097000,-0.10167283564805984,0.18947480618953705,0.0516560859978199,7.346839904785156,-1.0205975770950317,-1.7130224704742432
1403638131065097000,-0.10030467063188553,0.16856741905212402,0.020925063639879227,7.445821285247803,-1.1437379121780396,-1.7221312522888184
1403638131070097000,-0.1018468514084816,0.13720567524433136,0.0034789182245731354,7.406171798706055,-1.357684850692749,-1.7148094177246094
1403638131075097000,-0.09014604240655899,0.10862576961517334,-0.012583892792463303,7.407006740570068,-1.5474941730499268,-1.715640902519226
1403638131080097000,-0.07154067605733871,0.0723823681473732,-0.017524566501379013,7.358931064605713,-1.7299911975860596,-1.708032250404358
1403638131085097000,-0.05340214818716049,0.04169141501188278,-0.024674858897924423,7.546342849731445,-1.8211181163787842,-1.7661492824554443
1403638131090097000,-0.04092258960008621,0.011003060266375542,-0.028983261436223984,7.595727920532227,-1.896260380744934,-1.7750859260559082
1403638131095097000,-0.03310155123472214,-0.018996717408299446,-0.03410227224230766,7.790179252624512,-1.7975884675979614,-1.8484258651733398
1403638131100097000,-0.02687283605337143,-0.05036991089582443,-0.03981989249587059,7.733223915100098,-1.7492090463638306,-1.8240853548049927
1403638131105097000,-0.026079364120960236,-0.07964341342449188,-0.04910853132605553,7.87074613571167,-1.593417763710022,-1.8239284753799438
1403638131110097000,-0.026101090013980865,-0.10682867467403412,-0.06110503897070885,7.796933650970459,-1.495645523071289,-1.7830668687820435
1403638131115097000,-0.025324128568172455,-0.12566792964935303,-0.06824158132076263,7.92631196975708,-1.3648401498794556,-1.815164566040039
1403638131120097000,-0.03512566536664963,-0.15074945986270905,-0.07950550317764282,7.84447717666626,-1.2999354600906372,-1.7744818925857544
1403638131125097000,-0.035772405564785004,-0.1703251600265503,-0.09706071019172668,7.96597957611084,-1.2347849607467651,-1.8557345867156982
1403638131130097000,-0.040724001824855804,-0.19823859632015228,-0.11178116500377655,7.802612781524658,-1.235285997390747,-1.8559023141860962
1403638131135097000,-0.04491851478815079,-0.22271865606307983,-0.13070960342884064,7.941274642944336,-1.293127417564392,-1.9217435121536255
1403638131140097000,-0.044273532927036285,-0.24719642102718353,-0.15101268887519836,7.9083733558654785,-1.3263888359069824,-1.9628123044967651
1403638131145097000,-0.046335168182849884,-0.27232301235198975,-0.16227956116199493,8.119766235351562,-1.294189691543579,-2.084932565689087
1403638131150097000,-0.043585605919361115,-0.2911967635154724,-0.1853860765695572,8.217296600341797,-1.3274431228637695,-2.093578338623047
1403638131155097000,-0.042910076677799225,-0.3079685568809509,-0.2070588916540146,8.4125337600708,-1.3770524263381958,-2.1998965740203857
1403638131160097000,-0.04229290038347244,-0.3212788701057434,-0.22802315652370453,8.493858337402344,-1.4922868013381958,-2.2333192825317383
1403638131165097000,-0.03535041958093643,-0.33590033650398254,-0.24762998521327972,8.631972312927246,-1.5008426904678345,-2.241826295852661
1403638131170097000,-0.0318150594830513,-0.340717077255249,-0.2713273763656616,8.680614471435547,-1.3944004774093628,-2.249840021133423
1403638131175097000,-0.026156462728977203,-0.3496679365634918,-0.2866486608982086,8.762106895446777,-1.2470113039016724,-2.322828769683838
1403638131180097000,-0.03516180068254471,-0.3544880151748657,-0.3026215732097626,8.737899780273438,-1.1570912599563599,-2.3717846870422363
1403638131185097000,-0.04136268049478531,-0.35997438430786133,-0.31582146883010864,8.705596923828125,-1.0426424741744995,-2.3881149291992188
1403638131190097000,-0.04891753941774368,-0.36750683188438416,-0.3289891183376312,8.60002326965332,-0.8791278600692749,-2.4205398559570312
1403638131195097000,-0.058689601719379425,-0.3821556270122528,-0.3296646475791931,8.46961784362793,-0.8710218667984009,-2.469200849533081
1403638131200097000,-0.06904701143503189,-0.3889929950237274,-0.339383989572525,8.535579681396484,-0.748569667339325,-2.510286569595337
1403638131205097000,-0.07541225105524063,-0.40582162141799927,-0.34083476662635803,8.535463333129883,-0.8468417525291443,-2.543144702911377
1403638131210097000,-0.07402036339044571,-0.4141809344291687,-0.3541467487812042,8.706932067871094,-0.8796414136886597,-2.584721565246582
1403638131215097000,-0.0755019560456276,-0.41916993260383606,-0.35489264130592346,8.722922325134277,-0.9860960841178894,-2.609326124191284
1403638131220097000,-0.0692172423005104,-0.41982781887054443,-0.3535320460796356,8.869882583618164,-0.977799654006958,-2.6503448486328125
1403638131225097000,-0.06224045902490616,-0.4142410159111023,-0.3381574749946594,8.82903003692627,-0.9529932737350464,-2.682314395904541
1403638131230097000,-0.05378729850053787,-0.40228158235549927,-0.3297369182109833,8.902856826782227,-0.8462796807289124,-2.7310304641723633
1403638131235097000,-0.04545611888170242,-0.39885106682777405,-0.3199710547924042,8.829070091247559,-0.8869407176971436,-2.7712223529815674
1403638131240097000,-0.03983131796121597,-0.3855462968349457,-0.3073838949203491,8.943622589111328,-0.8211797475814819,-2.8445353507995605
1403638131245097000,-0.03568757325410843,-0.38488495349884033,-0.28785577416419983,8.84541130065918,-0.8292670845985413,-2.835758686065674
1403638131250097000,-0.02730635553598404,-0.36952805519104004,-0.27529922127723694,8.992344856262207,-0.812599778175354,-2.8847453594207764
1403638131255097000,-0.022443749010562897,-0.3514743447303772,-0.2529674470424652,8.918553352355957,-0.845014750957489,-2.9004127979278564
1403638131260097000,-0.015416570007801056,-0.3381078541278839,-0.23201124370098114,9.049615859985352,-0.6976562142372131,-2.908715009689331
1403638131265097000,-0.011228837072849274,-0.3214001953601837,-0.21036319434642792,8.951529502868652,-0.6729034781455994,-2.908190965652466
1403638131270097000,-0.009811706840991974,-0.3004647195339203,-0.18523816764354706,9.115086555480957,-0.6317826509475708,-2.9491522312164307
1403638131275097000,-0.008410491049289703,-0.2795817255973816,-0.17263884842395782,9.033369064331055,-0.6315104365348816,-2.9814023971557617
1403638131280097000,-0.00212753564119339,-0.26005518436431885,-0.1523851901292801,9.188798904418945,-0.6066889762878418,-3.071322202682495
1403638131285097000,0.0068999603390693665,-0.2315828949213028,-0.13420356810092926,9.033260345458984,-0.6961149573326111,-3.0869410037994385
1403638131290097000,0.01247958093881607,-0.2183249145746231,-0.12022469937801361,9.139681816101074,-0.6714580655097961,-3.111544370651245
1403638131295097000,0.01873777061700821,-0.20231893658638,-0.10553683340549469,9.139739036560059,-0.6876038908958435,-3.144029378890991
1403638131300097000,0.021551556885242462,-0.1910729855298996,-0.09084261953830719,9.27920150756836,-0.5243434309959412,-3.168915271759033
1403638131305097000,0.019462652504444122,-0.17707295715808868,-0.08172138035297394,9.189538955688477,-0.3855203688144684,-3.2259886264801025
1403638131310097000,0.02015095204114914,-0.16446301341056824,-0.060047175735235214,9.140762329101562,-0.24682150781154633,-3.2096734046936035
1403638131315097000,0.004819490015506744,-0.15113124251365662,-0.04952443763613701,9.067339897155762,-0.11622294783592224,-3.23404598236084
1403638131320097000,-0.009125061333179474,-0.1441044956445694,-0.03763238713145256,9.034758567810059,-0.034485090523958206,-3.331873655319214
1403638131325097000,-0.02514604479074478,-0.12525635957717896,-0.032682936638593674,9.075592041015625,-0.018007421866059303,-3.3562498092651367
1403638131330097000,-0.03910102695226669,-0.11415641009807587,-0.019372206181287766,9.042673110961914,-0.172933429479599,-3.3477063179016113
1403638131335097000,-0.0502738282084465,-0.09120834618806839,-0.01581486687064171,9.017814636230469,-0.3031761944293976,-3.31455135345459
1403638131340097000,-0.05378062278032303,-0.07172021269798279,-0.0025009028613567352,9.001280784606934,-0.36010128259658813,-3.2488348484039307
1403638131345097000,-0.05590587109327316,-0.04947027564048767,0.01150769367814064,8.968189239501953,-0.45767638087272644,-3.2564103603363037
1403638131350097000,-0.05872803181409836,-0.030014285817742348,0.03248687461018562,8.93503189086914,-0.587965726852417,-3.239400625228882
1403638131355097000,-0.05594473332166672,-0.0014556515961885452,0.050682324916124344,8.975553512573242,-0.6121069192886353,-3.206164598464966
1403638131360097000,-0.05458689481019974,0.01453179307281971,0.07443831861019135,8.885004043579102,-0.726111114025116,-3.2463250160217285
1403638131365097000,-0.0525088831782341,0.02777782268822193,0.09400232136249542,8.843826293945312,-0.7178385853767395,-3.262338161468506
1403638131370097000,-0.04906214028596878,0.028456883504986763,0.11704820394515991,8.647220611572266,-0.7667383551597595,-3.2375197410583496
1403638131375097000,-0.0469677671790123,0.029164673760533333,0.13169243931770325,8.745405197143555,-0.7342811226844788,-3.2212142944335938
1403638131380097000,-0.045596860349178314,0.027753135189414024,0.14287501573562622,8.589818954467773,-0.7912806868553162,-3.1719868183135986
1403638131385097000,-0.04280170053243637,0.025668254122138023,0.15820123255252838,8.778117179870605,-0.7590181231498718,-3.1721253395080566
1403638131390097000,-0.038627780973911285,0.02355591021478176,0.1637853980064392,8.720791816711426,-0.8242413997650146,-3.1148300170898438
1403638131395097000,-0.026756055653095245,0.02633783407509327,0.16515597701072693,8.933563232421875,-0.824528694152832,-3.1312897205352783
1403638131400097000,-0.02465248852968216,0.031218072399497032,0.1630670726299286,8.95819091796875,-0.8081057071685791,-3.0741047859191895
1403638131405097000,-0.026006333529949188,0.044486694037914276,0.15539763867855072,9.203690528869629,-0.7267266511917114,-3.1313107013702393
1403638131410097000,-0.026686839759349823,0.05635056644678116,0.13938292860984802,9.154454231262207,-0.7100038528442383,-3.1312406063079834
1403638131415097000,-0.03292635828256607,0.07170630991458893,0.1226688027381897,9.268735885620117,-0.6853512525558472,-3.2372844219207764
1403638131420097000,-0.034306712448596954,0.0849686786532402,0.10109557211399078,9.113387107849121,-0.6357187032699585,-3.163815498352051
1403638131425097000,-0.04473627358675003,0.08708200603723526,0.07878522574901581,9.154420852661133,-0.570339560508728,-3.204832077026367
1403638131430097000,-0.05099449306726456,0.0871022641658783,0.05229814723134041,9.081104278564453,-0.5129166841506958,-3.188772201538086
1403638131435097000,-0.06351897865533829,0.0878329947590828,0.03138254955410957,9.065010070800781,-0.39045098423957825,-3.238072395324707
1403638131440097000,-0.0760529413819313,0.08783566206693649,-0.010457631200551987,8.983623504638672,-0.39813077449798584,-3.2056236267089844
1403638131445097000,-0.08233139663934708,0.07739170640707016,-0.03910091146826744,8.959284782409668,-0.3736211359500885,-3.23044490814209
1403638131450097000,-0.09557349234819412,0.06766355782747269,-0.07474011182785034,8.894217491149902,-0.28388524055480957,-3.198174238204956
1403638131455097000,-0.10534361749887466,0.050264179706573486,-0.10273857414722443,8.861662864685059,-0.2269662767648697,-3.206712484359741
1403638131460097000,-0.11791861802339554,0.03840252757072449,-0.13700617849826813,8.69837474822998,-0.24320921301841736,-3.1332523822784424
1403638131465097000,-0.13327893614768982,0.018858978524804115,-0.15172119438648224,8.551445960998535,-0.30853620171546936,-3.067918300628662
1403638131470097000,-0.14234736561775208,0.004891915246844292,-0.15871547162532806,8.477952003479004,-0.40645310282707214,-2.986300230026245
1403638131475097000,-0.1500190794467926,-0.019558193162083626,-0.1531331092119217,8.404342651367188,-0.5942025780677795,-2.904710292816162
1403638131480097000,-0.15346568822860718,-0.03349682688713074,-0.14614298939704895,8.526949882507324,-0.7169140577316284,-2.847964286804199
1403638131485097000,-0.1478790044784546,-0.04822380840778351,-0.1279611885547638,8.534857749938965,-0.9538390040397644,-2.8479700088500977
1403638131490097000,-0.13809272646903992,-0.05731598287820816,-0.11329992115497589,8.616522789001465,-1.0766379833221436,-2.823647975921631
1403638131495097000,-0.12068826705217361,-0.0552794486284256,-0.07907503843307495,8.534823417663574,-1.1993311643600464,-2.806986093521118
1403638131500097000,-0.09491727501153946,-0.06088986247777939,-0.05399477109313011,8.526477813720703,-1.2406052350997925,-2.8149569034576416
1403638131505097000,-0.07612816244363785,-0.07137607783079147,-0.021951179951429367,8.501876831054688,-1.2739386558532715,-2.8148279190063477
1403638131510097000,-0.05662987381219864,-0.08252045512199402,-0.0038819722831249237,8.640583992004395,-1.1845180988311768,-2.912801504135132
1403638131515097000,-0.033654727041721344,-0.08810476958751678,0.0191025473177433,8.583429336547852,-1.1274728775024414,-2.8556203842163086
1403638131520097000,-0.01623626798391342,-0.09572522342205048,0.0358075387775898,8.788070678710938,-0.9399407505989075,-2.9213063716888428
1403638131525097000,-0.009989209473133087,-0.10055792331695557,0.051153261214494705,8.706442832946777,-0.8013050556182861,-2.913275957107544
1403638131530097000,-0.0016164407134056091,-0.10815498232841492,0.05950503423810005,8.83779525756836,-0.597734272480011,-2.9057278633117676
1403638131535097000,0.001163475215435028,-0.11230430006980896,0.06717334687709808,8.846121788024902,-0.5081853270530701,-2.9059441089630127
1403638131540097000,-0.0002090558409690857,-0.11154720187187195,0.07065822184085846,9.034391403198242,-0.37778282165527344,-3.0614771842956543
1403638131545097000,-0.005080081522464752,-0.10313750058412552,0.06998226046562195,9.00171184539795,-0.28798753023147583,-3.045161485671997
1403638131550097000,-0.012015007436275482,-0.0947129875421524,0.06232132390141487,9.091741561889648,-0.18181170523166656,-3.126981735229492
1403638131555097000,-0.016904838383197784,-0.09052672982215881,0.05327026918530464,8.927994728088379,-0.19773423671722412,-3.1266930103302
1403638131560097000,-0.020375482738018036,-0.09122515469789505,0.0442001111805439,8.944355010986328,-0.22211694717407227,-3.1430327892303467
1403638131565097000,-0.024568714201450348,-0.09888362884521484,0.031629759818315506,8.75616455078125,-0.23001863062381744,-3.1265006065368652
1403638131570097000,-0.023152343928813934,-0.11421531438827515,0.023917201906442642,8.838103294372559,-0.2465512752532959,-3.159487724304199
1403638131575097000,-0.021041326224803925,-0.1267969310283661,0.007138792425394058,8.85446834564209,-0.3363894820213318,-3.110623359680176
1403638131580097000,-0.02518581598997116,-0.1400362104177475,-0.004056122153997421,8.99365520477295,-0.36927151679992676,-3.119159698486328
