#timestamp [ns],w_RS_S_x [rad s^-1],w_RS_S_y [rad s^-1],w_RS_S_z [rad s^-1],a_RS_S_x [m s^-2],a_RS_S_y [m s^-2],a_RS_S_z [m s^-2]
1413393885975760500,0.050963614158234416,0.041887902047863905,0.06841690667817772,9.438900625,-0.4004382083333333,-2.729517583333333
1413393885980760500,0.05375614096142535,0.03630284844148206,0.07051130178057091,9.398039583333333,0.032688833333333334,-3.195333458333333
1413393885985760500,0.03839724354387525,0.04258603374866164,0.04677482395344803,9.561483749999999,0.2533384583333333,-3.015544875
1413393885990760500,0.028623399732707,0.047472955654245766,0.07120943348136866,9.283628666666665,0.269682875,-3.0890947499999997
1413393885995760500,0.0027925268031909274,0.06562437987498679,0.06213372137099814,9.610517,0.4985047083333333,-3.0400614999999998
1413393886000760500,-0.025132741228718346,0.03839724354387525,0.08377580409572781,9.161045541666667,0.7681875833333334,-3.2280222916666665
1413393886005760500,-0.05235987755982988,0.04817108735504349,0.08936085770210968,9.283628666666665,0.3350605416666666,-3.0809225416666663
1413393886010760500,-0.05585053606381855,0.03839724354387525,0.08098327729253688,9.054806833333332,-0.35140495833333335,-2.7867230416666664
1413393886015760500,-0.04049163864626844,0.009075712110370514,0.0747000919853573,9.259112041666667,-0.5720545833333333,-2.754034208333333
1413393886020760500,-0.013264502315156905,0.00767944870877505,0.08656833089891874,9.357178541666666,-0.6701210833333332,-2.7376897916666665
1413393886025760500,0.023038346126325153,0.010471975511965976,0.07819075048934597,9.520622708333333,-0.612915625,-2.9093061666666666
1413393886030760500,0.0439822971502571,0.032114058236695664,0.08307767239493008,9.586000375,-0.3759215833333333,-2.941995
1413393886035760500,0.04049163864626844,0.028623399732707,0.07819075048934597,9.250939833333334,0.18796079166666665,-2.811239666666667
1413393886040760500,0.021642082724729686,0.02652900463031381,0.07190756518216637,9.259112041666667,0.416782625,-3.023717083333333
1413393886045760500,-0.005585053606381855,0.04677482395344803,0.06911503837897544,9.373522958333332,0.367749375,-3.0400614999999998
1413393886050760500,-0.023736477827122883,0.03420845333908886,0.06771877497737998,9.144701125,0.057205458333333334,-2.982856041666666
1413393886055760500,-0.03490658503988659,0.01884955592153876,0.06981317007977318,9.07115125,0.10623870833333333,-2.7376897916666665
1413393886060760500,-0.03490658503988659,0.013962634015954637,0.08237954069413235,9.1201845,-0.2533384583333333,-2.9093061666666666
1413393886065760500,-0.021642082724729686,0.009075712110370514,0.08028514559173915,9.242767624999999,-0.4004382083333333,-2.999200458333333
1413393886070760500,-0.008377580409572781,0.006981317007977318,0.08726646259971647,9.536967125,-0.392266,-2.9583394166666666
1413393886075760500,0.00767944870877505,0.02234021442552742,0.08307767239493008,9.406211791666665,-0.3105439166666667,-2.974683833333333
1413393886080760500,0.017453292519943295,0.02234021442552742,0.07260569688296412,9.349006333333334,-0.3023717083333333,-3.015544875
1413393886085760500,0.025132741228718346,0.02722713633111154,0.06562437987498679,9.520622708333333,-0.17978858333333333,-2.974683833333333
1413393886090760500,0.02652900463031381,0.02234021442552742,0.08098327729253688,9.291800875,0.17161637500000002,-2.9338227916666666
1413393886095760500,0.009773843811168246,0.017453292519943295,0.08517206749732328,9.234595416666666,0.35957716666666667,-2.8766173333333334
1413393886100760500,-0.013264502315156905,0.02024581932313422,0.09564404300928926,8.989429166666666,0.3840937916666667,-2.8684451249999996
1413393886105760500,-0.033510321638291124,0.008377580409572781,0.09215338450530061,9.635033625,0.08989429166666667,-3.1299557916666663
1413393886110760500,-0.04537856055185257,0.009075712110370514,0.08237954069413235,9.5124505,-0.20430520833333332,-3.0645781249999997
1413393886115760500,-0.02722713633111154,0.016755160819145562,0.07330382858376185,9.398039583333333,-0.661948875,-2.8766173333333334
1413393886120760500,0.0004609227180480957,0.02406597137451172,0.06464075297117233,9.481860160827637,-0.5627053380012512,-3.038519859313965
1413393886125760500,0.02571578323841095,0.026405274868011475,0.07465345412492752,9.325654983520508,-0.08888696879148483,-2.9404067993164062
1413393886130760500,0.04048663377761841,0.021644145250320435,0.08930686116218567,9.17021369934082,-0.08991670608520508,-2.7840304374694824
1413393886135760500,0.03232458233833313,0.012592941522598267,0.07824166864156723,9.522185325622559,0.20999035239219666,-3.093369245529175
1413393886140760500,0.002049773931503296,0.02999970316886902,0.0812491923570633,9.302928924560547,0.5003820657730103,-2.972167491912842
1413393886145760500,-0.021674424409866333,0.013196617364883423,0.08254028856754303,9.580323219299316,0.31941547989845276,-3.2409002780914307
1413393886150760500,-0.034468382596969604,0.024980515241622925,0.07305765151977539,9.463521003723145,-0.2046188861131668,-3.06392240524292
1413393886155760500,-0.024031519889831543,0.03555351495742798,0.07591688632965088,9.42464828491211,-0.20251815021038055,-3.096143960952759
1413393886160760500,-0.014370709657669067,0.04170963168144226,0.0810358002781868,9.237363815307617,-0.029834941029548645,-2.8826448917388916
1413393886165760500,-0.004399225115776062,0.027774930000305176,0.07749155163764954,9.23634147644043,-0.19553448259830475,-2.8249199390411377
1413393886170760500,0.002099856734275818,0.016654610633850098,0.0725691094994545,9.25914192199707,-0.40982940793037415,-2.9860904216766357
1413393886175760500,0.012135490775108337,0.02296122908592224,0.07967342436313629,9.456727027893066,0.008711210452020168,-3.3379783630371094
1413393886180760500,0.0074814558029174805,0.041550666093826294,0.08721739798784256,9.164182662963867,0.03491267189383507,-2.8510966300964355
1413393886185760500,-0.00014078617095947266,0.019260883331298828,0.08992785960435867,9.4575777053833,-0.11472692340612411,-2.9556961059570312
1413393886190760500,0.004803061485290527,0.03556126356124878,0.083772674202919,9.512712478637695,-0.21271376311779022,-2.9075589179992676
1413393886195760500,0.00886581838130951,0.04398033022880554,0.08596896380186081,9.302542686462402,0.16540032625198364,-2.889723062515259
1413393886200760500,-0.0037887394428253174,0.0346565842628479,0.08379261940717697,9.179756164550781,0.2221078872680664,-2.8869993686676025
1413393886205760500,-0.019040659070014954,0.017289549112319946,0.06906618922948837,9.406689643859863,-0.041598133742809296,-2.8749141693115234
1413393886210760500,-0.021689966320991516,0.0173967182636261,0.06708453595638275,9.291468620300293,-0.1795268952846527,-2.9952149391174316
1413393886215760500,-0.014873310923576355,0.024821490049362183,0.07259754836559296,9.391549110412598,-0.2270231544971466,-3.0534372329711914
1413393886220760500,-0.01647372543811798,0.0317024290561676,0.07874174416065216,9.163585662841797,-0.21859101951122284,-2.8174867630004883
1413393886225760500,-0.0007721930742263794,0.02220010757446289,0.08859970420598984,9.391502380371094,-0.2692544162273407,-2.9721226692199707
1413393886230760500,0.015264764428138733,0.02439635992050171,0.08659493178129196,9.259343147277832,-0.22072665393352509,-2.858910083770752
1413393886235760500,0.026465237140655518,0.02360236644744873,0.08729366213083267,9.350910186767578,0.057259928435087204,-2.9071149826049805
1413393886240760500,0.018160715699195862,0.025601893663406372,0.08236515522003174,9.212004661560059,0.2455187737941742,-3.0027177333831787
1413393886245760500,0.0013935714960098267,0.018028557300567627,0.08653480559587479,9.489375114440918,0.2036622315645218,-3.030927896499634
1413393886250760500,-0.015426009893417358,0.026446759700775146,0.08306869119405746,9.129154205322266,0.04200315102934837,-3.011580467224121
1413393886255760500,-0.019106626510620117,0.01452857255935669,0.09780126810073853,9.449222564697266,0.18897739052772522,-2.9491512775421143
1413393886260760500,-0.024130165576934814,0.02631625533103943,0.09780667722225189,9.17042064666748,0.01824881136417389,-2.8981122970581055
1413393886265760500,-0.01565137505531311,0.0046312808990478516,0.09832198172807693,9.30078125,-0.400688499212265,-2.769665002822876
1413393886270760500,-0.0015300214290618896,0.00945955514907837,0.07535208761692047,9.44678020477295,-0.4247550666332245,-2.94802188873291
1413393886275760500,0.011099264025688171,0.010249078273773193,0.06563988327980042,9.521090507507324,-0.30940917134284973,-3.054952621459961
1413393886280760500,0.013220474123954773,0.021428048610687256,0.0536951944231987,9.432559967041016,-0.11399713158607483,-3.0468740463256836
1413393886285760500,0.01819460093975067,0.005498975515365601,0.061305224895477295,9.350115776062012,-0.008241134695708752,-2.980867862701416
1413393886290760500,0.006891846656799316,0.029463976621627808,0.061478544026613235,9.408272743225098,0.22116583585739136,-3.077949047088623
1413393886295760500,-0.012767553329467773,0.015410065650939941,0.08890297263860703,9.35164737701416,0.5329175591468811,-2.9967029094696045
1413393886300760500,-0.026760578155517578,0.03338664770126343,0.09576287865638733,9.229092597961426,0.1153026595711708,-2.898106098175049
1413393886305760500,-0.027422979474067688,0.019396722316741943,0.09200115501880646,9.154394149780273,-0.2533251643180847,-2.905463933944702
1413393886310760500,-0.016247332096099854,0.02633252739906311,0.08792565017938614,9.398740768432617,-0.4233822226524353,-3.1347522735595703
1413393886315760500,-0.0022469907999038696,0.02144378423690796,0.09346135705709457,9.27614974975586,-0.28402453660964966,-3.0867459774017334
1413393886320760500,0.012446269392967224,0.02903306484222412,0.08214373141527176,9.367514610290527,-0.4081284999847412,-2.917228937149048
1413393886325760500,0.02865682542324066,0.020687907934188843,0.08996367454528809,9.268239974975586,-0.2700134217739105,-2.979773759841919
1413393886330760500,0.02931515872478485,0.03135672211647034,0.0874321460723877,9.334362983703613,0.18055583536624908,-2.979795455932617
1413393886335760500,0.015320062637329102,0.02437537908554077,0.10484950989484787,9.25271987915039,0.44292107224464417,-2.962355852127075
1413393886340760500,-0.014747709035873413,0.03201737999916077,0.0880059152841568,9.227879524230957,0.04876002296805382,-3.0918047428131104
1413393886345760500,-0.029349923133850098,0.014530450105667114,0.07335877418518066,9.447062492370605,-0.17931967973709106,-3.168710947036743
1413393886350760500,-0.029564961791038513,0.028494715690612793,0.06432241201400757,9.553791999816895,-0.20977787673473358,-3.202522039413452
1413393886355760500,-0.017179355025291443,0.025567442178726196,0.06469094753265381,9.293825149536133,-0.37339091300964355,-2.828075885772705
1413393886360760500,-0.002359047532081604,0.02065366506576538,0.063287153840065,9.358750343322754,-0.4244360625743866,-2.97163987159729
1413393886365760500,0.019469961524009705,0.02779942750930786,0.07888516783714294,9.440104484558105,-0.17121872305870056,-2.8670384883880615
1413393886370760500,0.019555941224098206,0.03838878870010376,0.08815670758485794,9.286178588867188,0.2788088023662567,-3.0102667808532715
1413393886375760500,0.007633566856384277,0.033379942178726196,0.08943630754947662,9.1478910446167,0.3762032687664032,-2.798375368118286
1413393886380760500,-0.0063443779945373535,0.024340897798538208,0.09424687176942825,9.457036018371582,0.031171932816505432,-2.9145150184631348
1413393886385760500,-0.01200076937675476,0.027136802673339844,0.0906943753361702,9.414776802062988,-0.04095428064465523,-2.9305408000946045
1413393886390760500,-0.011457562446594238,0.03813257813453674,0.08992592990398407,9.440865516662598,-0.16154129803180695,-2.9561057090759277
1413393886395760500,-0.010064259171485901,0.027596354484558105,0.08720790594816208,9.097076416015625,-0.18622805178165436,-2.832169532775879
1413393886400760500,0.006170019507408142,0.020756453275680542,0.08652032166719437,9.504791259765625,-0.39251717925071716,-2.98185396194458
1413393886405760500,0.015235409140586853,0.023631513118743896,0.08031614124774933,9.267413139343262,-0.007829691283404827,-2.899453639984131
1413393886410760500,0.006882950663566589,0.020765066146850586,0.07690626382827759,9.31873607635498,0.20546892285346985,-2.995772361755371
1413393886415760500,-0.009866774082183838,0.008819341659545898,0.07823950797319412,9.383018493652344,0.04867926985025406,-2.9241552352905273
1413393886420760500,-0.013242244720458984,0.010419249534606934,0.07048541307449341,9.51270866394043,-0.08247217535972595,-3.152618408203125
1413393886425760500,-0.012869402766227722,0.017246633768081665,0.06136384978890419,9.300859451293945,-0.28409910202026367,-2.844242811203003
1413393886430760500,-0.007176846265792847,0.020732134580612183,0.06075634807348251,9.37531852722168,-0.17807942628860474,-3.1181304454803467
1413393886435760500,0.007447600364685059,0.018678396940231323,0.07735390216112137,9.366454124450684,-0.2768387794494629,-2.8117361068725586
1413393886440760500,0.012440383434295654,0.016069620847702026,0.08507495373487473,9.448455810546875,0.016704237088561058,-2.9888908863067627
1413393886445760500,0.0053994059562683105,0.02299445867538452,0.08945311605930328,9.212336540222168,0.19727225601673126,-2.7750630378723145
1413393886450760500,-0.004901811480522156,0.015908271074295044,0.09095992892980576,9.375669479370117,0.10605127364397049,-3.035893201828003
1413393886455760500,-0.014015018939971924,0.015233516693115234,0.0942489504814148,9.406414985656738,-0.05809975415468216,-3.118074893951416
1413393886460760500,-0.016272425651550293,0.021551698446273804,0.08990929275751114,9.456418991088867,-0.10508652031421661,-3.0399346351623535
1413393886465760500,-0.01212012767791748,0.026295572519302368,0.08573886752128601,9.178975105285645,-0.3495856821537018,-2.8986430168151855
1413393886470760500,0.006805911660194397,0.027654707431793213,0.0899614691734314,9.375378608703613,-0.40809375047683716,-2.8758468627929688
1413393886475760500,0.017946258187294006,0.01801353693008423,0.09351616352796555,9.234540939331055,-0.23583579063415527,-2.8897204399108887
1413393886480760500,0.02094137668609619,0.015320122241973877,0.08522184938192368,9.456258773803711,0.057598792016506195,-3.029142379760742
1413393886485760500,0.010418623685836792,0.023578166961669922,0.07551918923854828,9.310271263122559,0.20422007143497467,-2.9070122241973877
1413393886490760500,-0.002065703272819519,0.015191733837127686,0.07548554986715317,9.400300979614258,0.2938501834869385,-3.101696729660034
1413393886495760500,-0.017605632543563843,0.01598501205444336,0.07881084829568863,9.37414836883545,0.10650821030139923,-3.102659225463867
1413393886500760500,-0.02536875009536743,0.021600425243377686,0.07385951280593872,9.553986549377441,-0.1955651491880417,-3.121126413345337
1413393886505760500,-0.021261557936668396,0.04236656427383423,0.07746018469333649,9.409008979797363,-0.19436980783939362,-2.8279638290405273
1413393886510760500,-0.007917746901512146,0.029123693704605103,0.08378591388463974,9.31039047241211,-0.24308902025222778,-2.9388606548309326
1413393886515760500,0.010324269533157349,0.03694486618041992,0.08850852400064468,9.366684913635254,-0.23731786012649536,-2.9231014251708984
1413393886520760500,0.017446234822273254,0.03207993507385254,0.09000132977962494,9.203049659729004,-0.07353738695383072,-3.051499128341675
1413393886525760500,0.012545332312583923,0.032590240240097046,0.08525573462247849,9.384119033813477,0.13110420107841492,-2.9072000980377197
1413393886530760500,-0.0013606995344161987,0.019367724657058716,0.07829524576663971,9.391315460205078,0.1555006355047226,-3.101724147796631
1413393886535760500,-0.005689755082130432,0.037561386823654175,0.0774398073554039,9.326537132263184,-0.016405530273914337,-2.88291597366333
1413393886540760500,-0.014143377542495728,0.031202584505081177,0.07671251893043518,9.113910675048828,-0.03898278623819351,-3.0992929935455322
1413393886545760500,-0.01143595576286316,0.04377347230911255,0.08373750001192093,9.448999404907227,-0.09681720286607742,-2.908524513244629
1413393886550760500,-0.01210486888885498,0.023610800504684448,0.0838061049580574,9.153175354003906,-0.2027103304862976,-2.930985927581787
1413393886555760500,-0.003771737217903137,0.03335347771644592,0.08375846594572067,9.237229347229004,-0.29307636618614197,-2.5732102394104004
1413393886560760500,0.0012762099504470825,0.0025280117988586426,0.08033376187086105,9.09585952758789,-0.11285385489463806,-2.9268906116485596
1413393886565760500,0.007574394345283508,0.0241582989692688,0.0753922164440155,9.603517532348633,-0.017053179442882538,-2.924151659011841
1413393886570760500,-0.005761072039604187,0.0151100754737854,0.0739554613828659,9.317009925842285,-0.07338850945234299,-3.0047249794006348
1413393886575760500,0.0020548254251480103,0.02489146590232849,0.06693769246339798,9.41664981842041,-0.20443853735923767,-2.8186588287353516
1413393886580760500,-0.003684505820274353,0.014624297618865967,0.06914025545120239,9.194877624511719,0.0507231242954731,-2.970947742462158
1413393886585760500,-0.002237752079963684,0.04199680685997009,0.09014799445867538,9.620648384094238,0.17201416194438934,-3.111537456512451
1413393886590760500,-0.010083422064781189,0.03467535972595215,0.08714030683040619,9.072635650634766,-0.12191364169120789,-2.745553493499756
1413393886595760500,-0.004296913743019104,0.013080060482025146,0.09422651678323746,9.309562683105469,-0.26164865493774414,-2.841334104537964
1413393886600760500,-0.00012959539890289307,0.0097523033618927,0.0845964327454567,9.242192268371582,-0.21083179116249084,-3.020179510116577
1413393886605760500,0.004082679748535156,0.018673717975616455,0.09773223847150803,9.58719539642334,0.000220288333366625,-3.1211276054382324
1413393886610760500,-0.004400089383125305,0.030256062746047974,0.08361092954874039,9.32630729675293,-0.18755154311656952,-2.965287446975708
1413393886615760500,0.004168123006820679,0.013055682182312012,0.08020970970392227,9.391484260559082,-0.2208745777606964,-2.900672197341919
1413393886620760500,0.007613524794578552,0.021066874265670776,0.07904116064310074,9.218685150146484,-0.006957811303436756,-3.0926735401153564
1413393886625760500,0.006168916821479797,0.0314294695854187,0.09424858540296555,9.399571418762207,0.156028613448143,-3.1273105144500732
1413393886630760500,-0.01136767864227295,0.030407190322875977,0.08302932232618332,9.130154609680176,0.04984131455421448,-2.9474127292633057
1413393886635760500,-0.009068921208381653,0.006820201873779297,0.08665547519922256,9.186578750610352,-0.07287432998418808,-2.9066131114959717
1413393886640760500,-0.006446525454521179,0.015345573425292969,0.0838630348443985,9.17771053314209,-0.1621168851852417,-3.027495861053467
1413393886645760500,-0.005776911973953247,0.013755083084106445,0.08369118720293045,9.480817794799805,0.0006707221618853509,-3.1598238945007324
1413393886650760500,-0.016312360763549805,0.027535617351531982,0.06833741068840027,9.473294258117676,-0.14600320160388947,-2.9661409854888916
1413393886655760500,0.004238605499267578,0.02148410677909851,0.0802278146147728,9.35921573638916,-0.17153802514076233,-2.891571521759033
1413393886660760500,0.007442444562911987,0.03422555327415466,0.07323308289051056,9.325979232788086,-0.18749049305915833,-3.027662754058838
1413393886665760500,0.005521565675735474,0.027225375175476074,0.08167329430580139,9.41543197631836,0.17247416079044342,-3.1181399822235107
1413393886670760500,-0.004259765148162842,0.029200762510299683,0.07761690020561218,9.252113342285156,0.0009268611902371049,-2.955481767654419
1413393886675760500,-0.0021081268787384033,0.017280369997024536,0.08373576402664185,9.472795486450195,-0.1886012852191925,-3.0058329105377197
1413393886680760500,-0.005120232701301575,0.023553133010864258,0.08302068710327148,9.251797676086426,-0.17841041088104248,-3.012194871902466
1413393886685760500,-0.007215723395347595,0.02007502317428589,0.08306804299354553,9.57979679107666,-0.01461445540189743,-3.038484811782837
1413393886690760500,-0.010699048638343811,0.029800355434417725,0.08100306987762451,9.4075927734375,-0.13826273381710052,-2.907439947128296
1413393886695760500,0.005525499582290649,0.03266555070877075,0.08228965848684311,9.432915687561035,-0.18032626807689667,-2.9479830265045166
1413393886700760500,0.007449313998222351,0.031997859477996826,0.08231290429830551,9.28493595123291,-0.11386402696371078,-2.9790515899658203
1413393886705760500,0.003407210111618042,0.03699082136154175,0.07964496314525604,9.465484619140625,0.17235127091407776,-3.061237096786499
1413393886710760500,-0.002955511212348938,0.03057113289833069,0.08103933930397034,9.12198257446289,0.033727847039699554,-2.7108612060546875
1413393886715760500,-0.0021640807390213013,0.014447301626205444,0.0830349549651146,9.595193862915039,-0.16452756524085999,-3.0452022552490234
1413393886720760500,-0.0029676854610443115,0.025665372610092163,0.08514778316020966,9.227059364318848,0.058196574449539185,-2.971311092376709
1413393886725760500,-0.008616939187049866,0.030520349740982056,0.0775291845202446,9.441919326782227,-0.006518329959362745,-2.9808597564697266
1413393886730760500,-5.717575550079346e-05,0.023415416479110718,0.08095934242010117,9.2027006149292,-0.1472949981689453,-2.890017032623291
1413393886735760500,0.0026260465383529663,0.02719050645828247,0.07605774700641632,9.546649932861328,-0.04118654504418373,-3.0226376056671143
1413393886740760500,0.011111393570899963,0.02995404601097107,0.08720052987337112,9.235686302185059,0.06661557406187057,-2.987818956375122
1413393886745760500,0.0005187094211578369,0.03122463822364807,0.07610814273357391,9.38438892364502,0.0652872696518898,-2.956272840499878
1413393886750760500,-0.002891749143600464,0.01303967833518982,0.08524524420499802,9.121224403381348,0.09105166047811508,-2.7435014247894287
1413393886755760500,-0.0029513686895370483,0.012461483478546143,0.08240630477666855,9.447880744934082,-0.08144199103116989,-2.906893014907837
1413393886760760500,-0.005001440644264221,0.01585182547569275,0.09135690331459045,9.29190444946289,-0.08120155334472656,-3.1329309940338135
1413393886765760500,-0.01209227740764618,0.024145543575286865,0.0809677392244339,9.489901542663574,-0.17058196663856506,-3.0558969974517822
1413393886770760500,-0.004214555025100708,0.011666327714920044,0.08307460695505142,9.316852569580078,-0.2849430739879608,-3.0466299057006836
1413393886775760500,0.0033017992973327637,0.025838702917099,0.07957799732685089,9.465097427368164,-0.1058497503399849,-2.9663069248199463
1413393886780760500,0.013860136270523071,0.014560818672180176,0.0892828181385994,9.292581558227539,0.03372602164745331,-3.0127761363983154
1413393886785760500,0.003316342830657959,0.028462111949920654,0.07469741255044937,9.489952087402344,0.06474775820970535,-3.0054712295532227
1413393886790760500,-0.004164516925811768,0.0075492262840271,0.08110176026821136,9.137495994567871,0.13165642321109772,-2.9467387199401855
1413393886795760500,-0.009211912751197815,0.017352700233459473,0.07958947867155075,9.456440925598145,-0.2283526360988617,-2.9971771240234375
1413393886800760500,-0.008488133549690247,0.020080000162124634,0.08989886194467545,9.300641059875488,-0.13791817426681519,-3.1907012462615967
1413393886805760500,-0.010072141885757446,0.02771395444869995,0.0830584391951561,9.514616012573242,-0.16986669600009918,-3.0151166915893555
1413393886810760500,-0.004280641674995422,0.013832062482833862,0.08524908870458603,9.21924114227295,-0.10484753549098969,-2.9879422187805176
1413393886815760500,-0.00016292929649353027,0.03489398956298828,0.07610008120536804,9.498305320739746,-0.2046501338481903,-2.997194290161133
1413393886820760500,0.004122421145439148,0.02773037552833557,0.08156689256429672,9.137489318847656,-0.12146101891994476,-3.027578115463257
1413393886825760500,0.00688035786151886,0.034732937812805176,0.07953430712223053,9.514630317687988,-0.032462045550346375,-3.0214731693267822
1413393886830760500,0.0020081549882888794,0.02226126194000244,0.08449073880910873,9.153538703918457,-0.023275576531887054,-3.0033628940582275
1413393886835760500,-0.0015275031328201294,0.025762319564819336,0.08385078608989716,9.424666404724121,-0.02435854636132717,-2.9399471282958984
1413393886840760500,-0.011303439736366272,0.02559208869934082,0.08657832443714142,9.121014595031738,-0.14529012143611908,-3.050546407699585
1413393886845760500,-0.009186804294586182,0.03049364686012268,0.09003937989473343,9.342559814453125,-0.11352983117103577,-3.036637306213379
1413393886850760500,-0.00721210241317749,0.027724474668502808,0.08650378882884979,9.358200073242188,-0.1785457879304886,-2.9892430305480957
1413393886855760500,0.0005385130643844604,0.027811020612716675,0.08726385235786438,9.252411842346191,-0.0728970393538475,-2.9226603507995605
1413393886860760500,0.004082232713699341,0.03125914931297302,0.07818563282489777,9.170816421508789,-0.17908981442451477,-3.0107786655426025
1413393886865760500,0.008328542113304138,0.022808551788330078,0.07747289538383484,9.276517868041992,-0.016071921214461327,-2.9310927391052246
1413393886870760500,0.006233632564544678,0.01938381791114807,0.0719316378235817,9.259405136108398,-0.0808655321598053,-3.060347080230713
1413393886875760500,0.002027958631515503,0.01731586456298828,0.0760953351855278,9.154068946838379,0.08273444324731827,-2.9468743801116943
1413393886880760500,-0.008563965559005737,0.024953246116638184,0.07960958778858185,9.391847610473633,-0.03154577314853668,-3.037156343460083
1413393886885760500,-0.010613679885864258,0.021407991647720337,0.08026491105556488,9.333495140075684,-0.11358087509870529,-2.964101791381836
1413393886890760500,-0.009240537881851196,0.024367958307266235,0.0768282562494278,9.693202018737793,-0.1469736546278,-3.210226058959961
1413393886895760500,-0.005793705582618713,0.029254794120788574,0.08239870518445969,9.219865798950195,0.08340531587600708,-2.9078943729400635
1413393886900760500,-0.002967551350593567,0.02708733081817627,0.07461312413215637,9.46572208404541,-0.1958768516778946,-3.005216360092163
1413393886905760500,0.002677619457244873,0.028390079736709595,0.07597370445728302,9.349502563476562,-0.17206351459026337,-2.858656644821167
1413393886910760500,0.0153445303440094,0.022235989570617676,0.08239662647247314,9.472481727600098,-0.13838130235671997,-3.0778768062591553
1413393886915760500,0.00816449522972107,0.024280846118927002,0.07888974249362946,9.064470291137695,0.05888642370700836,-2.8236277103424072
1413393886920760500,-0.0007421523332595825,0.021542608737945557,0.08594129234552383,9.473942756652832,0.04931618645787239,-3.1094982624053955
1413393886925760500,-0.00779309868812561,0.024216264486312866,0.08380617201328278,9.235140800476074,-0.08931118994951248,-2.8825316429138184
1413393886930760500,-0.00579109787940979,0.01800757646560669,0.09352578967809677,9.514225959777832,-0.015966268256306648,-2.97302508354187
1413393886935760500,-0.007931694388389587,0.026385903358459473,0.08934803307056427,9.072566032409668,0.05910656601190567,-2.9363820552825928
1413393886940760500,-0.007853776216506958,0.02075284719467163,0.08372863382101059,9.407740592956543,-0.294242799282074,-3.005711317062378
1413393886945760500,0.002066001296043396,0.016505688428878784,0.08375919610261917,9.070517539978027,-0.26090866327285767,-2.9544336795806885
1413393886950760500,0.009627014398574829,0.017335891723632812,0.07675901800394058,9.4240140914917,-0.10483352094888687,-2.981452703475952
1413393886955760500,0.005396902561187744,0.018650949001312256,0.07956281304359436,9.17854118347168,-0.006778119597584009,-2.8981125354766846
1413393886960760500,0.0006341338157653809,0.01379084587097168,0.07750433683395386,9.603647232055664,-0.16425667703151703,-3.1035664081573486
1413393886965760500,-0.0007978379726409912,0.020095348358154297,0.07679162174463272,9.079748153686523,-0.08843908458948135,-2.8576266765594482
1413393886970760500,-0.0021419674158096313,0.0118979811668396,0.09293730556964874,9.514211654663086,0.13185130059719086,-3.2891833782196045
1413393886975760500,-0.014283180236816406,0.038983166217803955,0.08655092120170593,9.366833686828613,0.0743090882897377,-2.9419748783111572
1413393886980760500,-0.014096051454544067,0.022170662879943848,0.08791830390691757,9.2528657913208,-0.18776430189609528,-2.907121419906616
1413393886985760500,-0.005726978182792664,0.026338517665863037,0.0732555165886879,9.382532119750977,-0.3998788297176361,-2.930859088897705
1413393886990760500,0.011788949370384216,0.02368021011352539,0.08093559741973877,9.235269546508789,-0.11293322592973709,-3.052849531173706
1413393886995760500,0.012367099523544312,0.024252980947494507,0.08579789847135544,9.440694808959961,0.00886739045381546,-2.9889514446258545
1413393887000760500,0.0013240277767181396,0.017217010259628296,0.07676329463720322,9.374519348144531,-0.024601614102721214,-2.9807064533233643
1413393887005760500,0.0021815598011016846,0.023641526699066162,0.07972346246242523,9.317724227905273,-0.10633201897144318,-3.0363388061523438
1413393887010760500,-0.00010338425636291504,0.020126312971115112,0.09085042774677277,9.203757286071777,0.24688270688056946,-3.0199666023254395
1413393887015760500,-0.014376610517501831,0.02851128578186035,0.0927882269024849,9.661486625671387,0.11492611467838287,-3.006232976913452
1413393887020760500,-0.018282487988471985,0.031240373849868774,0.08508574217557907,9.276629447937012,-0.12274434417486191,-2.907255172729492
1413393887025760500,-0.005651786923408508,0.017274081707000732,0.0775064006447792,9.39925479888916,-0.4083888828754425,-3.0048346519470215
1413393887030760500,0.00958697497844696,0.03125816583633423,0.07326053082942963,9.194634437561035,-0.20248252153396606,-2.946967601776123
1413393887035760500,0.013061732053756714,0.01939290761947632,0.08506091684103012,9.37507152557373,-0.01527977455407381,-2.9557135105133057
1413393887040760500,0.005522012710571289,0.028379052877426147,0.075323186814785,9.447917938232422,-0.16350169479846954,-2.996878147125244
1413393887045760500,0.007051423192024231,0.0201338529586792,0.08387749642133713,9.211548805236816,-0.02442966215312481,-2.963043451309204
1413393887050760500,0.0012767165899276733,0.0271608829498291,0.08394137769937515,9.139123916625977,0.25562867522239685,-2.9858248233795166
1413393887055760500,-0.0184832364320755,0.020840376615524292,0.08798053115606308,9.448624610900879,0.18038153648376465,-3.0130455493927
1413393887060760500,-0.02170148491859436,0.034032344818115234,0.08160635828971863,9.366070747375488,-0.15567055344581604,-3.062004327774048
1413393887065760500,-0.00782601535320282,0.01861584186553955,0.08366472274065018,9.235925674438477,-0.30135947465896606,-2.891732692718506
1413393887070760500,0.004605978727340698,0.022166281938552856,0.0774548202753067,9.19491195678711,-0.2430785894393921,-2.9223315715789795
1413393887075760500,0.013126730918884277,0.011010140180587769,0.08304384350776672,9.202157974243164,-0.14623239636421204,-2.9303691387176514
1413393887080760500,0.007631674408912659,0.021416395902633667,0.07749654352664948,9.529499053955078,-0.13908547163009644,-3.046448230743408
1413393887085760500,0.010539576411247253,0.013034015893936157,0.07751957327127457,9.19442081451416,-0.07286951690912247,-2.971403121948242
1413393887090760500,0.0047714561223983765,0.021580517292022705,0.08174429833889008,9.26989459991455,0.15635506808757782,-3.0119500160217285
1413393887095760500,-0.010710492730140686,0.008327245712280273,0.08661017566919327,9.227429389953613,0.20586846768856049,-2.9711649417877197
1413393887100760500,-0.026779845356941223,0.023630142211914062,0.0802798643708229,9.562273979187012,-0.11453533172607422,-3.0141639709472656
1413393887105760500,-0.016163915395736694,0.01926305890083313,0.08645162731409073,9.382259368896484,-0.38347387313842773,-2.9407029151916504
1413393887110760500,0.0011111646890640259,0.03117123246192932,0.08363498002290726,9.481901168823242,-0.3990907073020935,-3.006148338317871
1413393887115760500,0.008053973317146301,0.018747806549072266,0.08578839153051376,9.104684829711914,-0.21858298778533936,-2.8328194618225098
1413393887120760500,0.013927221298217773,0.021565645933151245,0.07959888875484467,9.611672401428223,-0.19638687372207642,-2.997356653213501
1413393887125760500,0.01536056399345398,0.017268657684326172,0.07683729380369186,9.20191478729248,-0.06550318002700806,-2.873563528060913
1413393887130760500,0.011878341436386108,0.02292916178703308,0.08381856232881546,9.416985511779785,0.1800779402256012,-3.1256299018859863
1413393887135760500,-0.006515294313430786,0.030589312314987183,0.08306708931922913,9.212528228759766,0.2627371847629547,-2.938917875289917
1413393887140760500,-0.026786774396896362,0.022996246814727783,0.08387050777673721,9.522856712341309,0.15534591674804688,-2.9893646240234375
1413393887145760500,-0.023878663778305054,0.03268858790397644,0.08306939899921417,9.3089017868042,-0.21183377504348755,-2.8987369537353516
1413393887150760500,-0.007900163531303406,0.01867544651031494,0.08435402065515518,9.276408195495605,-0.3260211944580078,-3.036914825439453
1413393887155760500,-0.001026257872581482,0.03606179356575012,0.07808829098939896,9.146286964416504,-0.2595304846763611,-2.898129463195801
1413393887160760500,0.012505531311035156,0.019991397857666016,0.07953330129384995,9.382925987243652,-0.2934381663799286,-2.908156633377075
1413393887165760500,0.016777396202087402,0.02981320023536682,0.06982073187828064,9.37416934967041,-0.2047121226787567,-3.020531177520752
1413393887170760500,0.016853243112564087,0.01950433850288391,0.08381087332963943,9.203760147094727,0.22180326282978058,-3.0930697917938232
1413393887175760500,-0.005823269486427307,0.03835812211036682,0.08105859905481339,9.311708450317383,0.40215086936950684,-2.947150468826294
1413393887180760500,-0.025964856147766113,0.024987995624542236,0.08733219653367996,9.33419418334961,0.13067194819450378,-3.020345449447632
1413393887185760500,-0.029426172375679016,0.02779531478881836,0.07753018289804459,9.455442428588867,-0.23711064457893372,-3.1032767295837402
1413393887190760500,-0.01775398850440979,0.01240423321723938,0.08439388871192932,9.210416793823242,-0.30817711353302,-2.892115831375122
1413393887195760500,-0.002397209405899048,0.03603300452232361,0.07594902068376541,9.580284118652344,-0.34180134534835815,-3.022204637527466
1413393887200760500,0.014539465308189392,0.022657841444015503,0.08431481570005417,9.096038818359375,-0.39983874559402466,-2.898437976837158
1413393887205760500,0.02298375964164734,0.018622547388076782,0.0739852786064148,9.644771575927734,-0.2946363389492035,-2.933699131011963
1413393887210760500,0.023768708109855652,0.014671772718429565,0.07548505067825317,9.243492126464844,0.2056857794523239,-2.8968563079833984
1413393887215760500,0.011881336569786072,0.02586182951927185,0.08528535813093185,9.564640045166016,0.40045732259750366,-3.118243455886841
1413393887220760500,-0.021166637539863586,0.028404027223587036,0.08515723049640656,9.28566837310791,0.2695460319519043,-3.0123465061187744
1413393887225760500,-0.02735106647014618,0.02853769063949585,0.08239398151636124,9.359220504760742,-0.007896793074905872,-2.9153425693511963
1413393887230760500,-0.02129131555557251,0.014571398496627808,0.09075105935335159,9.202418327331543,-0.21879692375659943,-2.792590856552124
1413393887235760500,-0.004498213529586792,0.0207689106464386,0.0913335457444191,9.529325485229492,-0.3671720325946808,-3.0945773124694824
1413393887240760500,0.012365281581878662,0.032444119453430176,0.08637837320566177,9.146129608154297,-0.36678680777549744,-2.8666110038757324
1413393887245760500,0.01942606270313263,0.023382246494293213,0.07607090473175049,9.409162521362305,-0.32605019211769104,-2.769948959350586
1413393887250760500,0.025875642895698547,0.014561474323272705,0.07617238163948059,9.152621269226074,-0.146497443318367,-2.879704475402832
1413393887255760500,0.015477210283279419,0.010597139596939087,0.07960835844278336,9.276628494262695,0.35214781761169434,-3.1492278575897217
1413393887260760500,-0.007924526929855347,0.03268560767173767,0.08659526705741882,9.213071823120117,0.48396581411361694,-2.8900399208068848
1413393887265760500,-0.03167501091957092,0.018582403659820557,0.07830929756164551,9.473981857299805,0.12187932431697845,-2.980692148208618
1413393887270760500,-0.03086891770362854,0.02009543776512146,0.08028455078601837,9.283539772033691,-0.3264261484146118,-2.9240949153900146
1413393887275760500,-0.01773536205291748,0.011878281831741333,0.07252195477485657,9.259652137756348,-0.3407215178012848,-3.037344217300415
1413393887280760500,0.00037880241870880127,0.03391435742378235,0.07659579813480377,9.35078239440918,-0.36574479937553406,-2.8839659690856934
1413393887285760500,0.009646385908126831,0.01429826021194458,0.0766933262348175,9.46407413482666,-0.3677431643009186,-3.0553369522094727
1413393887290760500,0.02238212525844574,0.02498328685760498,0.07258815318346024,9.521620750427246,-0.25381430983543396,-2.926156997680664
1413393887295760500,0.021000027656555176,0.010521560907363892,0.07481741905212402,9.1298828125,0.16485950350761414,-2.9862282276153564
1413393887300760500,0.00897708535194397,0.03493225574493408,0.08944938331842422,9.597737312316895,0.4987424314022064,-3.0374226570129395
1413393887305760500,-0.023283421993255615,0.023561447858810425,0.09148483723402023,9.219768524169922,0.286551833152771,-2.987886428833008
1413393887310760500,-0.03152300417423248,0.01876118779182434,0.08934734016656876,9.562615394592285,-0.15624898672103882,-2.989675998687744
1413393887315760500,-0.022558271884918213,0.02573317289352417,0.08655231446027756,9.129054069519043,-0.3001004755496979,-2.9630064964294434
1413393887320760500,-0.01013028621673584,0.022107869386672974,0.09486816823482513,9.653289794921875,-0.3093130886554718,-3.13700532913208
1413393887325760500,0.007478266954421997,0.023358583450317383,0.08148135989904404,9.12021255493164,-0.43204158544540405,-2.8431520462036133
1413393887330760500,0.025147080421447754,0.01726919412612915,0.08089481294155121,9.588030815124512,-0.3769293427467346,-2.997910976409912
1413393887335760500,0.02788512408733368,0.03616529703140259,0.06991676241159439,9.154293060302734,-0.03159337863326073,-2.8973402976989746
1413393887340760500,0.016061633825302124,0.02022862434387207,0.09152079373598099,9.491190910339355,0.5324959754943848,-3.012150526046753
1413393887345760500,-0.016221821308135986,0.03912508487701416,0.08101658523082733,9.400031089782715,0.31068527698516846,-3.0763888359069824
1413393887350760500,-0.03218011558055878,0.027201682329177856,0.07477785646915436,9.25287914276123,0.0975291058421135,-2.99639630317688
1413393887355760500,-0.026703640818595886,0.0312156081199646,0.08314154297113419,9.104996681213379,-0.2755945026874542,-3.0434155464172363
1413393887360760500,-0.015010043978691101,0.020741939544677734,0.08082066476345062,9.308798789978027,-0.22692576050758362,-3.0299174785614014
1413393887365760500,0.001829594373703003,0.04018670320510864,0.08213721960783005,9.227972984313965,-0.43976372480392456,-2.8349642753601074
1413393887370760500,0.011759757995605469,0.01848927140235901,0.0795341208577156,9.334369659423828,-0.43263015151023865,-2.8664162158966064
1413393887375760500,0.030091598629951477,0.02773568034172058,0.07477793097496033,9.276617050170898,-0.14657250046730042,-2.8733041286468506
1413393887380760500,0.01747402548789978,0.009074181318283081,0.07755835354328156,9.138174057006836,0.4348938763141632,-3.009518623352051
1413393887385760500,-0.001509353518486023,0.032780855894088745,0.09080267697572708,9.507006645202637,0.5064783096313477,-2.9883768558502197
1413393887390760500,-0.032272472977638245,0.0158616304397583,0.08102220296859741,9.358277320861816,0.15448009967803955,-3.0613784790039062
1413393887395760500,-0.03149440884590149,0.020131081342697144,0.08383672684431076,9.39097785949707,-0.07318881154060364,-3.005737543106079
1413393887400760500,-0.026254981756210327,0.006159007549285889,0.07885211706161499,9.36566162109375,-0.38174399733543396,-2.9495232105255127
1413393887405760500,-0.005845949053764343,0.021382629871368408,0.08568143099546432,9.693014144897461,-0.3184361755847931,-3.0729916095733643
1413393887410760500,0.003922492265701294,0.01849806308746338,0.080100417137146,9.227470397949219,-0.4645073413848877,-2.835603713989258
1413393887415760500,0.02591453492641449,0.015118271112442017,0.07463954389095306,9.571501731872559,-0.41735193133354187,-2.9816505908966064
1413393887420760500,0.029311835765838623,0.02234455943107605,0.07201610505580902,9.276473999023438,0.024786928668618202,-2.97918963432312
1413393887425760500,0.01756320893764496,0.007087618112564087,0.0922299474477768,9.53902816772461,0.4750831723213196,-3.176039934158325
1413393887430760500,-0.00782996416091919,0.03764396905899048,0.08653881400823593,9.367999076843262,0.3102062940597534,-2.996828317642212
1413393887435760500,-0.03155417740345001,0.017339229583740234,0.08453775197267532,9.31849479675293,-0.00010134578042197973,-3.053025484085083
1413393887440760500,-0.028073832392692566,0.027811795473098755,0.08390922099351883,9.235613822937012,-0.13679540157318115,-3.0283195972442627
1413393887445760500,-0.013597950339317322,0.013877898454666138,0.09129741787910461,9.292097091674805,-0.38216713070869446,-3.070460319519043
1413393887450760500,0.005308225750923157,0.03664880990982056,0.08693508803844452,9.391459465026855,-0.5061975717544556,-2.965864896774292
1413393887455760500,0.020109817385673523,0.014989912509918213,0.08371251076459885,9.186833381652832,-0.45637398958206177,-2.8423197269439697
1413393887460760500,0.03431650996208191,0.02499106526374817,0.0776262953877449,9.415881156921387,-0.17931434512138367,-2.9954214096069336
1413393887465760500,0.020268544554710388,0.01815509796142578,0.0810517817735672,9.039678573608398,0.3283742070198059,-3.009192705154419
1413393887470760500,-0.002895146608352661,0.02441433072090149,0.08520842343568802,9.393082618713379,0.5978807806968689,-2.9869773387908936
1413393887475760500,-0.028089508414268494,0.024261951446533203,0.08102214336395264,9.252328872680664,0.14688026905059814,-2.986891508102417
1413393887480760500,-0.0378672331571579,0.0236433744430542,0.07267343997955322,9.325689315795898,-0.11412125825881958,-3.069218635559082
1413393887485760500,-0.025428250432014465,0.015182524919509888,0.08094613999128342,9.26781940460205,-0.29950037598609924,-2.9727988243103027
1413393887490760500,-0.006633847951889038,0.02908065915107727,0.0807500034570694,9.546737670898438,-0.374671995639801,-2.950345039367676
1413393887495760500,0.012391835451126099,0.02477288246154785,0.07867305725812912,9.292652130126953,-0.5145536065101624,-2.9322142601013184
1413393887500760500,0.03006140887737274,0.02558961510658264,0.0747089609503746,9.489604949951172,-0.34333211183547974,-2.965444564819336
1413393887505760500,0.028686746954917908,0.022344589233398438,0.07480669766664505,9.317484855651855,0.11536522954702377,-3.011601686477661
1413393887510760500,0.01259399950504303,0.017523229122161865,0.0817255973815918,9.45773983001709,0.5322595834732056,-3.020827293395996
1413393887515760500,-0.013463541865348816,0.032043635845184326,0.09078040719032288,9.441544532775879,0.3836301267147064,-2.9722018241882324
1413393887520760500,-0.03574010729789734,0.02643302083015442,0.07898210734128952,9.449000358581543,0.1385158747434616,-3.1910769939422607
1413393887525760500,-0.028149068355560303,0.02844172716140747,0.08796022832393646,9.366508483886719,-0.26841941475868225,-2.909383535385132
1413393887530760500,-0.018474996089935303,0.022938698530197144,0.07948683202266693,9.358114242553711,-0.35777491331100464,-3.1186299324035645
1413393887535760500,0.004651233553886414,0.03813120722770691,0.08284291625022888,9.236405372619629,-0.47241371870040894,-2.818969964981079
1413393887540760500,0.02297729253768921,0.021301329135894775,0.0829746201634407,9.36681842803955,-0.42454347014427185,-2.9967234134674072
1413393887545760500,0.034908220171928406,0.029128432273864746,0.07821078598499298,9.399441719055176,-0.09004287421703339,-2.842012882232666
1413393887550760500,0.01759462058544159,0.013972669839859009,0.08531985431909561,9.032585144042969,0.5665180683135986,-3.0492560863494873
1413393887555760500,-0.010576888918876648,0.035653501749038696,0.09367241710424423,9.573358535766602,0.5800262689590454,-3.061429738998413
1413393887560760500,-0.04202696681022644,0.027018874883651733,0.08660656958818436,9.195362091064453,0.22854290902614594,-3.0770530700683594
1413393887565760500,-0.033651962876319885,0.033976733684539795,0.08433230966329575,9.538406372070312,-0.4331452250480652,-2.9741358757019043
1413393887570760500,-0.01999114453792572,0.02211734652519226,0.07035525143146515,9.210463523864746,-0.5444029569625854,-2.81109881401062
1413393887575760500,0.006047070026397705,0.02842026948928833,0.07598276436328888,9.276849746704102,-0.5696899890899658,-2.986931085586548
1413393887580760500,0.020911216735839844,0.019982486963272095,0.07111719250679016,9.300567626953125,-0.28542864322662354,-3.061716079711914
1413393887585760500,0.026978373527526855,0.008367389440536499,0.07688231766223907,9.53803539276123,0.3099502921104431,-3.404815196990967
1413393887590760500,0.0019901543855667114,0.03780412673950195,0.07209988683462143,9.589653968811035,0.4248201847076416,-3.098395347595215
1413393887595760500,-0.028772905468940735,0.028618037700653076,0.06854937225580215,9.630749702453613,0.40778475999832153,-3.136497735977173
1413393887600760500,-0.03569686412811279,0.04097980260848999,0.061276473104953766,10.019421577453613,-0.5153271555900574,-3.38309907913208
1413393887605760500,-0.010054424405097961,0.020104318857192993,0.06873097270727158,9.512495994567871,-0.6442052721977234,-2.824284791946411
1413393887610760500,0.014349907636642456,0.050949275493621826,0.08505357056856155,9.360150337219238,-0.2821657061576843,-3.1563165187835693
1413393887615760500,0.03197111189365387,0.056985706090927124,0.125563383102417,8.950973510742188,0.018555624410510063,-2.8225669860839844
1413393887620760500,0.022381529211997986,0.03531116247177124,0.1543581783771515,8.998438835144043,-0.03331516310572624,-2.942680835723877
1413393887625760500,0.02250531315803528,0.05864366888999939,0.14452968537807465,9.4407958984375,-0.24697864055633545,-2.945075750350952
1413393887630760500,0.015237182378768921,0.031868815422058105,0.12032470852136612,8.88437557220459,-0.0552666001021862,-2.789458751678467
1413393887635760500,-0.0001024007797241211,0.024093687534332275,0.11045052111148834,9.147354125976562,0.4850550591945648,-3.0481388568878174
1413393887640760500,-0.041067034006118774,0.05072176456451416,0.08292744308710098,9.081256866455078,0.20647713541984558,-2.668705463409424
1413393887645760500,-0.05234573781490326,0.033056825399398804,0.05426973104476929,9.185033798217773,-0.49025100469589233,-2.952331066131592
1413393887650760500,-0.02101898193359375,0.030657649040222168,0.025140725076198578,9.028575897216797,-1.0774273872375488,-2.7119054794311523
1413393887655760500,0.014115557074546814,0.011154890060424805,0.03367692232131958,8.64618968963623,-0.2979293465614319,-2.642062187194824
1413393887660760500,0.029767408967018127,0.048776775598526,0.05159134045243263,9.474696159362793,-0.03951580077409744,-3.018493413925171
1413393887665760500,0.010419264435768127,0.035189419984817505,0.056383032351732254,8.524703979492188,0.18005764484405518,-2.6266326904296875
1413393887670760500,0.012364014983177185,-0.000643998384475708,0.07008804380893707,9.506001472473145,0.030722446739673615,-3.2066476345062256
1413393887675760500,-0.0017062872648239136,0.03305649757385254,0.07136811316013336,9.399802207946777,0.4585316777229309,-2.772976875305176
1413393887680760500,-0.009887129068374634,0.003916800022125244,0.13544030487537384,9.179953575134277,0.5496984720230103,-3.1180789470672607
1413393887685760500,-0.040219515562057495,0.03305947780609131,0.11060377955436707,9.555123329162598,-0.17242181301116943,-2.8376553058624268
1413393887690760500,-0.02018357813358307,-0.015615016222000122,0.11021061986684799,9.403450965881348,-0.6302818059921265,-2.975534200668335
1413393887695760500,-0.0010378509759902954,0.003950268030166626,0.07427582144737244,10.198379516601562,-0.40024012327194214,-3.0694053173065186
1413393887700760500,0.008872076869010925,-0.007841885089874268,0.1095258891582489,9.52923583984375,0.23856037855148315,-3.090270519256592
1413393887705760500,-0.008560135960578918,0.04226556420326233,0.06869165599346161,9.998613357543945,-0.5003424286842346,-3.2937026023864746
1413393887710760500,0.011229991912841797,0.0074613988399505615,0.07047883421182632,8.934690475463867,-0.3104531466960907,-2.2758359909057617
1413393887715760500,0.024993523955345154,0.007083296775817871,0.054888058453798294,10.363289833068848,-0.441411554813385,-3.428647518157959
1413393887720760500,0.02005186676979065,0.035820960998535156,0.06838911771774292,8.90113353729248,0.8286254405975342,-2.8242533206939697
1413393887725760500,0.0007727295160293579,0.03142854571342468,0.09696319699287415,9.54319953918457,0.4503854513168335,-3.2959885597229004
1413393887730760500,-0.022453904151916504,0.0764799416065216,0.07932043820619583,8.715508460998535,-0.0414760522544384,-2.457585573196411
1413393887735760500,-0.01113232970237732,-0.0005964338779449463,0.09735294431447983,9.022875785827637,0.017672937363386154,-3.0000832080841064
1413393887740760500,-0.014883890748023987,0.044851869344711304,0.0776594802737236,9.381474494934082,-0.22561965882778168,-3.277566909790039
1413393887745760500,-0.00994718074798584,0.025426656007766724,0.1100095883011818,8.680943489074707,-0.09620525687932968,-2.914696455001831
1413393887750760500,-0.015479668974876404,0.05857956409454346,0.08620753884315491,9.051384925842285,-0.6678732633590698,-2.8886778354644775
1413393887755760500,-2.9280781745910645e-05,0.014366060495376587,0.08104882389307022,8.579270362854004,-0.24217909574508667,-2.635798215866089
1413393887760760500,0.019578590989112854,-0.004820197820663452,0.05766976252198219,9.75582504272461,-0.4579896926879883,-3.394878625869751
1413393887765760500,0.018762007355690002,0.014488369226455688,0.06485915184020996,9.103898048400879,0.3435896337032318,-2.949467658996582
1413393887770760500,0.00494055449962616,0.020014792680740356,0.07808669656515121,9.859907150268555,0.0655239149928093,-3.5614397525787354
1413393887775760500,-0.017710566520690918,0.04635888338088989,0.04458102956414223,8.591653823852539,0.12544578313827515,-2.3473668098449707
1413393887780760500,-0.011264815926551819,-0.02140045166015625,0.07783900201320648,9.496041297912598,-0.13814467191696167,-2.9933197498321533
1413393887785760500,-0.019253194332122803,0.011405020952224731,0.051049839705228806,10.063100814819336,-0.2450903058052063,-3.28297758102417
1413393887790760500,-0.003750443458557129,0.003942221403121948,0.10030902177095413,9.326760292053223,0.11577513813972473,-2.8143351078033447
1413393887795760500,-0.01433563232421875,0.04556015133857727,0.09125788509845734,10.00125789642334,-0.269341379404068,-3.0952060222625732
1413393887800760500,-0.014764264225959778,0.015913158655166626,0.08515674620866776,8.809093475341797,-0.2365112602710724,-2.7181708812713623
1413393887805760500,0.012586236000061035,0.0035587847232818604,0.0922890305519104,10.264799118041992,-0.639855146408081,-3.2851459980010986
1413393887810760500,0.02065756916999817,0.03347542881965637,0.10103820264339447,9.013068199157715,0.058839842677116394,-2.8006856441497803
1413393887815760500,0.020963549613952637,0.03473949432373047,0.11295606940984726,9.747666358947754,0.35240015387535095,-3.2085816860198975
1413393887820760500,-0.007180303335189819,0.05266657471656799,0.08867952227592468,9.090169906616211,-0.04124116152524948,-2.647390127182007
1413393887825760500,-0.007519200444221497,0.01278698444366455,0.08620335161685944,9.243571281433105,-0.025701669976115227,-3.0093581676483154
1413393887830760500,-0.0008803755044937134,0.028651565313339233,0.07679754495620728,9.65060043334961,-0.25205278396606445,-3.1432764530181885
1413393887835760500,-0.0003345757722854614,0.036590635776519775,0.08212684839963913,8.631755828857422,0.16636516153812408,-2.8478496074676514
1413393887840760500,-0.009287342429161072,0.030319511890411377,0.09146518260240555,9.182156562805176,0.23059318959712982,-2.9114184379577637
1413393887845760500,-0.021773576736450195,0.0318969190120697,0.0685182586312294,8.793098449707031,-0.1621244102716446,-2.6845779418945312
1413393887850760500,-0.011783570051193237,-0.00835081934928894,0.0735209584236145,9.045883178710938,-0.16356508433818817,-3.032553195953369
1413393887855760500,0.005460783839225769,0.012330740690231323,0.07599562406539917,9.3407621383667,-0.24360735714435577,-3.12715482711792
1413393887860760500,0.009479478001594543,0.0030204057693481445,0.07863485813140869,8.79474925994873,0.05948544666171074,-2.7359726428985596
1413393887865760500,0.006927862763404846,0.012278616428375244,0.07190349698066711,9.784802436828613,0.10588662326335907,-3.07969331741333
1413393887870760500,-0.00494009256362915,0.004101604223251343,0.0650877058506012,8.955368995666504,0.03372332081198692,-2.7599196434020996
1413393887875760500,-0.009736329317092896,-0.011682510375976562,0.07969146966934204,9.58651065826416,0.007856707088649273,-3.2810144424438477
1413393887880760500,-0.009293124079704285,0.029230594635009766,0.08908563107252121,9.659510612487793,-0.13832318782806396,-3.139336585998535
1413393887885760500,-0.006522864103317261,0.009497761726379395,0.08504950255155563,9.170111656188965,-0.3010443449020386,-3.0153050422668457
1413393887890760500,-0.0058898478746414185,0.014511555433273315,0.0790138840675354,10.029489517211914,-0.09812943637371063,-2.9855682849884033
1413393887895760500,-0.004390209913253784,0.01899293065071106,0.07829578220844269,9.422754287719727,-0.12919645011425018,-2.883849859237671
1413393887900760500,-0.012014031410217285,0.015337347984313965,0.07527732849121094,9.727189064025879,-0.11544817686080933,-3.1513280868530273
1413393887905760500,-0.005013316869735718,0.030412524938583374,0.08561186492443085,9.701326370239258,-0.34332919120788574,-3.040884017944336
1413393887910760500,0.011722669005393982,0.023628056049346924,0.09208852797746658,9.153952598571777,-0.35875624418258667,-2.922393560409546
1413393887915760500,0.013054221868515015,0.02303290367126465,0.07481180131435394,9.613370895385742,0.0741380900144577,-2.996932029724121
1413393887920760500,0.0033210664987564087,0.025070369243621826,0.08047860860824585,9.047734260559082,0.108382448554039,-2.7980844974517822
1413393887925760500,-0.009761855006217957,0.012477010488510132,0.08658117800951004,9.555845260620117,0.06394845992326736,-3.149458885192871
1413393887930760500,-0.011296063661575317,0.04944247007369995,0.09681037068367004,9.677892684936523,0.04034021869301796,-3.1374847888946533
1413393887935760500,-0.005135461688041687,0.03948134183883667,0.10248813033103943,8.525055885314941,-0.19308386743068695,-2.8862338066101074
1413393887940760500,0.0004333704710006714,0.022179096937179565,0.08942995220422745,9.474117279052734,-0.2778572738170624,-2.8994414806365967
1413393887945760500,0.008975058794021606,0.05023166537284851,0.08387685567140579,9.054586410522461,-0.07978285849094391,-2.8397717475891113
1413393887950760500,0.0055155158042907715,0.005325645208358765,0.08796501904726028,8.72844409942627,0.05132090300321579,-2.8198018074035645
1413393887955760500,-0.008427977561950684,0.026290565729141235,0.07319638133049011,9.661311149597168,0.09741848707199097,-3.2079036235809326
1413393887960760500,-0.006943732500076294,0.03960227966308594,0.0817045271396637,8.982747077941895,0.04161463677883148,-2.9959583282470703
1413393887965760500,0.0026080161333084106,0.001792222261428833,0.08102717250585556,8.965760231018066,-0.21115678548812866,-2.8169312477111816
1413393887970760500,-0.001013234257698059,0.022235751152038574,0.05722663179039955,9.529501914978027,0.14775308966636658,-2.9394032955169678
1413393887975760500,-0.0015340745449066162,0.008295595645904541,0.07133257389068604,8.842692375183105,0.15825603902339935,-2.7171742916107178
1413393887980760500,-0.015511840581893921,0.004623442888259888,0.0648849755525589,9.995867729187012,0.03887421265244484,-3.2021732330322266
1413393887985760500,-0.019782796502113342,0.047256022691726685,0.06747592985630035,9.652064323425293,-0.09018219262361526,-2.8546690940856934
1413393887990760500,-0.011436179280281067,0.00545230507850647,0.0836586132645607,9.3430757522583,-0.4970492720603943,-2.83488392829895
1413393887995760500,-0.00030766427516937256,0.029093801975250244,0.08146080374717712,10.019590377807617,-0.5970285534858704,-2.9921464920043945
1413393888000760500,0.010391876101493835,0.038508981466293335,0.07619030773639679,9.202828407287598,0.1413572132587433,-2.970940113067627
1413393888005760500,0.01616165041923523,0.004011690616607666,0.08949091285467148,9.277491569519043,0.20497344434261322,-2.9220075607299805
1413393888010760500,0.006894692778587341,0.016675204038619995,0.09207334369421005,9.848210334777832,0.06937979906797409,-3.130742311477661
1413393888015760500,-0.011958375573158264,0.030733734369277954,0.08792036026716232,9.375710487365723,0.09772953391075134,-3.079465389251709
1413393888020760500,-0.01056620478630066,0.004513561725616455,0.10334261506795883,9.473920822143555,-0.2596961557865143,-2.9504776000976562
1413393888025760500,-0.00024999678134918213,0.022774726152420044,0.09060674905776978,9.447405815124512,-0.5637913942337036,-2.9813992977142334
1413393888030760500,0.0009756237268447876,0.012563377618789673,0.07262108474969864,9.015334129333496,-0.1278650015592575,-2.694568157196045
1413393888035760500,0.009814918041229248,0.0019205808639526367,0.08533817529678345,9.333813667297363,0.16558921337127686,-3.034125566482544
1413393888040760500,-0.002260863780975342,0.01870208978652954,0.08303090929985046,9.236014366149902,0.1785159856081009,-2.913949966430664
1413393888045760500,-0.01472201943397522,0.011732041835784912,0.07461033016443253,9.08166217803955,-0.0409720242023468,-3.0103843212127686
1413393888050760500,-0.014746442437171936,0.024952590465545654,0.08107230812311172,9.473580360412598,-0.09747974574565887,-3.01336407661438
1413393888055760500,-0.0022785812616348267,0.035464346408843994,0.07885582745075226,8.974100112915039,-0.30830803513526917,-2.90578031539917
1413393888060760500,0.008828118443489075,0.014539927244186401,0.07104205340147018,9.268701553344727,-0.19532668590545654,-2.890354871749878
1413393888065760500,0.011048078536987305,0.020169943571090698,0.08028893172740936,9.145062446594238,0.09992124140262604,-2.889435291290283
1413393888070760500,0.007728159427642822,0.011089831590652466,0.08734261244535446,9.325782775878906,0.13102249801158905,-3.0447332859039307
1413393888075760500,-0.00981082022190094,0.013780534267425537,0.07889918982982635,9.627918243408203,0.18658985197544098,-3.218729019165039
1413393888080760500,-0.02387377619743347,0.03620433807373047,0.08177420496940613,9.522700309753418,0.06590498238801956,-3.137463331222534
1413393888085760500,-0.014730378985404968,0.027073264122009277,0.08299285173416138,9.178962707519531,-0.35824573040008545,-3.0704150199890137
1413393888090760500,0.0011301189661026,0.024315714836120605,0.07726334035396576,9.57846450805664,-0.29391852021217346,-3.0080928802490234
1413393888095760500,0.012362256646156311,0.021619796752929688,0.07889605313539505,9.144638061523438,-0.07101637870073318,-2.9226441383361816
1413393888100760500,0.013994842767715454,0.015908271074295044,0.0838717371225357,9.587991714477539,0.024089191108942032,-3.127357006072998
1413393888105760500,0.004216834902763367,0.02003246545791626,0.08030436933040619,9.603702545166016,0.1296350508928299,-3.1371777057647705
1413393888110760500,-0.015464156866073608,0.04262593388557434,0.06919080018997192,9.695734977722168,0.26989856362342834,-3.226034164428711
1413393888115760500,-0.018335089087486267,0.049433767795562744,0.08233101665973663,9.2050199508667,-0.1539137214422226,-2.793152093887329
1413393888120760500,-0.005872413516044617,0.023585587739944458,0.09046544879674911,9.440019607543945,-0.4494316577911377,-2.849391460418701
1413393888125760500,0.006660580635070801,0.030719339847564697,0.0892404094338417,9.12805461883545,-0.18564684689044952,-2.8140060901641846
1413393888130760500,0.011758297681808472,0.017287790775299072,0.09306012839078903,9.465367317199707,0.042187005281448364,-2.9791207313537598
1413393888135760500,0.010527685284614563,0.023997008800506592,0.08807339519262314,9.440329551696777,-0.02613348327577114,-3.069220542907715
1413393888140760500,-0.015465989708900452,0.027852118015289307,0.07468359172344208,9.572762489318848,0.2771783769130707,-3.1687145233154297
1413393888145760500,-0.024570614099502563,0.05228838324546814,0.0732571929693222,9.213157653808594,-0.03866640850901604,-2.83355975151062
1413393888150760500,-0.009934753179550171,0.03541231155395508,0.08073325455188751,8.982400894165039,-0.47336122393608093,-2.8388924598693848
1413393888155760500,0.008699193596839905,0.017310798168182373,0.08293117582798004,9.078201293945312,-0.415317565202713,-2.815426826477051
1413393888160760500,0.017910495400428772,0.022262394428253174,0.08042187243700027,9.080078125,0.01968831568956375,-2.7913315296173096
1413393888165760500,0.013359993696212769,0.016444027423858643,0.08258315175771713,9.375470161437988,0.00783794280141592,-3.1248250007629395
1413393888170760500,3.822147846221924e-05,0.01079908013343811,0.07263991981744766,9.236950874328613,0.35897523164749146,-2.9081594944000244
1413393888175760500,-0.021869376301765442,0.025896519422531128,0.07398460805416107,9.556330680847168,0.3113720715045929,-3.061707019805908
1413393888180760500,-0.03516066074371338,0.04033660888671875,0.0766090452671051,9.096878051757812,-0.28486618399620056,-2.768125295639038
1413393888185760500,-0.013480722904205322,0.0045278072357177734,0.09181810170412064,9.242232322692871,-0.7352628111839294,-2.8744921684265137
1413393888190760500,0.015094026923179626,0.013198524713516235,0.0872519314289093,9.511675834655762,-0.2023177146911621,-2.989901542663574
1413393888195760500,0.020718589425086975,0.012498229742050171,0.09303893893957138,9.342206001281738,0.05067960545420647,-2.9412052631378174
1413393888200760500,0.009173855185508728,-0.0017406940460205078,0.07549697160720825,9.710445404052734,0.11165807396173477,-3.104912519454956
1413393888205760500,-0.007529079914093018,0.003498077392578125,0.06350727379322052,9.766732215881348,0.33318448066711426,-3.2281270027160645
1413393888210760500,-0.02322140336036682,0.041326701641082764,0.06488731503486633,9.531597137451172,0.1071733832359314,-3.088472604751587
1413393888215760500,-0.020506560802459717,0.020703256130218506,0.08624425530433655,8.982328414916992,-0.3663729429244995,-2.938281774520874
1413393888220760500,-0.0010176897048950195,0.00752335786819458,0.08634928613901138,9.471404075622559,-0.5549364686012268,-2.9334914684295654
1413393888225760500,0.017270714044570923,0.020352184772491455,0.0979120209813118,9.332869529724121,-0.15293611586093903,-2.9969232082366943
1413393888230760500,0.01610778272151947,0.016578376293182373,0.08963422477245331,9.46635913848877,0.1312735229730606,-3.2239952087402344
1413393888235760500,0.004281371831893921,0.012245416641235352,0.078163281083107,9.4825439453125,0.2601781189441681,-3.0799434185028076
1413393888240760500,-0.017479151487350464,0.014856606721878052,0.07255592197179794,9.75136661529541,0.24392147362232208,-3.2916500568389893
1413393888245760500,-0.028117910027503967,0.05230438709259033,0.08007047325372696,9.032312393188477,-0.2268487960100174,-2.8413403034210205
1413393888250760500,-0.005793571472167969,0.029669106006622314,0.09386373311281204,9.105873107910156,-0.6031328439712524,-2.8720462322235107
1413393888255760500,0.018465682864189148,0.018684715032577515,0.09980999678373337,9.176629066467285,-0.3246540427207947,-2.7749745845794678
1413393888260760500,0.02638724446296692,0.02314808964729309,0.09102483838796616,9.317368507385254,-0.022797981277108192,-2.994567394256592
1413393888265760500,0.01483510434627533,0.022783339023590088,0.08044615387916565,9.38432788848877,0.24408240616321564,-3.1331090927124023
1413393888270760500,-0.013946577906608582,0.017841964960098267,0.05026434361934662,9.490528106689453,0.24471472203731537,-3.1033334732055664
1413393888275760500,-0.023073285818099976,0.03701692819595337,0.05644802376627922,9.35943603515625,0.1804070919752121,-3.0529944896698
1413393888280760500,-0.023490041494369507,0.04878738522529602,0.0639539510011673,9.008291244506836,-0.2265809029340744,-2.6701366901397705
1413393888285760500,-0.008117228746414185,0.021373510360717773,0.09184520691633224,8.997815132141113,-0.5124593377113342,-2.6757113933563232
1413393888290760500,0.008313268423080444,0.009781330823898315,0.10081654042005539,9.471919059753418,0.205398827791214,-3.027719497680664
1413393888295760500,0.003406912088394165,0.020187675952911377,0.0890021026134491,9.252782821655273,0.27921581268310547,-2.915180206298828
1413393888300760500,-0.013131469488143921,0.011482208967208862,0.07269104570150375,9.629161834716797,-0.10136176645755768,-3.3147213459014893
1413393888305760500,-0.01111796498298645,0.015731900930404663,0.07932797074317932,9.643717765808105,-0.0993400365114212,-3.026589870452881
1413393888310760500,0.0025826692581176758,0.04097646474838257,0.0720246285200119,9.718324661254883,-0.700766921043396,-3.026160478591919
1413393888315760500,0.032541096210479736,0.04446563124656677,0.10084863752126694,9.179115295410156,-0.5546635985374451,-2.736802816390991
1413393888320760500,0.05157783627510071,0.0068926215171813965,0.11608948558568954,9.365180015563965,-0.0959131196141243,-2.971435546875
1413393888325760500,0.02020326256752014,0.031105607748031616,0.09596855938434601,9.767913818359375,0.687861979007721,-3.2096617221832275
1413393888330760500,-0.03435507416725159,0.023077160120010376,0.0672338679432869,9.287689208984375,0.8926238417625427,-3.1339473724365234
1413393888335760500,-0.05225847661495209,0.023403644561767578,0.0656978189945221,9.393218994140625,0.14560365676879883,-3.1104533672332764
1413393888340760500,-0.057068124413490295,0.041653603315353394,0.049641504883766174,9.367630004882812,-0.4814116656780243,-2.706306219100952
1413393888345760500,-0.019298210740089417,0.008208662271499634,0.08050265908241272,8.955857276916504,-0.748019278049469,-2.878647804260254
1413393888350760500,0.0374554842710495,0.015847742557525635,0.1165418028831482,9.325584411621094,-0.3994140028953552,-2.89870023727417
1413393888355760500,0.04547776281833649,0.009630262851715088,0.11126388609409332,9.34241771697998,0.2777886390686035,-3.1103248596191406
1413393888360760500,0.014208436012268066,0.022902190685272217,0.08826290816068649,9.548932075500488,0.43989574909210205,-3.103553056716919
1413393888365760500,-0.01079648733139038,0.027807801961898804,0.07339809089899063,9.661130905151367,-0.05160916969180107,-3.226855516433716
1413393888370760500,-0.012656569480895996,0.04665249586105347,0.05190833657979965,9.555042266845703,-0.3020961284637451,-2.869870662689209
1413393888375760500,0.010692045092582703,0.039776891469955444,0.08263273537158966,8.93387508392334,-0.019891664385795593,-2.7167463302612305
1413393888380760500,0.0053053200244903564,0.03428053855895996,0.08250204473733902,9.277007102966309,0.36977264285087585,-3.1955323219299316
1413393888385760500,-0.03442981839179993,0.05099448561668396,0.07168248295783997,9.212587356567383,0.44235432147979736,-3.0776853561401367
1413393888390760500,-0.05501669645309448,0.0291784405708313,0.07447349280118942,9.360587120056152,0.16346606612205505,-3.150743246078491
1413393888395760500,-0.051140159368515015,0.042673587799072266,0.061653975397348404,9.327003479003906,-0.865630567073822,-2.649980068206787
1413393888400760500,-0.005963563919067383,0.02969309687614441,0.07747456431388855,8.638821601867676,-0.8553395867347717,-2.6174886226654053
1413393888405760500,0.045716509222984314,-0.002449125051498413,0.092671699821949,9.283281326293945,-0.6850611567497253,-2.9276676177978516
1413393888410760500,0.05170711874961853,-0.001608520746231079,0.07771632075309753,9.298235893249512,0.07372978329658508,-2.947911500930786
1413393888415760500,0.03666318953037262,0.0012974739074707031,0.07430406659841537,9.60504150390625,0.25179269909858704,-3.054802417755127
1413393888420760500,0.004943683743476868,0.002534538507461548,0.0866476371884346,9.646592140197754,0.5054277777671814,-2.9348576068878174
1413393888425760500,-0.017079204320907593,0.016774803400039673,0.09760189801454544,9.351594924926758,0.45856204628944397,-2.8329761028289795
1413393888430760500,-0.047255828976631165,0.004946470260620117,0.08799485862255096,9.088926315307617,0.5170369744300842,-2.943678379058838
1413393888435760500,-0.06398972868919373,0.008332699537277222,0.07770529389381409,9.772472381591797,-0.3517908453941345,-3.1213326454162598
1413393888440760500,-0.05395543575286865,0.017858773469924927,0.05231482535600662,9.160696983337402,-0.6032251715660095,-2.8610801696777344
1413393888445760500,0.00608024001121521,0.012734979391098022,0.09020916372537613,9.614604949951172,-0.8981503248214722,-2.9843173027038574
1413393888450760500,0.042255982756614685,0.03751376271247864,0.0917419046163559,9.2697114944458,-0.11409052461385727,-2.9565858840942383
1413393888455760500,0.05542925000190735,0.030098915100097656,0.10898160189390182,9.253328323364258,0.20381015539169312,-3.0358433723449707
1413393888460760500,0.02407228946685791,0.04399415850639343,0.06184889376163483,9.212321281433105,0.15339632332324982,-3.084123134613037
1413393888465760500,0.01089005172252655,0.014700323343276978,0.0839824229478836,9.415791511535645,0.3749491572380066,-3.144479751586914
1413393888470760500,0.002566233277320862,0.028551995754241943,0.08981140702962875,9.456719398498535,0.18998070061206818,-3.0316383838653564
1413393888475760500,-0.02281571924686432,0.027556031942367554,0.09322869777679443,8.648811340332031,0.49439653754234314,-2.8776795864105225
1413393888480760500,-0.04922010004520416,0.006035566329956055,0.09111685305833817,9.383389472961426,-0.01418855506926775,-3.1006436347961426
1413393888485760500,-0.058676064014434814,0.007441103458404541,0.05823399871587753,9.23994255065918,-0.5137107372283936,-3.1026949882507324
1413393888490760500,-0.004332304000854492,-0.002483367919921875,0.08352716267108917,9.578723907470703,-0.6618061065673828,-2.8795278072357178
1413393888495760500,0.021769985556602478,0.011312603950500488,0.08114034682512283,9.996221542358398,-0.5880475044250488,-3.326974391937256
1413393888500760500,0.029789984226226807,0.052192866802215576,0.07869252562522888,8.895087242126465,0.05085272714495659,-2.62945294380188
1413393888505760500,0.013524800539016724,0.022449880838394165,0.0715692788362503,9.670907020568848,-0.08160116523504257,-3.205339193344116
1413393888510760500,0.00863996148109436,0.042084455490112305,0.07904629409313202,9.616716384887695,-0.04315183684229851,-3.136249303817749
1413393888515760500,0.027852386236190796,0.02949315309524536,0.11292608082294464,9.58005428314209,0.21255554258823395,-3.041130781173706
1413393888520760500,0.0023475587368011475,0.08988207578659058,0.10453928261995316,9.281373023986816,0.46767207980155945,-3.1884334087371826
1413393888525760500,-0.03038957715034485,0.054167598485946655,0.10151221603155136,8.73973274230957,0.25627484917640686,-2.5868072509765625
1413393888530760500,-0.05362866818904877,0.030131638050079346,0.06323345005512238,9.471037864685059,-0.2607508599758148,-3.398871660232544
1413393888535760500,-0.02380397915840149,0.05647757649421692,0.07236240804195404,9.20098876953125,-0.5053575038909912,-2.7634530067443848
1413393888540760500,0.012758135795593262,0.026535838842391968,0.0860273465514183,9.123235702514648,-0.6434645056724548,-2.987673044204712
1413393888545760500,0.0260227769613266,0.04201272130012512,0.07797257602214813,8.615342140197754,-0.21021012961864471,-2.535463571548462
1413393888550760500,0.017405003309249878,-0.007006466388702393,0.055655013769865036,8.66153621673584,-0.17727318406105042,-2.5498883724212646
1413393888555760500,0.018693387508392334,-0.011877566576004028,0.05833198130130768,9.9108247756958,0.14438524842262268,-3.3361010551452637
1413393888560760500,0.016045868396759033,0.025046944618225098,0.07453639060258865,9.52247428894043,0.604493260383606,-3.1637208461761475
1413393888565760500,-0.0026180297136306763,0.03238162398338318,0.11057250946760178,9.167862892150879,0.43499696254730225,-2.6477534770965576
1413393888570760500,-0.03667441010475159,0.04250684380531311,0.08374028652906418,9.107226371765137,-0.02376536652445793,-2.6596100330352783
1413393888575760500,-0.03210887312889099,-0.005355507135391235,0.07442968338727951,9.451102256774902,-0.3752310574054718,-2.914396286010742
1413393888580760500,-0.006530106067657471,0.02436041831970215,0.08311805874109268,9.828978538513184,-0.4652770757675171,-3.1469366550445557
1413393888585760500,0.007796123623847961,0.01836255192756653,0.10971806943416595,9.605887413024902,-0.05662490800023079,-2.7906789779663086
1413393888590760500,0.007529750466346741,0.030268430709838867,0.09883709251880646,9.65572452545166,-0.17186374962329865,-3.0073814392089844
1413393888595760500,-0.002800166606903076,0.026430338621139526,0.06520262360572815,9.448474884033203,-0.5244656205177307,-2.633152723312378
1413393888600760500,0.013469576835632324,0.025884121656417847,0.05136658623814583,9.651022911071777,-0.3760327696800232,-3.1499459743499756
1413393888605760500,0.02754470705986023,0.010923534631729126,0.06881958246231079,9.677380561828613,0.0013094634050503373,-2.6357200145721436
1413393888610760500,0.009213268756866455,0.025656849145889282,0.07911558449268341,9.630319595336914,-0.007164591457694769,-2.7621169090270996
1413393888615760500,-0.012818753719329834,0.055031925439834595,0.07267765700817108,9.08413028717041,0.09049075841903687,-2.5687737464904785
1413393888620760500,-0.018019437789916992,0.013166427612304688,0.08920519798994064,9.178656578063965,0.04244840145111084,-3.137863874435425
1413393888625760500,-0.007665157318115234,0.023973733186721802,0.11609277874231339,9.561681747436523,0.26830872893333435,-3.339754104614258
1413393888630760500,-0.01931937038898468,0.025812149047851562,0.11693593859672546,9.326396942138672,-0.09006339311599731,-3.107928991317749
1413393888635760500,-0.020946815609931946,0.03787022829055786,0.08297540247440338,9.11587142944336,-0.3016514182090759,-2.940953493118286
1413393888640760500,0.015460237860679626,-0.0004153251647949219,0.08326531201601028,8.997568130493164,-0.5463137030601501,-2.753993034362793
1413393888645760500,0.03412163257598877,0.008420020341873169,0.08787023276090622,9.585334777832031,0.06524346023797989,-3.1521224975585938
1413393888650760500,0.00876857340335846,0.030646055936813354,0.07724636793136597,9.301506996154785,0.24668264389038086,-2.9893741607666016
1413393888655760500,-0.01721157133579254,0.06176632642745972,0.05322691425681114,9.403070449829102,-0.01628950797021389,-3.2399604320526123
1413393888660760500,0.002069711685180664,0.002597630023956299,0.07151201367378235,8.408571243286133,-0.02995213121175766,-2.3834712505340576
1413393888665760500,0.011467501521110535,0.025580137968063354,0.09984994679689407,9.775876998901367,0.4012700021266937,-3.148608922958374
1413393888670760500,-0.02001577615737915,0.07039126753807068,0.07020687311887741,9.389739990234375,-0.1954573094844818,-3.0762760639190674
1413393888675760500,-0.022944852709770203,0.02237105369567871,0.0817047581076622,8.615499496459961,-0.6194342970848083,-2.5233404636383057
1413393888680760500,0.023915797472000122,0.016001492738723755,0.09778525680303574,9.505685806274414,-0.390866219997406,-3.0587992668151855
1413393888685760500,0.0058469027280807495,0.01572704315185547,0.09902874380350113,9.242280960083008,0.5669921040534973,-3.1358988285064697
1413393888690760500,-0.03303651511669159,0.04010966420173645,0.05594656988978386,9.645291328430176,-0.21266987919807434,-3.2019548416137695
1413393888695760500,-0.010107025504112244,-0.018114328384399414,0.06027825549244881,8.595769882202148,-0.5644422769546509,-2.443167209625244
1413393888700760500,0.024867385625839233,0.023762881755828857,0.06618593633174896,9.867025375366211,-0.12126176059246063,-2.9819724559783936
1413393888705760500,0.0058682262897491455,0.016963601112365723,0.07653746008872986,9.536593437194824,0.5172795057296753,-3.3954083919525146
1413393888710760500,-0.028885334730148315,0.02689230442047119,0.056011248379945755,9.098817825317383,-0.3024642765522003,-2.527059555053711
1413393888715760500,0.013720259070396423,-0.0024729371070861816,0.09202031791210175,9.759241104125977,-0.8365424275398254,-2.9005608558654785
1413393888720760500,0.03368116915225983,0.01210707426071167,0.1159580796957016,9.422390937805176,0.6557058691978455,-3.4206454753875732
1413393888725760500,-0.011408478021621704,0.06286877393722534,0.08575902134180069,10.00745677947998,0.26415207982063293,-2.9872372150421143
1413393888730760500,-0.029593318700790405,0.03014722466468811,0.09205256402492523,9.19497013092041,-0.7072414755821228,-3.0191988945007324
1413393888735760500,0.012029841542243958,0.044852614402770996,0.1047806367278099,8.861833572387695,0.09225860983133316,-2.4906187057495117
1413393888740760500,0.0019880831241607666,0.05791342258453369,0.10386974364519119,10.495089530944824,0.23161832988262177,-3.667830467224121
1413393888745760500,-0.02423781156539917,0.04846549034118652,0.0579579658806324,8.406707763671875,-0.4176349341869354,-2.3854007720947266
1413393888750760500,0.0039374083280563354,0.013840943574905396,0.06390869617462158,8.74826431274414,-0.3262902498245239,-2.6628284454345703
1413393888755760500,0.0357738733291626,0.04165717959403992,0.11044792085886002,10.469500541687012,0.367328941822052,-3.6434450149536133
1413393888760760500,-0.01139792799949646,0.07999023795127869,0.06106201931834221,8.434601783752441,-0.054816458374261856,-2.5587899684906006
1413393888765760500,-0.01501418650150299,-0.00937226414680481,0.0366569422185421,8.927736282348633,-0.5237386226654053,-2.5905182361602783
1413393888770760500,0.015390440821647644,0.013109475374221802,0.0997493639588356,9.822826385498047,0.5400126576423645,-3.6314821243286133
1413393888775760500,-0.009234413504600525,0.07815828919410706,0.07136707007884979,8.508761405944824,-0.27388447523117065,-2.7863950729370117
1413393888780760500,-0.03928622603416443,0.01656520366668701,0.024799950420856476,8.73963737487793,-0.5881296396255493,-2.5370383262634277
1413393888785760500,0.009885862469673157,0.01142147183418274,0.10765678435564041,9.897628784179688,0.4098372161388397,-3.4763214588165283
1413393888790760500,0.010439574718475342,0.07236140966415405,0.11207222938537598,8.958234786987305,-0.2914294898509979,-2.782106399536133
1413393888795760500,-0.006716325879096985,0.009851038455963135,0.0642767995595932,8.821118354797363,-0.785988450050354,-2.375443696975708
1413393888800760500,0.018270939588546753,-0.03393825888633728,0.09841296821832657,8.947509765625,0.5348983407020569,-2.9879655838012695
1413393888805760500,0.011843234300613403,0.011064350605010986,0.11856180429458618,9.83145523071289,0.5410374999046326,-3.2544631958007812
1413393888810760500,-0.026954486966133118,0.012243837118148804,0.0632394403219223,9.576688766479492,-0.8628862500190735,-2.750258445739746
1413393888815760500,-0.017173275351524353,-0.028505027294158936,0.05187206342816353,8.711881637573242,-0.21858254075050354,-2.8035995960235596
1413393888820760500,0.007622435688972473,0.012048959732055664,0.09493998438119888,10.349043846130371,0.4373880922794342,-3.475182294845581
1413393888825760500,-0.011360764503479004,0.035599976778030396,0.10060995817184448,9.715371131896973,-0.3860376179218292,-2.672750949859619
1413393888830760500,-0.011801064014434814,-0.009411722421646118,0.05003747344017029,8.514139175415039,-0.37755829095840454,-2.8568522930145264
1413393888835760500,0.03051808476448059,-0.0024588406085968018,0.11868148297071457,10.292325973510742,0.31891167163848877,-3.288684844970703
1413393888840760500,0.0021875351667404175,0.058254748582839966,0.10968231409788132,9.81462287902832,-0.12301427870988846,-3.3540337085723877
1413393888845760500,-0.012768372893333435,0.021819323301315308,0.06296475231647491,7.991942405700684,-0.07143986970186234,-2.418548583984375
1413393888850760500,0.016598165035247803,0.01126641035079956,0.11345387250185013,9.86860466003418,0.409260094165802,-3.329028844833374
1413393888855760500,-0.00258636474609375,0.06615856289863586,0.09310584515333176,9.772247314453125,0.03990760073065758,-3.21370530128479
1413393888860760500,-0.02767409384250641,0.03664052486419678,0.01578466221690178,7.73716926574707,-0.2008754462003708,-2.3206005096435547
1413393888865760500,-0.00225241482257843,-0.01761651039123535,0.08200452476739883,9.991283416748047,0.49843883514404297,-3.3267104625701904
1413393888870760500,-0.008735999464988708,0.043671220541000366,0.08678589016199112,9.664874076843262,0.09873707592487335,-3.1984670162200928
1413393888875760500,-0.025582492351531982,0.04929697513580322,0.0329388752579689,8.553207397460938,-0.4651833474636078,-2.3684637546539307
1413393888880760500,0.003978759050369263,-0.014467418193817139,0.08843677490949631,9.449956893920898,0.1477362960577011,-3.120572566986084
1413393888885760500,0.022877633571624756,0.022673577070236206,0.11898263543844223,9.80409049987793,-0.29365113377571106,-3.181626558303833
1413393888890760500,-0.0026741474866867065,0.048948049545288086,0.062105368822813034,8.698922157287598,-0.6607730388641357,-2.216630697250366
1413393888895760500,0.005336403846740723,0.005241036415100098,0.08886326104402542,10.284601211547852,0.3842865526676178,-3.554924964904785
1413393888900760500,0.003504917025566101,0.037231504917144775,0.12065327912569046,9.732226371765137,0.11574673652648926,-3.1920247077941895
1413393888905760500,-0.03810577094554901,0.060189247131347656,0.04539351910352707,9.483386993408203,-0.7872709035873413,-3.0906879901885986
1413393888910760500,-0.03055042028427124,0.029673486948013306,0.03854604810476303,9.416290283203125,0.04280325770378113,-3.100545883178711
1413393888915760500,0.005518496036529541,0.013239741325378418,0.10737452656030655,9.078286170959473,-0.07646510004997253,-2.909148931503296
1413393888920760500,-0.007711514830589294,0.045966506004333496,0.057475004345178604,9.930755615234375,-1.3046671152114868,-3.0338499546051025
1413393888925760500,-0.0002861618995666504,0.02886331081390381,0.037652961909770966,8.967984199523926,0.14903131127357483,-3.3093948364257812
1413393888930760500,0.03756389021873474,0.016571044921875,0.13976997137069702,8.721549034118652,0.523952841758728,-2.6928648948669434
1413393888935760500,0.009035646915435791,0.026163160800933838,0.0975111648440361,10.085012435913086,-0.8722977042198181,-2.790250301361084
1413393888940760500,-0.009804800152778625,0.03615105152130127,0.062490466982126236,9.455865859985352,0.28275632858276367,-2.9521517753601074
1413393888945760500,0.03533686697483063,0.008088231086730957,0.1556386649608612,9.490921974182129,0.0797177255153656,-2.866746664047241
1413393888950760500,-0.01544518768787384,0.022307246923446655,0.08412422239780426,9.578091621398926,-0.3378303050994873,-3.1824424266815186
1413393888955760500,-0.029541894793510437,0.04826393723487854,0.066593699157238,9.017462730407715,0.8359822034835815,-2.8388891220092773
1413393888960760500,0.0029576122760772705,0.002390831708908081,0.15754863619804382,10.069533348083496,-0.212309330701828,-3.2705888748168945
1413393888965760500,-0.03128926455974579,0.06730255484580994,0.06992116570472717,9.829750061035156,-0.7964021563529968,-3.358813524246216
1413393888970760500,-0.017610162496566772,0.0859619677066803,0.06898080557584763,8.678558349609375,0.3253624439239502,-2.5951879024505615
1413393888975760500,0.036395907402038574,0.045009076595306396,0.13415992259979248,9.575150489807129,-0.6752891540527344,-2.59083890914917
1413393888980760500,0.012739956378936768,0.05565646290779114,0.054678793996572495,9.214130401611328,-0.8055079579353333,-2.9281558990478516
1413393888985760500,0.021082520484924316,0.049052029848098755,0.05787862092256546,8.968835830688477,0.5122994184494019,-2.6250884532928467
1413393888990760500,0.03874647617340088,0.023898988962173462,0.10380269587039948,10.046829223632812,0.016561053693294525,-3.2662854194641113
1413393888995760500,-0.006647035479545593,0.08134239912033081,0.027681592851877213,8.936120986938477,0.5436295866966248,-3.124560594558716
1413393889000760500,-0.01828436553478241,0.037688374519348145,0.09975897520780563,8.445381164550781,0.7028807401657104,-2.4868052005767822
1413393889005760500,-0.0335393100976944,0.03575962781906128,0.0736662894487381,9.994393348693848,0.031943488866090775,-3.580697774887085
1413393889010760500,-0.055548012256622314,0.07520389556884766,0.04603804647922516,8.000219345092773,0.12507690489292145,-2.692549467086792
1413393889015760500,-0.019816681742668152,-0.013624399900436401,0.10048603266477585,8.764341354370117,-0.3861812353134155,-2.449991226196289
1413393889020760500,-0.016349762678146362,0.02394026517868042,0.07711689174175262,9.526378631591797,-0.6944921016693115,-3.33451509475708
1413393889025760500,-0.0002904832363128662,0.00816500186920166,0.08093772828578949,8.220341682434082,-0.22523026168346405,-2.3853843212127686
1413393889030760500,0.03351078927516937,-0.040046632289886475,0.10405298322439194,10.143406867980957,-0.7041648626327515,-2.976127862930298
1413393889035760500,0.027048319578170776,0.050531595945358276,0.05087637901306152,9.71388053894043,-0.44365260004997253,-2.917799711227417
1413393889040760500,0.037605926394462585,-0.01184883713722229,0.07680355757474899,8.993356704711914,0.3316645920276642,-2.263838768005371
1413393889045760500,0.008920922875404358,-0.010789573192596436,0.06086600944399834,11.049419403076172,0.16890880465507507,-3.78169584274292
1413393889050760500,-0.031030863523483276,0.11612197756767273,0.02512187883257866,8.631570816040039,0.2442370504140854,-2.72920560836792
1413393889055760500,-0.02596569061279297,0.008971035480499268,0.07132856547832489,9.470439910888672,-0.07922516763210297,-2.801652669906616
1413393889060760500,-0.033378615975379944,0.08266285061836243,0.06495264917612076,10.164471626281738,-0.057319361716508865,-3.3164761066436768
1413393889065760500,-0.02394820749759674,0.041853904724121094,0.10462195426225662,8.091984748840332,0.023336252197623253,-1.95305597782135
1413393889070760500,-0.0064429789781570435,-0.03358006477355957,0.11795813590288162,9.88365364074707,-0.722463846206665,-3.033576011657715
1413393889075760500,0.009998872876167297,0.05114394426345825,0.10686704516410828,9.176065444946289,-0.5236784219741821,-3.220557928085327
1413393889080760500,0.03779982030391693,-0.006040632724761963,0.13201914727687836,8.7788724899292,-0.16035260260105133,-2.8511810302734375
1413393889085760500,0.030544281005859375,-0.00828668475151062,0.10727880150079727,10.355509757995605,-0.027266541495919228,-3.1095194816589355
1413393889090760500,0.028666913509368896,0.046271055936813354,0.101176917552948,8.75267505645752,0.07309352606534958,-2.7672064304351807
1413393889095760500,0.02377881109714508,-0.012656837701797485,0.09918798506259918,9.973819732666016,0.10449808835983276,-3.114752769470215
1413393889100760500,-0.008122175931930542,0.015209674835205078,0.0649413913488388,10.057633399963379,0.44103771448135376,-3.1805360317230225
1413393889105760500,-0.021343201398849487,0.02410021424293518,0.07133148610591888,9.835075378417969,0.571742057800293,-2.920576333999634
1413393889110760500,-0.04464229941368103,0.03396344184875488,0.05356207489967346,10.333256721496582,-0.01879730634391308,-2.8976659774780273
1413393889115760500,-0.015256762504577637,0.08151096105575562,0.10161451250314713,9.26169490814209,-0.19564802944660187,-3.4958767890930176
1413393889120760500,-0.0018004179000854492,0.10623037815093994,0.11451253294944763,9.397422790527344,-0.7337483167648315,-2.8132057189941406
1413393889125760500,0.008283734321594238,0.09493166208267212,0.10876409709453583,8.5573091506958,-0.5113136768341064,-2.8514528274536133
1413393889130760500,0.04179757833480835,0.08589544892311096,0.12471325695514679,8.517327308654785,0.2890496850013733,-3.027454376220703
1413393889135760500,0.018378153443336487,0.009266942739486694,0.10618042200803757,9.400080680847168,0.09941940754652023,-2.341639995574951
1413393889140760500,-8.404254913330078e-05,0.011905133724212646,0.09474176913499832,8.459784507751465,0.3615541458129883,-3.512089729309082
1413393889145760500,-0.024644121527671814,-0.006291091442108154,0.07486710697412491,8.771841049194336,-0.02212711237370968,-2.477534055709839
1413393889150760500,-0.032747700810432434,-0.036966472864151,0.04488643258810043,9.232315063476562,-0.1028682291507721,-3.352475166320801
1413393889155760500,0.002621263265609741,-0.025346457958221436,0.07470233738422394,9.467751502990723,-0.3276817798614502,-3.1211884021759033
1413393889160760500,-0.009873196482658386,-0.020469695329666138,0.03672097995877266,10.086119651794434,-0.030986398458480835,-2.8691608905792236
1413393889165760500,0.01775185763835907,0.04063871502876282,0.08032213151454926,9.550135612487793,0.9405643343925476,-3.19649600982666
1413393889170760500,-0.0018646568059921265,0.06288045644760132,0.0655243843793869,9.51993179321289,-0.026203578338027,-2.47312331199646
1413393889175760500,-0.0023690462112426758,0.043970972299575806,0.09975311905145645,8.549100875854492,0.7922794222831726,-3.0261757373809814
1413393889180760500,-0.0035591721534729004,0.10260745882987976,0.10954105108976364,10.585357666015625,-0.5070211291313171,-3.612691879272461
1413393889185760500,-0.017367050051689148,0.05187410116195679,0.07831387221813202,8.209486961364746,-0.5554306507110596,-1.443405270576477
1413393889190760500,0.034775510430336,-0.005192756652832031,0.12798833847045898,9.583146095275879,-0.5791348814964294,-3.8706552982330322
1413393889195760500,0.018326938152313232,0.04841291904449463,0.05929064005613327,9.485594749450684,-0.9612594842910767,-2.339163064956665
1413393889200760500,0.020559877157211304,-0.08857166767120361,0.09526725113391876,7.764544486999512,0.6583496332168579,-2.962191343307495
1413393889205760500,-0.008791342377662659,0.017562389373779297,0.05450759828090668,11.246703147888184,-0.4182743430137634,-2.9734256267547607
1413393889210760500,-0.04099389910697937,-0.01339992880821228,0.04951927438378334,8.14999008178711,0.723362386226654,-2.205124616622925
1413393889215760500,-0.006607964634895325,0.035280078649520874,0.08927533775568008,12.271997451782227,-0.8990300297737122,-4.128297805786133
1413393889220760500,-0.022540763020515442,0.053343504667282104,0.051395829766988754,8.885087966918945,-0.09499911218881607,-1.6340584754943848
1413393889225760500,0.029095947742462158,0.02548086643218994,0.10830751806497574,10.833741188049316,-0.08939150720834732,-4.869378566741943
1413393889230760500,0.00030517578125,0.15831732749938965,0.020889900624752045,9.465601921081543,-0.48250600695610046,-2.3240246772766113
1413393889235760500,0.01831050217151642,0.01818060874938965,0.11247146874666214,8.307966232299805,0.8451399803161621,-3.445544481277466
1413393889240760500,-0.006358727812767029,0.1504344642162323,0.04764068126678467,9.675304412841797,-1.0758382081985474,-2.906756639480591
1413393889245760500,0.0014027655124664307,-0.010546267032623291,0.10123550891876221,6.409060001373291,0.8624746203422546,-1.6361244916915894
1413393889250760500,0.01098911464214325,0.03325355052947998,0.10234618932008743,10.592595100402832,-0.8013644218444824,-3.3454978466033936
1413393889255760500,0.0071465373039245605,-0.031131476163864136,0.10581047832965851,7.196004867553711,0.5656131505966187,-1.2999584674835205
1413393889260760500,0.036766067147254944,-0.08104828000068665,0.14704862236976624,10.20378589630127,-0.8067544102668762,-4.500991344451904
1413393889265760500,0.005879044532775879,0.023405373096466064,0.07645238935947418,7.770963191986084,0.5778733491897583,-1.4742581844329834
1413393889270760500,0.022174403071403503,-0.052700966596603394,0.11796478927135468,10.588035583496094,0.09514864534139633,-4.584122180938721
1413393889275760500,-0.049944713711738586,0.06459701061248779,0.0004116035997867584,9.05045223236084,0.014926087111234665,-2.0895204544067383
1413393889280760500,-0.007658854126930237,-0.02085775136947632,0.11366979777812958,9.295717239379883,0.4756776690483093,-3.4528017044067383
1413393889285760500,-0.025165528059005737,0.08270213007926941,0.021672256290912628,9.580161094665527,-1.0833861827850342,-2.576582908630371
1413393889290760500,0.025042012333869934,-0.026121139526367188,0.10113073140382767,7.6677398681640625,0.12765070796012878,-2.3592333793640137
1413393889295760500,0.04084490239620209,0.024089545011520386,0.03967041149735451,9.720113754272461,-0.8317508101463318,-2.8429460525512695
1413393889300760500,0.04781685769557953,-0.05560687184333801,0.08584436774253845,8.620942115783691,0.7952552437782288,-2.5986719131469727
1413393889305760500,0.01426224410533905,-0.030598461627960205,0.04481375589966774,9.688163757324219,0.27742546796798706,-3.3657734394073486
1413393889310760500,-0.008258268237113953,-0.053683698177337646,0.1030738353729248,8.353425979614258,0.5920498967170715,-2.339641809463501
1413393889315760500,-0.02919289469718933,-0.05881255865097046,0.08806600421667099,9.96996784210205,-0.46805766224861145,-3.256586790084839
1413393889320760500,-0.03449343144893646,-0.04114735126495361,0.08023302257061005,10.337634086608887,-0.44048577547073364,-3.5668766498565674
1413393889325760500,-0.010166481137275696,-0.0362490713596344,0.08830413222312927,8.514883995056152,0.04657210782170296,-2.5843186378479004
1413393889330760500,0.003919437527656555,-0.01610279083251953,0.07448219507932663,9.887210845947266,-0.8834725022315979,-3.8196377754211426
1413393889335760500,0.0016118884086608887,-0.012500941753387451,0.07451015710830688,7.9920196533203125,0.7897323369979858,-1.97299325466156
1413393889340760500,0.006024360656738281,-0.09584459662437439,0.11711593717336655,10.118599891662598,-0.05721699446439743,-4.046403884887695
1413393889345760500,-0.016086608171463013,0.0007672607898712158,0.09633953124284744,9.250662803649902,0.4355713129043579,-2.7999584674835205
1413393889350760500,-0.009127005934715271,-0.06441769003868103,0.12085144966840744,9.158198356628418,-0.5137887597084045,-3.542973756790161
1413393889355760500,-0.015798524022102356,-0.048732757568359375,0.08661621809005737,9.848563194274902,-0.07325080037117004,-2.6629176139831543
1413393889360760500,0.006899654865264893,-0.046819835901260376,0.09638354182243347,10.204931259155273,-0.18880893290042877,-3.6866352558135986
1413393889365760500,-0.016711026430130005,0.009005695581436157,0.04305639863014221,9.707096099853516,-0.4884745478630066,-2.024747371673584
1413393889370760500,0.016073673963546753,-0.041738659143447876,0.10113148391246796,8.38410472869873,0.16760379076004028,-3.44657301902771
1413393889375760500,-0.013346120715141296,-0.026115447282791138,0.07469499856233597,8.357471466064453,-0.2504635453224182,-2.4416892528533936
1413393889380760500,0.0033748000860214233,-0.06822159886360168,0.14965620636940002,9.54533863067627,0.832339882850647,-3.926013946533203
1413393889385760500,-0.02911008894443512,-0.021303772926330566,0.12168440967798233,9.65146255493164,-0.6556836366653442,-3.163241386413574
1413393889390760500,0.0015555024147033691,-0.03605836629867554,0.15348657965660095,10.050108909606934,0.2254626750946045,-3.27765154838562
1413393889395760500,-0.002552703022956848,0.0038167238235473633,0.09820149838924408,8.754570007324219,-1.2755796909332275,-2.975890636444092
1413393889400760500,0.019534066319465637,-0.06690877676010132,0.09200842678546906,9.003334999084473,0.3696300983428955,-3.5108561515808105
1413393889405760500,0.007243677973747253,-0.03548252582550049,0.055445484817028046,9.164783477783203,-0.25916948914527893,-2.6802735328674316
1413393889410760500,0.004471898078918457,-0.08945983648300171,0.09412845224142075,9.98503589630127,0.3070320188999176,-3.6109225749969482
1413393889415760500,-0.01781649887561798,0.015745818614959717,0.09837440401315689,9.362139701843262,0.07281044125556946,-2.9978384971618652
1413393889420760500,-0.012021318078041077,-0.028965145349502563,0.14580851793289185,9.002676963806152,-0.04426583647727966,-2.9293644428253174
1413393889425760500,-0.003877118229866028,0.02875557541847229,0.14938199520111084,9.219354629516602,-0.3688911199569702,-2.875791311264038
1413393889430760500,0.014585897326469421,0.0095614492893219,0.1444607675075531,9.879351615905762,-0.38403165340423584,-3.673832416534424
1413393889435760500,-0.015324845910072327,0.04038164019584656,0.05803513154387474,8.615513801574707,0.23228760063648224,-3.3104193210601807
1413393889440760500,-0.04518960416316986,-0.03212514519691467,0.028275713324546814,8.54956340789795,-0.003351055085659027,-2.9930684566497803
1413393889445760500,-0.058208733797073364,-0.02251642942428589,0.021495208144187927,8.827530860900879,0.4931637644767761,-2.689589023590088
1413393889450760500,-0.05728846788406372,-0.07182949781417847,0.028813406825065613,8.35363483428955,-1.2027652263641357,-2.250718355178833
1413393889455760500,-0.05131340026855469,-0.12848764657974243,0.05327470973134041,8.873398780822754,0.25512441992759705,-2.815204620361328
1413393889460760500,-0.010242730379104614,-0.15804624557495117,0.09535667300224304,8.765746116638184,-0.751727819442749,-1.532374382019043
1413393889465760500,-0.020189955830574036,-0.1556708812713623,0.09200210869312286,10.560946464538574,-0.11494962871074677,-4.464936256408691
1413393889470760500,0.0070096999406814575,-0.09951633214950562,0.12680155038833618,9.339340209960938,0.094831682741642,-2.4893221855163574
1413393889475760500,-0.029726997017860413,-0.12130001187324524,0.11776626110076904,9.776363372802734,0.33606770634651184,-4.5864577293396
1413393889480760500,-0.006936430931091309,-0.01969262957572937,0.15749198198318481,9.187337875366211,0.3628460764884949,-2.5124144554138184
1413393889485760500,-0.04052691161632538,-0.08014047145843506,0.13482242822647095,10.366061210632324,-0.5188478827476501,-4.442713260650635
1413393889490760500,0.003603503108024597,0.03564798831939697,0.11210577934980392,10.368215560913086,-0.4128164052963257,-2.7050678730010986
1413393889495760500,0.01605689525604248,-0.06187152862548828,0.11460774391889572,8.301812171936035,-0.6892944574356079,-3.914970636367798
1413393889500760500,0.027082473039627075,0.0064730048179626465,0.09407701343297958,9.657524108886719,0.21953058242797852,-2.635676622390747
1413393889505760500,0.002541959285736084,-0.1293824315071106,0.10722709447145462,7.633761405944824,0.5711592435836792,-3.0312654972076416
1413393889510760500,-0.017508268356323242,-0.09933966398239136,0.13069969415664673,11.27682113647461,0.7917333841323853,-3.6281275749206543
1413393889515760500,-0.05577246844768524,-0.18381983041763306,0.09041956812143326,7.072896957397461,0.04787208139896393,-1.972935438156128
1413393889520760500,-0.024799928069114685,-0.22951239347457886,0.13938933610916138,10.680381774902344,-0.6754569411277771,-3.7900431156158447
1413393889525760500,-0.024518147110939026,-0.25449541211128235,0.04479411244392395,6.891514301300049,-0.6102228760719299,-2.014082908630371
1413393889530760500,0.011065289378166199,-0.3509291410446167,0.08636307716369629,10.463858604431152,-0.3126286566257477,-4.2145514488220215
1413393889535760500,-0.014386758208274841,-0.27962619066238403,0.01857546716928482,8.260890007019043,0.9075815081596375,-2.002704381942749
1413393889540760500,-0.028456926345825195,-0.33629679679870605,0.0641511082649231,11.939062118530273,0.6354656219482422,-4.869052886962891
1413393889545760500,-0.08815918862819672,-0.19481870532035828,-0.012082349509000778,8.447175025939941,0.39488711953163147,-1.2698018550872803
1413393889550760500,-0.06815968453884125,-0.2845460772514343,0.12335696071386337,12.12584114074707,-0.38019606471061707,-3.721139669418335
1413393889555760500,-0.044818565249443054,-0.08206531405448914,0.058570437133312225,9.643370628356934,-1.0593807697296143,-2.3300082683563232
1413393889560760500,0.006692096590995789,-0.20197293162345886,0.1719808280467987,10.78647232055664,-0.22710487246513367,-3.820970058441162
1413393889565760500,0.007014736533164978,-0.08355209231376648,0.08432868868112564,8.769043922424316,-0.0006454586982727051,-3.05249285697937
1413393889570760500,-0.010973572731018066,-0.20443734526634216,0.14957815408706665,10.016631126403809,0.7954341173171997,-3.857120990753174
1413393889575760500,-0.06654167175292969,-0.17193949222564697,0.058761730790138245,8.124125480651855,0.6602899432182312,-3.6877310276031494
1413393889580760500,-0.09229923784732819,-0.2808188199996948,0.09774567931890488,10.310662269592285,0.3705281913280487,-4.43323278427124
1413393889585760500,-0.09793907403945923,-0.21044254302978516,0.02399080991744995,7.216127872467041,-0.32123786211013794,-3.0517749786376953
1413393889590760500,-0.05625911056995392,-0.34947264194488525,0.048882290720939636,10.050897598266602,-0.8970558047294617,-4.224037170410156
1413393889595760500,-0.03934353590011597,-0.29261162877082825,0.007131882011890411,9.438572883605957,0.05942608416080475,-3.2429330348968506
1413393889600760500,-0.034168973565101624,-0.3266807794570923,0.007564358413219452,10.626904487609863,0.46188879013061523,-4.930251598358154
1413393889605760500,-0.06914989650249481,-0.2255748212337494,-0.018614783883094788,9.929618835449219,1.3349720239639282,-2.683746576309204
1413393889610760500,-0.11833257973194122,-0.29699504375457764,0.01649811863899231,10.722761154174805,0.3620014190673828,-4.563826084136963
1413393889615760500,-0.1121726781129837,-0.16169479489326477,0.0407470278441906,9.724576950073242,0.021417327225208282,-2.5859806537628174
1413393889620760500,-0.0931912362575531,-0.25083407759666443,0.0494791641831398,9.9580659866333,-1.2322607040405273,-3.963420867919922
1413393889625760500,-0.02840234339237213,-0.21123617887496948,0.06660696864128113,9.461732864379883,-0.38414672017097473,-2.8641059398651123
1413393889630760500,-0.01697884500026703,-0.24602818489074707,0.0552552156150341,10.606954574584961,-0.4815758764743805,-4.2930097579956055
1413393889635760500,-0.020620688796043396,-0.22671052813529968,0.0428934246301651,8.537498474121094,0.9887460470199585,-2.3715550899505615
1413393889640760500,-0.08923949301242828,-0.3047980070114136,0.0027384981513023376,11.47723388671875,0.7246463894844055,-4.368113040924072
1413393889645760500,-0.10594657063484192,-0.2579512298107147,0.02698301523923874,8.46055793762207,1.1818077564239502,-2.1039223670959473
1413393889650760500,-0.16849207878112793,-0.2454751431941986,-0.0742114782333374,12.503643989562988,-0.5892729759216309,-4.513330459594727
1413393889655760500,-0.13312503695487976,-0.3015478253364563,-0.07998568564653397,8.961610794067383,-0.3647819459438324,-3.3207714557647705
1413393889660760500,-0.12823334336280823,-0.17488384246826172,-0.16197749972343445,11.868212699890137,-0.8365591764450073,-3.5695877075195312
1413393889665760500,-0.073487788438797,-0.20723697543144226,-0.1103288009762764,10.60089111328125,-0.38498589396476746,-3.592627763748169
1413393889670760500,-0.09331496059894562,-0.1281605362892151,-0.15667995810508728,9.774528503417969,0.5527374148368835,-4.673126697540283
1413393889675760500,-0.08319491147994995,-0.160113126039505,-0.07836299389600754,10.428384780883789,0.611720621585846,-2.750303030014038
1413393889680760500,-0.11946302652359009,-0.10659539699554443,-0.06746115535497665,11.296185493469238,0.8122040629386902,-5.487897872924805
1413393889685760500,-0.14385448396205902,-0.11249741911888123,-0.08251547068357468,9.812101364135742,0.07267675548791885,-2.74237060546875
1413393889690760500,-0.1351291984319687,-0.11108136177062988,-0.06942977756261826,10.92005729675293,-0.32962363958358765,-3.8128840923309326
1413393889695760500,-0.12191614508628845,-0.14371073246002197,-0.08060843497514725,10.162299156188965,-0.35868358612060547,-4.8694233894348145
1413393889700760500,-0.07944439351558685,-0.07603839039802551,-0.010265219956636429,8.489958763122559,-0.3643973767757416,-2.312218189239502
1413393889705760500,-0.06260327994823456,-0.18612337112426758,0.012477472424507141,11.246274948120117,-0.5827351808547974,-4.1410346031188965
1413393889710760500,-0.009534165263175964,-0.17635682225227356,0.08365888148546219,8.118470191955566,0.3428352475166321,-2.886080026626587
1413393889715760500,-0.0354200154542923,-0.2649320065975189,0.056590139865875244,11.005568504333496,0.05640513077378273,-4.331010341644287
1413393889720760500,-0.046988725662231445,-0.25301170349121094,0.03445044904947281,10.604515075683594,1.03221595287323,-2.9229018688201904
1413393889725760500,-0.12009397149085999,-0.28968432545661926,-0.05426117032766342,12.9728364944458,0.3141574561595917,-5.841336727142334
1413393889730760500,-0.15830551087856293,-0.2443406581878662,-0.1393156349658966,8.573938369750977,0.9021053314208984,-3.513068199157715
1413393889735760500,-0.18075881898403168,-0.2262769639492035,-0.20025169849395752,10.704931259155273,-0.6345320343971252,-3.79843807220459
1413393889740760500,-0.15216611325740814,-0.2098209261894226,-0.21264493465423584,13.118921279907227,-0.23031207919120789,-3.6734206676483154
1413393889745760500,-0.12369896471500397,-0.08108320832252502,-0.22215351462364197,11.98788070678711,-0.9537522792816162,-3.153020143508911
1413393889750760500,-0.11075341701507568,-0.12691110372543335,-0.17961135506629944,11.880890846252441,0.3696848750114441,-4.957449436187744
1413393889755760500,-0.11062873899936676,-0.09566378593444824,-0.10132249444723129,9.324139595031738,1.0658299922943115,-3.9084603786468506
1413393889760760500,-0.1381780207157135,-0.042761802673339844,-0.10012785345315933,10.694314002990723,0.10211025178432465,-2.705197811126709
1413393889765760500,-0.12026625871658325,-0.11548519134521484,0.013321302831172943,11.733057022094727,0.18484272062778473,-4.812934875488281
1413393889770760500,-0.11105769872665405,-0.10291367769241333,-0.005613412708044052,9.369535446166992,-0.7085539698600769,-4.304836273193359
1413393889775760500,-0.05468359589576721,-0.09522923827171326,0.023708365857601166,10.671401977539062,-0.7041656374931335,-2.7374589443206787
1413393889780760500,-0.04522581398487091,-0.12772071361541748,-0.048156820237636566,10.896882057189941,-0.45731860399246216,-3.148359537124634
1413393889785760500,-0.022482052445411682,-0.10075640678405762,-0.05565023422241211,13.018073081970215,0.4287574887275696,-4.507774353027344
1413393889790760500,-0.06876072287559509,-0.06842443346977234,-0.11046718806028366,9.74093246459961,0.5880255699157715,-3.2572131156921387
1413393889795760500,-0.09993027150630951,-0.10640892386436462,-0.09780619293451309,12.230098724365234,0.4935590624809265,-4.398966312408447
1413393889800760500,-0.14236965775489807,-0.09936591982841492,-0.1102830246090889,9.850509643554688,0.9394907355308533,-3.9651060104370117
1413393889805760500,-0.1514008790254593,-0.07113176584243774,-0.1217932477593422,9.669715881347656,-0.4573955535888672,-3.4885642528533936
1413393889810760500,-0.13800325989723206,-0.1970854103565216,-0.0989731103181839,9.774102210998535,-0.222545325756073,-3.520205020904541
1413393889815760500,-0.11735057830810547,-0.17204248905181885,-0.18919765949249268,11.090059280395508,-0.9418923258781433,-3.6575300693511963
1413393889820760500,-0.059437721967697144,-0.16514277458190918,-0.13915935158729553,12.220035552978516,0.009671950712800026,-4.524959564208984
1413393889825760500,-0.09062103927135468,-0.17010527849197388,-0.2014675736427307,9.88272762298584,0.36427250504493713,-4.11496114730835
1413393889830760500,-0.09458459913730621,-0.08930090069770813,-0.163962721824646,12.352373123168945,0.8940688371658325,-3.502574920654297
1413393889835760500,-0.14764271676540375,-0.04409986734390259,-0.1713060438632965,11.498127937316895,0.6280538439750671,-3.6110920906066895
1413393889840760500,-0.15707750618457794,-0.028215765953063965,-0.1538398265838623,12.576772689819336,-0.23651878535747528,-4.983835697174072
1413393889845760500,-0.15089647471904755,-0.022642016410827637,-0.13744542002677917,8.267326354980469,-0.1245427206158638,-3.2458927631378174
1413393889850760500,-0.08484481275081635,0.04949849843978882,-0.13780838251113892,12.125033378601074,-1.3997788429260254,-2.8160815238952637
1413393889855760500,-0.03478407859802246,-0.09743785858154297,-0.10182292014360428,12.781798362731934,-0.4060865640640259,-4.757889270782471
1413393889860760500,-0.02834157645702362,0.008883655071258545,-0.1759885847568512,8.982043266296387,0.5338086485862732,-4.286597728729248
1413393889865760500,-0.07004298269748688,-0.02476981282234192,-0.14270862936973572,10.857528686523438,1.5934898853302002,-4.022025108337402
1413393889870760500,-0.17023034393787384,-0.009617507457733154,-0.20838212966918945,10.748331069946289,1.0886510610580444,-2.9541103839874268
1413393889875760500,-0.20713989436626434,-0.021752387285232544,-0.20393139123916626,12.752243995666504,0.4103633761405945,-4.552146911621094
1413393889880760500,-0.20312932133674622,0.009631156921386719,-0.22985535860061646,9.154714584350586,-0.7200562953948975,-4.156803131103516
1413393889885760500,-0.12873771786689758,-0.005462378263473511,-0.21608760952949524,10.90247917175293,-1.6021050214767456,-3.8829307556152344
1413393889890760500,-0.07449792325496674,0.018642783164978027,-0.21861013770103455,11.061528205871582,-0.5821755528450012,-2.6835286617279053
1413393889895760500,-0.056163981556892395,0.06163787841796875,-0.22266504168510437,12.738568305969238,0.025398727506399155,-3.809096097946167
1413393889900760500,-0.10135388374328613,0.06203162670135498,-0.2075634002685547,10.489578247070312,1.7995842695236206,-4.431326389312744
1413393889905760500,-0.16671352088451385,0.16443857550621033,-0.21049556136131287,10.996673583984375,1.0514044761657715,-3.389984130859375
1413393889910760500,-0.19044488668441772,0.15785542130470276,-0.1630810797214508,11.831232070922852,-0.11918022483587265,-4.152176856994629
1413393889915760500,-0.18187165260314941,0.20819702744483948,-0.1978800892829895,9.38858699798584,-1.1301602125167847,-2.8687379360198975
1413393889920760500,-0.06883366405963898,0.17615622282028198,-0.16882628202438354,11.500578880310059,-1.8083308935165405,-3.0087053775787354
1413393889925760500,-0.0385703444480896,0.10980081558227539,-0.18741941452026367,10.245678901672363,-0.33766674995422363,-3.722771644592285
1413393889930760500,-0.02828480303287506,0.16461172699928284,-0.18115824460983276,10.36634349822998,0.7315034866333008,-4.397192478179932
1413393889935760500,-0.10423041880130768,0.10738152265548706,-0.1877650022506714,10.366554260253906,1.8235448598861694,-3.286043643951416
1413393889940760500,-0.1662239134311676,0.22580742835998535,-0.1709350049495697,12.179362297058105,0.9215012788772583,-3.50624680519104
1413393889945760500,-0.20249029994010925,0.1909620463848114,-0.19819724559783936,11.481331825256348,0.21323692798614502,-4.201879501342773
1413393889950760500,-0.16388081014156342,0.26805248856544495,-0.2215287685394287,9.167144775390625,-1.6485954523086548,-2.851104974746704
1413393889955760500,-0.10078702867031097,0.23391422629356384,-0.22658050060272217,11.578003883361816,-1.0326039791107178,-3.472036838531494
1413393889960760500,-0.050748929381370544,0.2577914595603943,-0.22818049788475037,11.153324127197266,-0.5700797438621521,-3.9807775020599365
1413393889965760500,-0.07060201466083527,0.243766188621521,-0.22411313652992249,9.035654067993164,1.322270393371582,-3.8273603916168213
1413393889970760500,-0.12553821504116058,0.20601007342338562,-0.22262898087501526,8.937128067016602,1.5726603269577026,-2.6241447925567627
1413393889975760500,-0.17369040846824646,0.268086314201355,-0.17509609460830688,11.76659107208252,0.17613129317760468,-3.767439603805542
1413393889980760500,-0.20197449624538422,0.14224621653556824,-0.19613412022590637,9.82242202758789,-0.09764271229505539,-4.230978488922119
1413393889985760500,-0.1342558115720749,0.2823156714439392,-0.15192723274230957,9.888562202453613,-1.5619239807128906,-2.7009544372558594
1413393889990760500,-0.08695752918720245,0.17466405034065247,-0.14415186643600464,11.90322208404541,-1.0283714532852173,-4.29553747177124
1413393889995760500,-0.01350124180316925,0.3309483230113983,-0.10105946660041809,9.293455123901367,-0.587628185749054,-2.8564295768737793
1413393890000760500,-0.03369101881980896,0.23981478810310364,-0.09213662892580032,12.259889602661133,0.6905346512794495,-3.8571503162384033
1413393890005760500,-0.04378966987133026,0.33504921197891235,-0.08150287717580795,9.135583877563477,0.7257794737815857,-2.932725191116333
1413393890010760500,-0.09893622994422913,0.286648690700531,-0.06829334050416946,10.34470272064209,1.065445065498352,-4.574971675872803
1413393890015760500,-0.10978657007217407,0.284047931432724,-0.04450957477092743,8.814282417297363,-0.29620561003685,-2.966783285140991
1413393890020760500,-0.09644804894924164,0.288899689912796,0.005301177501678467,10.041277885437012,-0.5513315796852112,-3.7402048110961914
1413393890025760500,-0.04953475296497345,0.17926964163780212,0.06879032403230667,8.72647476196289,-0.3841131329536438,-2.0754339694976807
1413393890030760500,0.01216520369052887,0.3151026964187622,0.09454233199357986,10.290209770202637,-0.6499506831169128,-3.67158579826355
1413393890035760500,0.03273776173591614,0.16573703289031982,0.13450706005096436,9.952909469604492,0.37708383798599243,-3.3969411849975586
1413393890040760500,0.02692599594593048,0.3216278553009033,0.13007313013076782,9.850984573364258,0.10063358396291733,-3.1829280853271484
1413393890045760500,-0.0006335824728012085,0.15900292992591858,0.173675537109375,9.502035140991211,1.2307066917419434,-3.603750705718994
1413393890050760500,-0.016823917627334595,0.2764739394187927,0.18051683902740479,9.737215042114258,-0.10004953294992447,-2.485278844833374
1413393890055760500,-0.037042513489723206,0.14418214559555054,0.1854555904865265,9.647634506225586,0.07370086759328842,-4.153040885925293
1413393890060760500,-0.0019205212593078613,0.24766609072685242,0.18016305565834045,9.150619506835938,-0.7082775235176086,-2.6368942260742188
1413393890065760500,0.029296383261680603,0.1457338035106659,0.20035725831985474,10.501839637756348,-0.8432450890541077,-3.486278533935547
1413393890070760500,0.06294891238212585,0.22502273321151733,0.18418148159980774,8.812912940979004,-0.06503668427467346,-3.3665106296539307
1413393890075760500,0.08083400130271912,0.1780639886856079,0.25242432951927185,10.184565544128418,0.3767111599445343,-3.53721022605896
1413393890080760500,0.06316840648651123,0.1993286907672882,0.28856801986694336,8.959794044494629,0.5881409645080566,-3.341005325317383
1413393890085760500,0.030568495392799377,0.24140214920043945,0.3251200020313263,9.093649864196777,0.2219449132680893,-3.3404905796051025
1413393890090760500,0.03083343803882599,0.17085397243499756,0.3332167863845825,9.021543502807617,0.01654849573969841,-2.6397433280944824
1413393890095760500,0.04543524980545044,0.23662233352661133,0.3102435767650604,9.92516040802002,-0.7778064608573914,-3.3542678356170654
1413393890100760500,0.06607323884963989,0.18685433268547058,0.286086767911911,8.75261116027832,-0.25223109126091003,-2.7568883895874023
1413393890105760500,0.06694726645946503,0.2481766641139984,0.25917571783065796,9.305492401123047,-0.06394137442111969,-2.7655038833618164
1413393890110760500,0.05801805853843689,0.1904335618019104,0.25976017117500305,8.039135932922363,0.37371504306793213,-3.3673148155212402
1413393890115760500,0.038828566670417786,0.27230584621429443,0.260446161031723,8.984506607055664,0.4814891219139099,-2.8850064277648926
1413393890120760500,0.035190150141716,0.19382867217063904,0.3030593693256378,7.063035488128662,0.09686991572380066,-3.413146495819092
1413393890125760500,0.04451411962509155,0.25726714730262756,0.3173370361328125,8.72268295288086,-0.4426755905151367,-2.4111204147338867
1413393890130760500,0.054593563079833984,0.18619871139526367,0.33659347891807556,6.424310684204102,-0.15434721112251282,-2.851046085357666
1413393890135760500,0.07542014122009277,0.23720207810401917,0.2913157641887665,8.657326698303223,-0.4079480767250061,-2.623927593231201
1413393890140760500,0.07177001237869263,0.14733245968818665,0.30220678448677063,7.126893997192383,0.06800856441259384,-2.510310411453247
1413393890145760500,0.054667651653289795,0.21564820408821106,0.27911633253097534,9.673272132873535,0.2931607663631439,-3.3226678371429443
1413393890150760500,0.04347698390483856,0.18728452920913696,0.280227929353714,6.383852481842041,0.736588716506958,-2.100099563598633
1413393890155760500,0.026816099882125854,0.2107895314693451,0.2799893021583557,8.281866073608398,-0.11890415847301483,-3.334103584289551
1413393890160760500,0.026029616594314575,0.17638537287712097,0.2838168740272522,6.408884525299072,0.21088917553424835,-1.2817083597183228
1413393890165760500,0.053952574729919434,0.1915980577468872,0.28956130146980286,9.402763366699219,-1.0204099416732788,-3.405212879180908
1413393890170760500,0.06513561308383942,0.16434785723686218,0.2863073945045471,5.322453022003174,0.3412782549858093,-1.1507720947265625
1413393890175760500,0.08668895065784454,0.12370339035987854,0.3191821575164795,8.936153411865234,-0.9788437485694885,-3.656615972518921
1413393890180760500,0.06723962724208832,0.16462716460227966,0.29353204369544983,5.6305694580078125,0.8306472301483154,-1.1311603784561157
1413393890185760500,0.06601850688457489,0.06095004081726074,0.3066259026527405,9.772187232971191,-0.31770968437194824,-4.081966400146484
1413393890190760500,0.02880866825580597,0.14338046312332153,0.28947821259498596,5.269102096557617,1.28091299533844,-1.0137730836868286
1413393890195760500,0.04683546721935272,0.09427353739738464,0.3095203936100006,10.081422805786133,-1.4005236625671387,-4.133788585662842
1413393890200760500,0.03772246837615967,0.19357165694236755,0.2417776882648468,5.479753017425537,0.7614768743515015,-0.9002646803855896
1413393890205760500,0.08460046350955963,0.07251524925231934,0.31929582357406616,8.957533836364746,-1.257720947265625,-3.459437370300293
1413393890210760500,0.06846503913402557,0.22596734762191772,0.23035693168640137,6.712965488433838,0.7718285918235779,-1.6431480646133423
1413393890215760500,0.09859853982925415,0.08596420288085938,0.3513147532939911,7.955679893493652,-0.2312115579843521,-3.043257236480713
1413393890220760500,0.0375848263502121,0.2178214192390442,0.24350258708000183,7.8132710456848145,1.0252327919006348,-2.1798171997070312
1413393890225760500,0.04633690416812897,0.09798160195350647,0.3210203945636749,6.0764546394348145,0.18763762712478638,-2.5467042922973633
1413393890230760500,-0.01384347677230835,0.17840799689292908,0.21137303113937378,8.783543586730957,0.6288997530937195,-2.0944907665252686
1413393890235760500,0.029189810156822205,0.10404455661773682,0.27652236819267273,7.14262056350708,-1.2673368453979492,-2.7142717838287354
1413393890240760500,0.01936250925064087,0.13778331875801086,0.18197903037071228,8.24050521850586,-0.06009293720126152,-1.9306546449661255
1413393890245760500,0.08586032688617706,0.0717674195766449,0.2771778404712677,6.300551414489746,-0.4477919340133667,-1.9109114408493042
1413393890250760500,0.05971159040927887,0.1588776707649231,0.21545317769050598,8.705036163330078,0.388852059841156,-2.840691328048706
1413393890255760500,0.07485634088516235,0.1102001965045929,0.31064629554748535,5.944467544555664,0.5398699641227722,-2.3902902603149414
1413393890260760500,0.026540249586105347,0.15342465043067932,0.25351855158805847,8.9218168258667,0.0339038148522377,-3.351982831954956
1413393890265760500,0.034077152609825134,0.13607600331306458,0.30653807520866394,5.668003559112549,1.0063127279281616,-1.6606730222702026
1413393890270760500,0.018783122301101685,0.12375086545944214,0.2675636410713196,9.6326322555542,-1.1937930583953857,-3.2506768703460693
1413393890275760500,0.05000974237918854,0.13190478086471558,0.26451393961906433,5.409887313842773,0.33094361424446106,-1.2779945135116577
