#timestamp [ns],w_RS_S_x [rad s^-1],w_RS_S_y [rad s^-1],w_RS_S_z [rad s^-1],a_RS_S_x [m s^-2],a_RS_S_y [m s^-2],a_RS_S_z [m s^-2]
1413393885975760500,0.050963614158234416,0.041887902047863905,0.06841690667817772,9.438900625,-0.4004382083333333,-2.729517583333333
1413393885980760500,0.05375614096142535,0.03630284844148206,0.07051130178057091,9.398039583333333,0.032688833333333334,-3.195333458333333
1413393885985760500,0.03839724354387525,0.04258603374866164,0.04677482395344803,9.561483749999999,0.2533384583333333,-3.015544875
1413393885990760500,0.028623399732707,0.047472955654245766,0.07120943348136866,9.283628666666665,0.269682875,-3.0890947499999997
1413393885995760500,0.0027925268031909274,0.06562437987498679,0.06213372137099814,9.610517,0.4985047083333333,-3.0400614999999998
1413393886000760500,-0.025132741228718346,0.03839724354387525,0.08377580409572781,9.161045541666667,0.7681875833333334,-3.2280222916666665
1413393886005760500,-0.05235987755982988,0.04817108735504349,0.08936085770210968,9.283628666666665,0.3350605416666666,-3.0809225416666663
1413393886010760500,-0.05585053606381855,0.03839724354387525,0.08098327729253688,9.054806833333332,-0.35140495833333335,-2.7867230416666664
1413393886015760500,-0.04049163864626844,0.009075712110370514,0.0747000919853573,9.259112041666667,-0.5720545833333333,-2.754034208333333
1413393886020760500,-0.013264502315156905,0.00767944870877505,0.08656833089891874,9.357178541666666,-0.6701210833333332,-2.7376897916666665
1413393886025760500,0.023038346126325153,0.010471975511965976,0.07819075048934597,9.520622708333333,-0.612915625,-2.9093061666666666
1413393886030760500,0.0439822971502571,0.032114058236695664,0.08307767239493008,9.586000375,-0.3759215833333333,-2.941995
1413393886035760500,0.04049163864626844,0.028623399732707,0.07819075048934597,9.250939833333334,0.18796079166666665,-2.811239666666667
1413393886040760500,0.021642082724729686,0.02652900463031381,0.07190756518216637,9.259112041666667,0.416782625,-3.023717083333333
1413393886045760500,-0.005585053606381855,0.04677482395344803,0.06911503837897544,9.373522958333332,0.367749375,-3.0400614999999998
1413393886050760500,-0.023736477827122883,0.03420845333908886,0.06771877497737998,9.144701125,0.057205458333333334,-2.982856041666666
1413393886055760500,-0.03490658503988659,0.01884955592153876,0.06981317007977318,9.07115125,0.10623870833333333,-2.7376897916666665
1413393886060760500,-0.03490658503988659,0.013962634015954637,0.08237954069413235,9.1201845,-0.2533384583333333,-2.9093061666666666
1413393886065760500,-0.021642082724729686,0.009075712110370514,0.08028514559173915,9.242767624999999,-0.4004382083333333,-2.999200458333333
1413393886070760500,-0.008377580409572781,0.006981317007977318,0.08726646259971647,9.536967125,-0.392266,-2.9583394166666666
1413393886075760500,0.00767944870877505,0.02234021442552742,0.08307767239493008,9.406211791666665,-0.3105439166666667,-2.974683833333333
1413393886080760500,0.017453292519943295,0.02234021442552742,0.07260569688296412,9.349006333333334,-0.3023717083333333,-3.015544875
1413393886085760500,0.025132741228718346,0.02722713633111154,0.06562437987498679,9.520622708333333,-0.17978858333333333,-2.974683833333333
1413393886090760500,0.02652900463031381,0.02234021442552742,0.08098327729253688,9.291800875,0.17161637500000002,-2.9338227916666666
1413393886095760500,0.009773843811168246,0.017453292519943295,0.08517206749732328,9.234595416666666,0.35957716666666667,-2.8766173333333334
1413393886100760500,-0.013264502315156905,0.02024581932313422,0.09564404300928926,8.989429166666666,0.3840937916666667,-2.8684451249999996
1413393886105760500,-0.033510321638291124,0.008377580409572781,0.09215338450530061,9.635033625,0.08989429166666667,-3.1299557916666663
1413393886110760500,-0.04537856055185257,0.009075712110370514,0.08237954069413235,9.5124505,-0.20430520833333332,-3.0645781249999997
1413393886115760500,-0.02722713633111154,0.016755160819145562,0.07330382858376185,9.398039583333333,-0.661948875,-2.8766173333333334
1413393886120760500,0.0010685399174690247,0.02544771321117878,0.06325861066579819,9.461285591125488,-0.5683873891830444,-3.0370872020721436
1413393886125760500,0.026222556829452515,0.027584867551922798,0.07280876487493515,9.306465148925781,-0.09578151255846024,-2.9392542839050293
1413393886130760500,0.040863074362277985,0.022772228345274925,0.08750487864017487,9.15223217010498,-0.09519614279270172,-2.784580945968628
1413393886135760500,0.03254055976867676,0.013520622625946999,0.07602482289075851,9.503981590270996,0.2091192752122879,-3.097500801086426
1413393886140760500,0.002535872161388397,0.03074176050722599,0.0786895751953125,9.283356666564941,0.4953184425830841,-2.9753217697143555
1413393886145760500,-0.021201416850090027,0.014015944674611092,0.08041457831859589,9.560437202453613,0.31641268730163574,-3.2462449073791504
1413393886150760500,-0.03386327624320984,0.025962958112359047,0.07137726247310638,9.446895599365234,-0.20458689332008362,-3.0639007091522217
1413393886155760500,-0.023549437522888184,0.03644181042909622,0.0743594691157341,9.405302047729492,-0.20421816408634186,-3.095114231109619
1413393886160760500,-0.013718202710151672,0.04276314377784729,0.07914523035287857,9.216904640197754,-0.03392067924141884,-2.883277177810669
1413393886165760500,-0.003973923623561859,0.028907233849167824,0.07543495297431946,9.217391014099121,-0.19770808517932892,-2.8253872394561768
1413393886170760500,0.002334319055080414,0.017755674198269844,0.07077207416296005,9.24146842956543,-0.4112604558467865,-2.9890899658203125
1413393886175760500,0.012238159775733948,0.023852253332734108,0.07754983007907867,9.437765121459961,0.004537706263363361,-3.342658281326294
1413393886180760500,0.008163884282112122,0.04275990277528763,0.08517017960548401,9.144314765930176,0.028647487983107567,-2.8507585525512695
1413393886185760500,0.0005211159586906433,0.020576583221554756,0.08830979466438293,9.438254356384277,-0.11760615557432175,-2.956306219100952
1413393886190760500,0.005282498896121979,0.03660415858030319,0.08185257017612457,9.49509048461914,-0.2149345725774765,-2.9068071842193604
1413393886195760500,0.009280942380428314,0.0447002574801445,0.08375631272792816,9.282593727111816,0.16202276945114136,-2.8913657665252686
1413393886200760500,-0.0032381638884544373,0.035613104701042175,0.08179429918527603,9.160833358764648,0.22055914998054504,-2.8935678005218506
1413393886205760500,-0.018558334559202194,0.018386488780379295,0.06703564524650574,9.389164924621582,-0.04183163866400719,-2.875859022140503
1413393886210760500,-0.021440431475639343,0.018438296392560005,0.0650862455368042,9.273967742919922,-0.18160200119018555,-2.9980931282043457
1413393886215760500,-0.014468364417552948,0.02591797150671482,0.07088875770568848,9.372598648071289,-0.23159518837928772,-3.055190324783325
1413393886220760500,-0.01563989371061325,0.03303765505552292,0.07705847173929214,9.144514083862305,-0.2235809862613678,-2.816596031188965
1413393886225760500,-0.0002156570553779602,0.02349107898771763,0.08678096532821655,9.372733116149902,-0.27367734909057617,-2.972005844116211
1413393886230760500,0.01567687839269638,0.025389323011040688,0.08451330661773682,9.241941452026367,-0.22464722394943237,-2.8577821254730225
1413393886235760500,0.02677813172340393,0.02442176081240177,0.08507755398750305,9.332366943359375,0.053973857313394547,-2.908318281173706
1413393886240760500,0.01859879493713379,0.026685142889618874,0.08040988445281982,9.193345069885254,0.2439209669828415,-3.008059501647949
1413393886245760500,0.0017769038677215576,0.01914176158607006,0.08463209122419357,9.470727920532227,0.20221687853336334,-3.0323328971862793
1413393886250760500,-0.015046074986457825,0.02746525965631008,0.0812242329120636,9.111616134643555,0.03891269117593765,-3.014387369155884
1413393886255760500,-0.018585197627544403,0.01536320336163044,0.09575541317462921,9.430869102478027,0.18758168816566467,-2.9503390789031982
1413393886260760500,-0.02341608703136444,0.027352647855877876,0.09557546675205231,9.152578353881836,0.015009908936917782,-2.8997750282287598
1413393886265760500,-0.015065062791109085,0.005844445899128914,0.09633827954530716,9.283071517944336,-0.4047963619232178,-2.768223285675049
1413393886270760500,-0.0010914653539657593,0.010646635666489601,0.07350847125053406,9.429658889770508,-0.4285004734992981,-2.9484190940856934
1413393886275760500,0.011459432542324066,0.011403435841202736,0.06369855999946594,9.502819061279297,-0.313357412815094,-3.0551271438598633
1413393886280760500,0.013636201620101929,0.022726045921444893,0.052006617188453674,9.412595748901367,-0.11802858859300613,-3.047060966491699
1413393886285760500,0.018590137362480164,0.006670067086815834,0.05970807000994682,9.331786155700684,-0.01202780194580555,-2.981157064437866
1413393886290760500,0.007391713559627533,0.030231917276978493,0.05951729416847229,9.389251708984375,0.21920092403888702,-3.0797739028930664
1413393886295760500,-0.012175031006336212,0.016081398352980614,0.08646956831216812,9.332595825195312,0.5310589671134949,-3.000663995742798
1413393886300760500,-0.026161260902881622,0.034299127757549286,0.09351372718811035,9.210179328918457,0.11246161162853241,-2.9008166790008545
1413393886305760500,-0.026982948184013367,0.020529018715023994,0.09009420871734619,9.136319160461426,-0.25581228733062744,-2.9078476428985596
1413393886310760500,-0.015810418874025345,0.027547096833586693,0.08611486852169037,9.380728721618652,-0.4261060059070587,-3.136518716812134
1413393886315760500,-0.0017290785908699036,0.022534111514687538,0.09170348942279816,9.258127212524414,-0.2878006100654602,-3.0878336429595947
1413393886320760500,0.012873999774456024,0.03036266379058361,0.08057410269975662,9.34793758392334,-0.4128536581993103,-2.914708137512207
1413393886325760500,0.02887798100709915,0.021945400163531303,0.08822008967399597,9.249953269958496,-0.2731546461582184,-2.979602813720703
1413393886330760500,0.029657773673534393,0.03229136019945145,0.08509737253189087,9.315482139587402,0.17779897153377533,-2.981437921524048
1413393886335760500,0.015844114124774933,0.025173528119921684,0.10238070785999298,9.234820365905762,0.4391957223415375,-2.9672834873199463
1413393886340760500,-0.014182090759277344,0.03290458768606186,0.08599124848842621,9.21012020111084,0.0471925251185894,-3.097234010696411
1413393886345760500,-0.028998464345932007,0.015528874471783638,0.0712873786687851,9.429658889770508,-0.18195641040802002,-3.1704580783843994
1413393886350760500,-0.029073864221572876,0.029556987807154655,0.06242281198501587,9.535593032836914,-0.2129901647567749,-3.202759027481079
1413393886355760500,-0.016484078019857407,0.02667558379471302,0.06326749920845032,9.274246215820312,-0.3769247829914093,-2.825047254562378
1413393886360760500,-0.0017294809222221375,0.021918071433901787,0.06171329692006111,9.339749336242676,-0.4270935356616974,-2.971637010574341
1413393886365760500,0.019780315458774567,0.028897574171423912,0.07696832716464996,9.42109489440918,-0.1746576577425003,-2.866302251815796
1413393886370760500,0.01980886608362198,0.03924303501844406,0.08581391721963882,9.266403198242188,0.2754860818386078,-3.0155022144317627
1413393886375760500,0.008067198097705841,0.034292928874492645,0.08713074028491974,9.128830909729004,0.37343794107437134,-2.8039140701293945
1413393886380760500,-0.005794189870357513,0.025402726605534554,0.09232209622859955,9.438924789428711,0.027811896055936813,-2.916558265686035
1413393886385760500,-0.011486344039440155,0.028143389150500298,0.08879896998405457,9.396980285644531,-0.044689398258924484,-2.9325594902038574
1413393886390760500,-0.010862089693546295,0.03928440809249878,0.08814019709825516,9.421664237976074,-0.1649899035692215,-2.9565718173980713
1413393886395760500,-0.009465284645557404,0.0287634190171957,0.08539080619812012,9.07903003692627,-0.19010047614574432,-2.8336262702941895
1413393886400760500,0.0064741745591163635,0.0220340508967638,0.08451253175735474,9.486626625061035,-0.39495858550071716,-2.980584144592285
1413393886405760500,0.015516191720962524,0.024572687223553658,0.07827109843492508,9.249776840209961,-0.009970219805836678,-2.899885654449463
1413393886410760500,0.007288165390491486,0.02167280949652195,0.07480527460575104,9.299853324890137,0.20304182171821594,-2.9994184970855713
1413393886415760500,-0.009354107081890106,0.009905138984322548,0.07612929493188858,9.365099906921387,0.04628048464655876,-2.9255833625793457
1413393886420760500,-0.012912020087242126,0.011447776108980179,0.068682000041008,9.49484634399414,-0.08565514534711838,-3.1532094478607178
1413393886425760500,-0.012222930788993835,0.018411273136734962,0.05969912186264992,9.282444953918457,-0.2891870141029358,-2.8417136669158936
1413393886430760500,-0.0065355971455574036,0.021834278479218483,0.058851733803749084,9.356634140014648,-0.18151773512363434,-3.1202280521392822
1413393886435760500,0.008062563836574554,0.01994411088526249,0.07559089362621307,9.34774112701416,-0.28094321489334106,-2.809368371963501
1413393886440760500,0.012785226106643677,0.017073167487978935,0.08321500569581985,9.429353713989258,0.0131063899025321,-2.9898855686187744
1413393886445760500,0.005813561379909515,0.023800523951649666,0.08724597841501236,9.19376277923584,0.19489546120166779,-2.7785391807556152
1413393886450760500,-0.004548303782939911,0.016896096989512444,0.0887087732553482,9.357095718383789,0.10484038293361664,-3.039546251296997
1413393886455760500,-0.013618625700473785,0.016327472403645515,0.09232277423143387,9.38892936706543,-0.06020662188529968,-3.1216819286346436
1413393886460760500,-0.01571708545088768,0.022630078718066216,0.08818317949771881,9.438093185424805,-0.10965025424957275,-3.038912534713745
1413393886465760500,-0.01148524135351181,0.027433956041932106,0.08396080881357193,9.160676956176758,-0.3532557487487793,-2.8987464904785156
1413393886470760500,0.0072617307305336,0.02895118109881878,0.08804404735565186,9.356327056884766,-0.4117431640625,-2.8736143112182617
1413393886475760500,0.018418021500110626,0.019236279651522636,0.09155887365341187,9.217105865478516,-0.24042223393917084,-2.890589475631714
1413393886480760500,0.021292276680469513,0.016250574961304665,0.08317781984806061,9.438075065612793,0.05489560589194298,-3.0315771102905273
1413393886485760500,0.010835640132427216,0.02450394816696644,0.07335381209850311,9.291390419006348,0.2034960389137268,-2.9094207286834717
1413393886490760500,-0.0017833039164543152,0.016181806102395058,0.07337755709886551,9.380816459655762,0.2925119698047638,-3.1059117317199707
1413393886495760500,-0.017084471881389618,0.016963588073849678,0.07696332782506943,9.356584548950195,0.10352544486522675,-3.1051559448242188
1413393886500760500,-0.02477676421403885,0.022530360147356987,0.07217095792293549,9.536432266235352,-0.19823452830314636,-3.12043833732605
1413393886505760500,-0.0206071175634861,0.04347476363182068,0.07560362666845322,9.388697624206543,-0.19770662486553192,-2.82580828666687
1413393886510760500,-0.0073858872056007385,0.030289961025118828,0.08181485533714294,9.29047679901123,-0.24856771528720856,-2.9397685527801514
1413393886515760500,0.010747566819190979,0.03805416822433472,0.08666388690471649,9.347761154174805,-0.24048243463039398,-2.9239883422851562
1413393886520760500,0.01777556538581848,0.03303789347410202,0.08807974308729172,9.184916496276855,-0.07612389326095581,-3.0555613040924072
1413393886525760500,0.012904264032840729,0.033601850271224976,0.0831470713019371,9.36483383178711,0.12891116738319397,-2.909327983856201
1413393886530760500,-0.000998467206954956,0.020424140617251396,0.07623043656349182,9.372912406921387,0.15282833576202393,-3.10455060005188
1413393886535760500,-0.005287148058414459,0.0386061891913414,0.07562501728534698,9.307371139526367,-0.01891128346323967,-2.8830418586730957
1413393886540760500,-0.013615675270557404,0.03218672424554825,0.07487455755472183,9.095314979553223,-0.04208799824118614,-3.103924512863159
1413393886545760500,-0.010835342109203339,0.04484149068593979,0.08177156001329422,9.430215835571289,-0.09974811971187592,-2.908177614212036
1413393886550760500,-0.011512354016304016,0.02471986599266529,0.08179564774036407,9.135505676269531,-0.2061651647090912,-2.9315998554229736
1413393886555760500,-0.003300115466117859,0.03446777164936066,0.08174168318510056,9.217312812805176,-0.2977837324142456,-2.572599172592163
1413393886560760500,0.0016838982701301575,0.003580652177333832,0.07838687300682068,9.078829765319824,-0.116341233253479,-2.93180775642395
1413393886565760500,0.00798516720533371,0.025338897481560707,0.0735330656170845,9.584891319274902,-0.019239269196987152,-2.925100564956665
1413393886570760500,-0.005174197256565094,0.01634717918932438,0.07208409905433655,9.298969268798828,-0.07664449512958527,-3.0058035850524902
1413393886575760500,0.0023910701274871826,0.02609577588737011,0.06514260917901993,9.39734935760498,-0.20725727081298828,-2.8176498413085938
1413393886580760500,-0.0031324848532676697,0.015519527718424797,0.06717874109745026,9.176706314086914,0.046891916543245316,-2.972611665725708
1413393886585760500,-0.001782745122909546,0.04276326298713684,0.08810067921876907,9.601641654968262,0.1689213663339615,-3.1140713691711426
1413393886590760500,-0.009354270994663239,0.03591527044773102,0.08528800308704376,9.05443286895752,-0.12508778274059296,-2.7438180446624756
1413393886595760500,-0.003941856324672699,0.014250053092837334,0.09221446514129639,9.291847229003906,-0.2641694247722626,-2.842543601989746
1413393886600760500,0.00024246424436569214,0.010742167010903358,0.08252443373203278,9.225341796875,-0.21441978216171265,-3.021874189376831
1413393886605760500,0.004443712532520294,0.019714849069714546,0.09570740908384323,9.568673133850098,-0.0021789341699332,-3.1219820976257324
1413393886610760500,-0.0037834271788597107,0.03154677152633667,0.08197303116321564,9.307604789733887,-0.1899890899658203,-2.9654288291931152
1413393886615760500,0.004474736750125885,0.014330433681607246,0.07838775962591171,9.373180389404297,-0.2244132161140442,-2.8989975452423096
1413393886620760500,0.008023463189601898,0.021829111501574516,0.076867014169693,9.20072078704834,-0.010436936281621456,-3.0954253673553467
1413393886625760500,0.006653979420661926,0.032208025455474854,0.09223314374685287,9.381084442138672,0.15347927808761597,-3.129908323287964
1413393886630760500,-0.010692179203033447,0.031503014266490936,0.08109231293201447,9.112163543701172,0.04631290212273598,-2.9497783184051514
1413393886635760500,-0.008730672299861908,0.008085042238235474,0.08455968648195267,9.16899585723877,-0.07656440138816833,-2.9081461429595947
1413393886640760500,-0.006016500294208527,0.016281066462397575,0.08182510733604431,9.160080909729004,-0.16490232944488525,-3.03019642829895
1413393886645760500,-0.005282685160636902,0.014731181785464287,0.08178874850273132,9.462560653686523,-0.0016137197380885482,-3.1624538898468018
1413393886650760500,-0.015616048127412796,0.028743909671902657,0.06659969687461853,9.454380989074707,-0.14922858774662018,-2.9657070636749268
1413393886655760500,0.0044365450739860535,0.022731753066182137,0.07837702333927155,9.33968734741211,-0.17467445135116577,-2.8907642364501953
1413393886660760500,0.007924266159534454,0.03513021767139435,0.07135932147502899,9.306519508361816,-0.18998727202415466,-3.029486656188965
1413393886665760500,0.005960054695606232,0.027971552684903145,0.0797218531370163,9.39724349975586,0.16897189617156982,-3.1216647624969482
1413393886670760500,-0.0036815479397773743,0.030245965346693993,0.07556001096963882,9.2340669631958,-0.002690628170967102,-2.9577949047088623
1413393886675760500,-0.0018400028347969055,0.018534449860453606,0.08177125453948975,9.454305648803711,-0.19061702489852905,-3.0058329105377197
1413393886680760500,-0.00461994856595993,0.024582767859101295,0.08122044801712036,9.233694076538086,-0.18142278492450714,-3.0132267475128174
1413393886685760500,-0.006631888449192047,0.021031366661190987,0.08110305666923523,9.560527801513672,-0.018712973222136497,-3.039726495742798
1413393886690760500,-0.01009351760149002,0.030918443575501442,0.07896780967712402,9.389242172241211,-0.1406363993883133,-2.908302068710327
1413393886695760500,0.005784712731838226,0.03378383070230484,0.08050961047410965,9.413252830505371,-0.18173521757125854,-2.9482462406158447
1413393886700760500,0.00795956701040268,0.03297983109951019,0.0804286003112793,9.266012191772461,-0.11619549244642258,-2.981128692626953
1413393886705760500,0.0038486942648887634,0.037811070680618286,0.07753800600767136,9.44619369506836,0.16872180998325348,-3.0645956993103027
1413393886710760500,-0.002419613301753998,0.03173403441905975,0.07904450595378876,9.103493690490723,0.02963283471763134,-2.711822748184204
1413393886715760500,-0.0018087849020957947,0.015620840713381767,0.08114223182201385,9.577075958251953,-0.16643725335597992,-3.04689884185791
1413393886720760500,-0.0024551525712013245,0.02665489725768566,0.08315402269363403,9.209232330322266,0.05514751002192497,-2.973613739013672
1413393886725760500,-0.008020289242267609,0.03152784705162048,0.07555270195007324,9.421485900878906,-0.010964547283947468,-2.9822263717651367
1413393886730760500,0.00035031139850616455,0.024631181731820107,0.07902532070875168,9.185108184814453,-0.14993323385715485,-2.891511917114258
1413393886735760500,0.0030267760157585144,0.028131717815995216,0.07413878291845322,9.527975082397461,-0.04241401329636574,-3.0223147869110107
1413393886740760500,0.01143636554479599,0.030909394845366478,0.08530531823635101,9.217227935791016,0.06366917490959167,-2.990107297897339
1413393886745760500,0.0010899528861045837,0.03219715505838394,0.074164479970932,9.364635467529297,0.06271974742412567,-2.9578897953033447
1413393886750760500,-0.0024759620428085327,0.014212267473340034,0.08314491808414459,9.103590965270996,0.08744410425424576,-2.744762897491455
1413393886755760500,-0.002484641969203949,0.01354173757135868,0.08043977618217468,9.43001651763916,-0.0846363976597786,-2.907580614089966
1413393886760760500,-0.004559561610221863,0.016844401136040688,0.08947737514972687,9.274764060974121,-0.08356934040784836,-3.137683391571045
1413393886765760500,-0.011455245316028595,0.025257522240281105,0.0790632888674736,9.470718383789062,-0.17377033829689026,-3.05574107170105
1413393886770760500,-0.003835730254650116,0.012850245460867882,0.08116023242473602,9.299174308776855,-0.2894989550113678,-3.0465376377105713
1413393886775760500,0.0037552043795585632,0.02675207145512104,0.07762718200683594,9.446081161499023,-0.1081080213189125,-2.9645767211914062
1413393886780760500,0.014234483242034912,0.015530569478869438,0.0874219611287117,9.274921417236328,0.031141849234700203,-3.0140669345855713
1413393886785760500,0.003913499414920807,0.029470866546034813,0.07277638465166092,9.470620155334473,0.06288804858922958,-3.0073049068450928
1413393886790760500,-0.0038330331444740295,0.008673565462231636,0.07892847806215286,9.119462013244629,0.12807835638523102,-2.949920177459717
1413393886795760500,-0.008810669183731079,0.018424073234200478,0.07766418159008026,9.438167572021484,-0.23116625845432281,-2.997908592224121
1413393886800760500,-0.008049391210079193,0.02105073072016239,0.08812060952186584,9.283129692077637,-0.14032655954360962,-3.1944973468780518
1413393886805760500,-0.009364239871501923,0.028845949098467827,0.08118804544210434,9.495253562927246,-0.17395758628845215,-3.014709711074829
1413393886810760500,-0.003816939890384674,0.014930011704564095,0.08319567143917084,9.201069831848145,-0.10944131761789322,-2.989081382751465
1413393886815760500,0.000291675329208374,0.03582689166069031,0.07411965727806091,9.478504180908203,-0.20626333355903625,-2.9972739219665527
1413393886820760500,0.004448562860488892,0.028832310810685158,0.07980076223611832,9.119288444519043,-0.12382917106151581,-3.029738187789917
1413393886825760500,0.007326193153858185,0.035879358649253845,0.07769215106964111,9.49521255493164,-0.03498707339167595,-3.0236172676086426
1413393886830760500,0.0024750903248786926,0.023372115567326546,0.08249111473560333,9.135835647583008,-0.026849111542105675,-3.006143093109131
1413393886835760500,-0.0010636523365974426,0.026716476306319237,0.08180292695760727,9.405412673950195,-0.026421822607517242,-2.9409797191619873
1413393886840760500,-0.010804235935211182,0.026548853144049644,0.08458749949932098,9.103278160095215,-0.14861200749874115,-3.0545806884765625
1413393886845760500,-0.00876840204000473,0.03161058574914932,0.0880790650844574,9.324191093444824,-0.11684083938598633,-3.038947820663452
1413393886850760500,-0.006648741662502289,0.028907811269164085,0.08465217053890228,9.339969635009766,-0.18191976845264435,-2.9891974925994873
1413393886855760500,0.0010401681065559387,0.02878330834209919,0.08525700122117996,9.233854293823242,-0.07545485347509384,-2.9241576194763184
1413393886860760500,0.0045355334877967834,0.032259322702884674,0.07627589255571365,9.151771545410156,-0.18215100467205048,-3.0136396884918213
1413393886865760500,0.008638851344585419,0.02399352751672268,0.07557038962841034,9.258550643920898,-0.019475547596812248,-2.9326295852661133
1413393886870760500,0.006598122417926788,0.020448481664061546,0.07003873586654663,9.241804122924805,-0.08389995992183685,-3.063140630722046
1413393886875760500,0.002454809844493866,0.018284952268004417,0.07411204278469086,9.136045455932617,0.07908511906862259,-2.949092388153076
1413393886880760500,-0.00796973705291748,0.025892456993460655,0.0776176005601883,9.373021125793457,-0.03485601022839546,-3.0388801097869873
1413393886885760500,-0.010130681097507477,0.022583743557333946,0.07833048701286316,9.315441131591797,-0.1175684779882431,-2.9654104709625244
1413393886890760500,-0.008775509893894196,0.025325575843453407,0.07487978786230087,9.674531936645508,-0.1493968963623047,-3.2113492488861084
1413393886895760500,-0.00525868684053421,0.030171534046530724,0.08042587339878082,9.201310157775879,0.07995765656232834,-2.9085135459899902
1413393886900760500,-0.002430371940135956,0.028084201738238335,0.07280238717794418,9.445816993713379,-0.19867007434368134,-3.0058841705322266
1413393886905760500,0.003095462918281555,0.029649173840880394,0.07418057322502136,9.331304550170898,-0.17449045181274414,-2.8584115505218506
1413393886910760500,0.015603363513946533,0.023313013836741447,0.08049219846725464,9.454178810119629,-0.14119572937488556,-3.0793325901031494
1413393886915760500,0.00868060439825058,0.025304468348622322,0.07687850296497345,9.046342849731445,0.054368287324905396,-2.826720952987671
1413393886920760500,-0.00028924643993377686,0.022435026243329048,0.08392981439828873,9.454896926879883,0.047574613243341446,-3.1130788326263428
1413393886925760500,-0.007311083376407623,0.025375569239258766,0.0818219929933548,9.217402458190918,-0.09315316379070282,-2.883277177810669
1413393886930760500,-0.00533854216337204,0.01904291845858097,0.09143809974193573,9.495706558227539,-0.019570322707295418,-2.973752021789551
1413393886935760500,-0.007308684289455414,0.02734369970858097,0.0874064639210701,9.054859161376953,0.05563320964574814,-2.9411470890045166
1413393886940760500,-0.007310234010219574,0.02190265990793705,0.081842802464962,9.388836860656738,-0.2963469624519348,-3.0051097869873047
1413393886945760500,0.002395518124103546,0.017724161967635155,0.08183837682008743,9.053834915161133,-0.26412028074264526,-2.9563047885894775
1413393886950760500,0.00998108834028244,0.01842590980231762,0.07493957877159119,9.405462265014648,-0.10866819322109222,-2.981451988220215
1413393886955760500,0.005925506353378296,0.019756237044930458,0.0776047334074974,9.160529136657715,-0.01059465017169714,-2.89963698387146
1413393886960760500,0.0010994002223014832,0.014852175489068031,0.0755716860294342,9.58466625213623,-0.16590078175067902,-3.104463577270508
1413393886965760500,-0.00037007778882980347,0.021195704117417336,0.07485886663198471,9.062231063842773,-0.092167928814888,-2.858491897583008
1413393886970760500,-0.0017458125948905945,0.012666160240769386,0.090877965092659,9.496027946472168,0.12838904559612274,-3.2937281131744385
1413393886975760500,-0.013558931648731232,0.03996995836496353,0.08458308130502701,9.348467826843262,0.07199252396821976,-2.94150447845459
1413393886980760500,-0.013603650033473969,0.023319480940699577,0.08594629168510437,9.233743667602539,-0.19075477123260498,-2.907283067703247
1413393886985760500,-0.005324728786945343,0.02758217789232731,0.07144373655319214,9.364171028137207,-0.40287071466445923,-2.931959867477417
1413393886990760500,0.01209721714258194,0.024680348113179207,0.07902426272630692,9.217368125915527,-0.11617369949817657,-3.054259777069092
1413393886995760500,0.012919522821903229,0.025270657613873482,0.08399273455142975,9.421493530273438,0.006139232311397791,-2.9909119606018066
1413393887000760500,0.001765511929988861,0.018311886116862297,0.07491820305585861,9.356433868408203,-0.02771945856511593,-2.981691598892212
1413393887005760500,0.0024106353521347046,0.02463473193347454,0.07756608724594116,9.299298286437988,-0.10876303911209106,-3.0385935306549072
1413393887010760500,0.0003163740038871765,0.02105097658932209,0.08867824077606201,9.185220718383789,0.24328820407390594,-3.023585319519043
1413393887015760500,-0.013551205396652222,0.029430711641907692,0.09079568833112717,9.642909049987793,0.1121322438120842,-3.0076191425323486
1413393887020760500,-0.01768377423286438,0.03235211223363876,0.08323010802268982,9.258260726928711,-0.12589050829410553,-2.9074409008026123
1413393887025760500,-0.005333922803401947,0.018455462530255318,0.075595423579216,9.38033676147461,-0.41093626618385315,-3.0055134296417236
1413393887030760500,0.0099257230758667,0.03229694813489914,0.07134220749139786,9.176064491271973,-0.2061809003353119,-2.9480984210968018
1413393887035760500,0.013607807457447052,0.020498113706707954,0.08334047347307205,9.356315612792969,-0.018152503296732903,-2.9571869373321533
1413393887040760500,0.005998358130455017,0.02954053319990635,0.07354569435119629,9.429830551147461,-0.1663360297679901,-2.9978630542755127
1413393887045760500,0.007239587604999542,0.02117730863392353,0.08167723566293716,9.193341255187988,-0.027073122560977936,-2.964702606201172
1413393887050760500,0.001686491072177887,0.027976857498288155,0.08174031972885132,9.119855880737305,0.25183966755867004,-2.9906623363494873
1413393887055760500,-0.01769515499472618,0.02176566980779171,0.08587464690208435,9.430655479431152,0.17722032964229584,-3.015530824661255
1413393887060760500,-0.021194878965616226,0.03509379178285599,0.07980464398860931,9.348374366760254,-0.15834292769432068,-3.063610076904297
1413393887065760500,-0.0074037909507751465,0.01986163668334484,0.08193489909172058,9.217246055603027,-0.3044227659702301,-2.8909552097320557
1413393887070760500,0.0050894394516944885,0.023206183686852455,0.07548755407333374,9.176339149475098,-0.2474709153175354,-2.9232819080352783
1413393887075760500,0.013603165745735168,0.012108521535992622,0.0811748057603836,9.184496879577637,-0.14962518215179443,-2.9317429065704346
1413393887080760500,0.00803789496421814,0.022536391392350197,0.07563285529613495,9.511601448059082,-0.14140555262565613,-3.0471420288085938
1413393887085760500,0.010721556842327118,0.01414857991039753,0.07549303770065308,9.176786422729492,-0.07556445151567459,-2.9731574058532715
1413393887090760500,0.0052223727107048035,0.022475680336356163,0.07971823215484619,9.250389099121094,0.15347431600093842,-3.015178680419922
1413393887095760500,-0.010023914277553558,0.009199332445859909,0.08450078964233398,9.209930419921875,0.20157872140407562,-2.974353551864624
1413393887100760500,-0.026094824075698853,0.024637902155518532,0.07832686603069305,9.544835090637207,-0.1172354519367218,-3.0145843029022217
1413393887105760500,-0.01577845960855484,0.02056003175675869,0.0847461000084877,9.364433288574219,-0.3862197995185852,-2.940096616744995
1413393887110760500,0.001608438789844513,0.03246188908815384,0.0818144679069519,9.461882591247559,-0.40233221650123596,-3.0054922103881836
1413393887115760500,0.008666574954986572,0.019882159307599068,0.08388464897871017,9.08617115020752,-0.22346678376197815,-2.8333964347839355
1413393887120760500,0.014346502721309662,0.022627202793955803,0.07773665338754654,9.593317031860352,-0.19869719445705414,-2.997859001159668
1413393887125760500,0.015600383281707764,0.01835026778280735,0.07478974014520645,9.184938430786133,-0.06739209592342377,-2.8749332427978516
1413393887130760500,0.01209694892168045,0.023851560428738594,0.08181648701429367,9.397329330444336,0.17771413922309875,-3.1299283504486084
1413393887135760500,-0.005823113024234772,0.03158610314130783,0.08112648874521255,9.193507194519043,0.25844869017601013,-2.9417879581451416
1413393887140760500,-0.026049822568893433,0.02396448515355587,0.08168329298496246,9.504165649414062,0.1523248255252838,-2.9907641410827637
1413393887145760500,-0.023427054286003113,0.03375139832496643,0.08112373948097229,9.29126262664795,-0.2150571644306183,-2.899789333343506
1413393887150760500,-0.007445640861988068,0.019788043573498726,0.08252464979887009,9.25833511352539,-0.3293529152870178,-3.0379703044891357
1413393887155760500,-0.00039499253034591675,0.037201955914497375,0.07627714425325394,9.126822471618652,-0.2640933096408844,-2.899099588394165
1413393887160760500,0.012894295156002045,0.021302489563822746,0.07776807993650436,9.364128112792969,-0.2972228527069092,-2.9069151878356934
1413393887165760500,0.017024725675582886,0.030943656340241432,0.06792909651994705,9.356123924255371,-0.2056150734424591,-3.0219597816467285
1413393887170760500,0.01702704280614853,0.020412428304553032,0.08176502585411072,9.185296058654785,0.21867629885673523,-3.0968055725097656
1413393887175760500,-0.005130507051944733,0.03910800814628601,0.07897134125232697,9.291722297668457,0.3974626064300537,-2.950803518295288
1413393887180760500,-0.025338932871818542,0.026003224775195122,0.08517909795045853,9.315896987915039,0.12850746512413025,-3.0232298374176025
1413393887185760500,-0.028962358832359314,0.028768116608262062,0.07557594031095505,9.43828010559082,-0.23877978324890137,-3.1042919158935547
1413393887190760500,-0.017186421900987625,0.013517903164029121,0.08252879977226257,9.193276405334473,-0.3134571611881256,-2.89080810546875
1413393887195760500,-0.0017735958099365234,0.03719142824411392,0.07420571148395538,9.559733390808105,-0.3456780016422272,-3.022458791732788
1413393887200760500,0.014948450028896332,0.024029435589909554,0.08268482983112335,9.077680587768555,-0.40276390314102173,-2.8979203701019287
1413393887205760500,0.023251928389072418,0.01986953802406788,0.07210640609264374,9.625714302062988,-0.2970832586288452,-2.9321775436401367
1413393887210760500,0.02398645132780075,0.015522273257374763,0.07331442087888718,9.225894927978516,0.2024311125278473,-2.900385618209839
1413393887215760500,0.012264348566532135,0.026499779894948006,0.08318474888801575,9.544464111328125,0.3975321054458618,-3.122551679611206
1413393887220760500,-0.02044489234685898,0.029386891052126884,0.08310960233211517,9.266988754272461,0.26655933260917664,-3.0159270763397217
1413393887225760500,-0.026829101145267487,0.02961568348109722,0.08036577701568604,9.341045379638672,-0.010740389116108418,-2.91650652885437
1413393887230760500,-0.020642660558223724,0.01563781313598156,0.088840052485466,9.185104370117188,-0.22323854267597198,-2.792961835861206
1413393887235760500,-0.0039507076144218445,0.02183069847524166,0.08946537971496582,9.511293411254883,-0.37037429213523865,-3.095344305038452
1413393887240760500,0.012891031801700592,0.033764488995075226,0.08469653129577637,9.126916885375977,-0.3701237738132477,-2.866133213043213
1413393887245760500,0.019777610898017883,0.024885905906558037,0.0742429718375206,9.388721466064453,-0.3293931782245636,-2.768019676208496
1413393887250760500,0.026012875139713287,0.015621142461895943,0.07404199242591858,9.135849952697754,-0.14890600740909576,-2.8824310302734375
1413393887255760500,0.015710361301898956,0.01122451201081276,0.07761820405721664,9.258851051330566,0.34925559163093567,-3.1547067165374756
1413393887260760500,-0.007175110280513763,0.03352370113134384,0.08454573154449463,9.194185256958008,0.47965410351753235,-2.8939483165740967
1413393887265760500,-0.03094683587551117,0.01980392076075077,0.07610655575990677,9.45510196685791,0.11977078020572662,-2.9825501441955566
1413393887270760500,-0.03039279580116272,0.021252350881695747,0.07836288213729858,9.26639175415039,-0.32936471700668335,-2.923518419265747
1413393887275760500,-0.017184950411319733,0.01280977763235569,0.07072074711322784,9.24197769165039,-0.34594544768333435,-3.0378146171569824
1413393887280760500,0.0009499415755271912,0.03510245680809021,0.0748828798532486,9.331439971923828,-0.3700321614742279,-2.8831264972686768
1413393887285760500,0.01013096421957016,0.015738369897007942,0.07504026591777802,9.44526195526123,-0.3695879280567169,-3.05435848236084
1413393887290760500,0.022547148168087006,0.026162179186940193,0.07073114812374115,9.502700805664062,-0.25588393211364746,-2.9240100383758545
1413393887295760500,0.02119152992963791,0.011335333809256554,0.07267897576093674,9.111742973327637,0.1604010909795761,-2.989802122116089
1413393887300760500,0.00949934870004654,0.035553447902202606,0.08734256029129028,9.577831268310547,0.49607276916503906,-3.041486978530884
1413393887305760500,-0.022472001612186432,0.02466280572116375,0.08933253586292267,9.20184326171875,0.2838069498538971,-2.9909780025482178
1413393887310760500,-0.03103620558977127,0.019804736599326134,0.08734831213951111,9.54468822479248,-0.15860863029956818,-2.9907572269439697
1413393887315760500,-0.022056907415390015,0.026704994961619377,0.0846312940120697,9.111381530761719,-0.30531585216522217,-2.964111089706421
1413393887320760500,-0.009537868201732635,0.023175502195954323,0.0929693877696991,9.633927345275879,-0.3128345012664795,-3.137531280517578
1413393887325760500,0.008028499782085419,0.024777570739388466,0.0799187421798706,9.10246467590332,-0.43459028005599976,-2.8409173488616943
1413393887330760500,0.02538268268108368,0.018522316589951515,0.0790894404053688,9.568655014038086,-0.3779604732990265,-2.997075080871582
1413393887335760500,0.028107590973377228,0.037200093269348145,0.06775899231433868,9.13512134552002,-0.035357337445020676,-2.898726463317871
1413393887340760500,0.01643158495426178,0.020978135988116264,0.08933484554290771,9.47114086151123,0.5287101864814758,-3.016829252243042
1413393887345760500,-0.01553131639957428,0.03992018103599548,0.07904785871505737,9.381525993347168,0.308890700340271,-3.0818097591400146
1413393887350760500,-0.031677477061748505,0.028203370049595833,0.07265296578407288,9.234707832336426,0.09502334892749786,-2.998474597930908
1413393887355760500,-0.02616535872220993,0.032159604132175446,0.08120284974575043,9.086965560913086,-0.2804933190345764,-3.0466830730438232
1413393887360760500,-0.014344342052936554,0.021873505786061287,0.07904623448848724,9.290836334228516,-0.23114047944545746,-3.030010223388672
1413393887365760500,0.0023657307028770447,0.041525982320308685,0.08048940449953079,9.208843231201172,-0.44316530227661133,-2.8324713706970215
1413393887370760500,0.012135826051235199,0.019896874204277992,0.07780744880437851,9.315145492553711,-0.4355679452419281,-2.8657426834106445
1413393887375760500,0.030168481171131134,0.028793727979063988,0.07267572730779648,9.257966041564941,-0.14887604117393494,-2.87467098236084
1413393887380760500,0.01778702437877655,0.009832600131630898,0.07543811202049255,9.119869232177734,0.4305048882961273,-3.015958786010742
1413393887385760500,-0.0008935481309890747,0.03348737955093384,0.08876794576644897,9.487919807434082,0.5040063858032227,-2.9926044940948486
1413393887390760500,-0.03156299889087677,0.016879161819815636,0.07885381579399109,9.340712547302246,0.15266938507556915,-3.0644614696502686
1413393887395760500,-0.031112894415855408,0.021099625155329704,0.08183470368385315,9.372896194458008,-0.07608388364315033,-3.0064690113067627
1413393887400760500,-0.02549363672733307,0.00723147951066494,0.0770111232995987,9.34815502166748,-0.3879203498363495,-2.9478607177734375
1413393887405760500,-0.0052929893136024475,0.022505750879645348,0.08384481072425842,9.67479133605957,-0.32103604078292847,-3.0717532634735107
1413393887410760500,0.004534125328063965,0.01982000656425953,0.07858401536941528,9.208394050598145,-0.46753671765327454,-2.833070755004883
1413393887415760500,0.025966636836528778,0.016413608565926552,0.07278788089752197,9.552140235900879,-0.4191626310348511,-2.981233596801758
1413393887420760500,0.029560275375843048,0.02333291433751583,0.06981334090232849,9.257888793945312,0.02263041026890278,-2.981456756591797
1413393887425760500,0.017843864858150482,0.007720351219177246,0.09023815393447876,9.520483016967773,0.47106337547302246,-3.180351495742798
1413393887430760500,-0.007124722003936768,0.038478195667266846,0.0845489501953125,9.349200248718262,0.3082360327243805,-2.999485731124878
1413393887435760500,-0.030992090702056885,0.018447602167725563,0.08239063620567322,9.299975395202637,-0.00233708624728024,-3.055513381958008
1413393887440760500,-0.027620829641819,0.02880007214844227,0.08184494078159332,9.217331886291504,-0.14181041717529297,-3.0306546688079834
1413393887445760500,-0.012981429696083069,0.014944309368729591,0.08945412933826447,9.27469539642334,-0.3871080279350281,-3.0707125663757324
1413393887450760500,0.005889683961868286,0.037922658026218414,0.08547313511371613,9.3724365234375,-0.5076488852500916,-2.9645206928253174
1413393887455760500,0.02054634690284729,0.016462167724967003,0.0819592997431755,9.167765617370605,-0.4597231447696686,-2.8405814170837402
1413393887460760500,0.03438948094844818,0.02603752352297306,0.07542982697486877,9.396588325500488,-0.1824643909931183,-2.9974238872528076
1413393887465760500,0.02053862065076828,0.01905098371207714,0.0789424255490303,9.021912574768066,0.324497789144516,-3.015087127685547
1413393887470760500,-0.0023002102971076965,0.02506088651716709,0.08311484009027481,9.373977661132812,0.5947214961051941,-2.9927682876586914
1413393887475760500,-0.0273575559258461,0.025354554876685143,0.07891008257865906,9.234541893005371,0.14445723593235016,-2.990507125854492
1413393887480760500,-0.03732606768608093,0.024617156013846397,0.07068990170955658,9.30744743347168,-0.11705287545919418,-3.0717597007751465
1413393887485760500,-0.02482614666223526,0.016250794753432274,0.0790950357913971,9.250073432922363,-0.3055228888988495,-2.9728102684020996
1413393887490760500,-0.00600656121969223,0.030262941494584084,0.07906228303909302,9.527719497680664,-0.3781004250049591,-2.9483249187469482
1413393887495760500,0.01281970739364624,0.02614601142704487,0.07710976898670197,9.273604393005371,-0.5157708525657654,-2.930845260620117
1413393887500760500,0.0302291139960289,0.026871146634221077,0.07282264530658722,9.46993350982666,-0.34596261382102966,-2.964247226715088
1413393887505760500,0.028881356120109558,0.023202164098620415,0.07261655479669571,9.299083709716797,0.11146903783082962,-3.01470947265625
1413393887510760500,0.012936025857925415,0.01817016862332821,0.07965853810310364,9.438759803771973,0.5291569232940674,-3.0250582695007324
1413393887515760500,-0.012753412127494812,0.032843902707099915,0.08878372609615326,9.422577857971191,0.38167673349380493,-2.975351333618164
1413393887520760500,-0.0351177453994751,0.02738388441503048,0.07681672275066376,9.430497169494629,0.13521184027194977,-3.1957545280456543
1413393887525760500,-0.02760937064886093,0.02955080382525921,0.08599050343036652,9.34797477722168,-0.2727660834789276,-2.9078216552734375
1413393887530760500,-0.01785898581147194,0.02393093891441822,0.07770320773124695,9.33984375,-0.36228179931640625,-3.1200194358825684
1413393887535760500,0.005135945975780487,0.039366744458675385,0.08115515857934952,9.217162132263184,-0.475395530462265,-2.816622734069824
1413393887540760500,0.023290492594242096,0.022683629766106606,0.0813073068857193,9.347625732421875,-0.42656415700912476,-2.9962854385375977
1413393887545760500,0.03508003056049347,0.030257614329457283,0.07618991285562515,9.38039493560791,-0.09277625381946564,-2.8426358699798584
1413393887550760500,0.017870604991912842,0.014720460399985313,0.08296268433332443,9.014183044433594,0.5613415241241455,-3.057258129119873
1413393887555760500,-0.009951867163181305,0.036215923726558685,0.09153895080089569,9.553634643554688,0.5783398151397705,-3.066692352294922
1413393887560760500,-0.0413321778178215,0.02808132953941822,0.08443666249513626,9.177578926086426,0.22649408876895905,-3.0808217525482178
1413393887565760500,-0.03321468085050583,0.035191915929317474,0.08253797888755798,9.519600868225098,-0.4372002184391022,-2.973414421081543
1413393887570760500,-0.019206315279006958,0.02337554283440113,0.06869476288557053,9.192404747009277,-0.5507303476333618,-2.807417631149292
1413393887575760500,0.006553612649440765,0.02953503094613552,0.07418869435787201,9.257678985595703,-0.5730244517326355,-2.9879860877990723
1413393887580760500,0.021240629255771637,0.021212371066212654,0.06952215731143951,9.281866073608398,-0.2871624529361725,-3.062601089477539
1413393887585760500,0.026769332587718964,0.009138258174061775,0.07483813911676407,9.52015495300293,0.30896785855293274,-3.4094367027282715
1413393887590760500,0.0024451985955238342,0.0384492501616478,0.06978239864110947,9.568830490112305,0.42235204577445984,-3.0985026359558105
1413393887595760500,-0.028129376471042633,0.029328295961022377,0.06641651690006256,9.609950065612793,0.40588998794555664,-3.1389057636260986
1413393887600760500,-0.03511672466993332,0.04220295697450638,0.05956481769680977,10.001083374023438,-0.5171995162963867,-3.382509231567383
1413393887605760500,-0.009488053619861603,0.02134122885763645,0.0673358142375946,9.494231224060059,-0.6501092910766602,-2.816316843032837
1413393887610760500,0.015008248388767242,0.05172719061374664,0.08339059352874756,9.33907413482666,-0.287945955991745,-3.1614041328430176
1413393887615760500,0.03245333582162857,0.05814402550458908,0.1235627830028534,8.931905746459961,0.01456714142113924,-2.8255317211151123
1413393887620760500,0.022593535482883453,0.036564745008945465,0.1520276814699173,8.982392311096191,-0.033891621977090836,-2.9484026432037354
1413393887625760500,0.022436484694480896,0.05978839099407196,0.14217370748519897,9.422870635986328,-0.24648845195770264,-2.949151039123535
1413393887630760500,0.015604197978973389,0.03289385139942169,0.11776526272296906,8.867669105529785,-0.05967871844768524,-2.791715145111084
1413393887635760500,0.0005050972104072571,0.024941949173808098,0.10809142887592316,9.128873825073242,0.47987687587738037,-3.0572166442871094
1413393887640760500,-0.039877764880657196,0.05183461308479309,0.08108814805746078,9.063345909118652,0.20198337733745575,-2.671020030975342
1413393887645760500,-0.05201292037963867,0.03455858677625656,0.05283159017562866,9.168373107910156,-0.494634211063385,-2.9556708335876465
1413393887650760500,-0.020780470222234726,0.03254210203886032,0.023463323712348938,9.011198997497559,-1.0823549032211304,-2.7090678215026855
1413393887655760500,0.01482902467250824,0.012220537289977074,0.031562477350234985,8.62828540802002,-0.3049166202545166,-2.6436147689819336
1413393887660760500,0.030519939959049225,0.04995492845773697,0.04983358830213547,9.453568458557129,-0.04223300516605377,-3.0221054553985596
1413393887665760500,0.010906457901000977,0.03649631887674332,0.0545208603143692,8.50732707977295,0.17746427655220032,-2.628551721572876
1413393887670760500,0.011936202645301819,0.00016812793910503387,0.06780220568180084,9.488348007202148,0.02937822788953781,-3.2119410037994385
1413393887675760500,-0.0012001767754554749,0.033757179975509644,0.06926460564136505,9.381584167480469,0.4544975459575653,-2.770293712615967
1413393887680760500,-0.009172551333904266,0.004606274887919426,0.13344095647335052,9.161968231201172,0.5463601350784302,-3.123203754425049
1413393887685760500,-0.039086759090423584,0.03430991619825363,0.1091146320104599,9.537467956542969,-0.1755264401435852,-2.835908889770508
1413393887690760500,-0.020067699253559113,-0.014304975047707558,0.10815999656915665,9.390511512756348,-0.6349577307701111,-2.971456527709961
1413393887695760500,-0.0006860122084617615,0.005175907164812088,0.07193107157945633,10.179454803466797,-0.4061022400856018,-3.0655901432037354
1413393887700760500,0.00933874398469925,-0.007063843309879303,0.10745715349912643,9.51073169708252,0.23486672341823578,-3.090033769607544
1413393887705760500,-0.007735751569271088,0.043457671999931335,0.0674891471862793,9.977423667907715,-0.5007822513580322,-3.294055223464966
1413393887710760500,0.011474594473838806,0.009094364941120148,0.06866416335105896,8.914989471435547,-0.31498125195503235,-2.2689311504364014
1413393887715760500,0.025196075439453125,0.008052835240960121,0.052282750606536865,10.34437370300293,-0.44455939531326294,-3.432037830352783
1413393887720760500,0.020622000098228455,0.03638509660959244,0.06599295884370804,8.883298873901367,0.824413537979126,-2.8292815685272217
1413393887725760500,0.00139588862657547,0.0321396067738533,0.09516377002000809,9.520905494689941,0.4493081271648407,-3.3035645484924316
1413393887730760500,-0.021917354315519333,0.07806000113487244,0.07758714258670807,8.695815086364746,-0.044215310364961624,-2.458148241043091
1413393887735760500,-0.01105954498052597,0.0004410315304994583,0.09490199387073517,9.006234169006348,0.012961672618985176,-3.0045325756073
1413393887740760500,-0.014450989663600922,0.04542146623134613,0.0758252814412117,9.3645658493042,-0.23036520183086395,-3.28523325920105
1413393887745760500,-0.009349890053272247,0.026663897559046745,0.10834065079689026,8.662896156311035,-0.09923942387104034,-2.914659023284912
1413393887750760500,-0.014914508908987045,0.06034010648727417,0.08488065004348755,9.028870582580566,-0.671735405921936,-2.8902533054351807
1413393887755760500,0.0002673044800758362,0.01592979021370411,0.07895700633525848,8.564519882202148,-0.24957618117332458,-2.6336443424224854
1413393887760760500,0.01976429671049118,-0.004067586734890938,0.05509527027606964,9.739909172058105,-0.4621833264827728,-3.398472309112549
1413393887765760500,0.019279681146144867,0.015342528000473976,0.06294402480125427,9.086372375488281,0.342664897441864,-2.9501895904541016
1413393887770760500,0.0055167898535728455,0.02078867144882679,0.07648585736751556,9.838065147399902,0.06482953578233719,-3.56467866897583
1413393887775760500,-0.017042919993400574,0.047968484461307526,0.04270416125655174,8.571760177612305,0.12167466431856155,-2.3421127796173096
1413393887780760500,-0.011033512651920319,-0.02071407437324524,0.07545602321624756,9.480416297912598,-0.14138583838939667,-2.9970107078552246
1413393887785760500,-0.018635600805282593,0.011876111850142479,0.04912475124001503,10.049844741821289,-0.24690482020378113,-3.2863712310791016
1413393887790760500,-0.0031454339623451233,0.004935482516884804,0.09855008125305176,9.306841850280762,0.1149219498038292,-2.810678243637085
1413393887795760500,-0.013560593128204346,0.046865761280059814,0.0898011177778244,9.976420402526855,-0.2717157006263733,-3.099292039871216
1413393887800760500,-0.014460153877735138,0.017344972118735313,0.08299057185649872,8.793620109558105,-0.2425297200679779,-2.716458797454834
1413393887805760500,0.012730233371257782,0.004509305581450462,0.09017615020275116,10.246906280517578,-0.6445152163505554,-3.2851266860961914
1413393887810760500,0.021299518644809723,0.034409381449222565,0.09935859590768814,8.997337341308594,0.05522899702191353,-2.8015589714050293
1413393887815760500,0.02154652029275894,0.03561301529407501,0.11086541414260864,9.724358558654785,0.348649263381958,-3.212646722793579
1413393887820760500,-0.006450876593589783,0.05422946810722351,0.08675218373537064,9.070255279541016,-0.04532748460769653,-2.645109176635742
1413393887825760500,-0.007585592567920685,0.013544196262955666,0.08364388346672058,9.227121353149414,-0.028575202450156212,-3.014993190765381
1413393887830760500,-0.0006492510437965393,0.02950202487409115,0.07471224665641785,9.634143829345703,-0.25224435329437256,-3.1465890407562256
1413393887835760500,0.0004260912537574768,0.03788704425096512,0.08062206208705902,8.613289833068848,0.16424544155597687,-2.849686861038208
1413393887840760500,-0.008452378213405609,0.031476765871047974,0.08945728838443756,9.16001033782959,0.22783662378787994,-2.9184377193450928
1413393887845760500,-0.02140689641237259,0.033278338611125946,0.06635531783103943,8.777203559875488,-0.1694849729537964,-2.6839020252227783
1413393887850760500,-0.011780232191085815,-0.007712863385677338,0.07140109688043594,9.031009674072266,-0.16621890664100647,-3.038389205932617
1413393887855760500,0.005902372300624847,0.013467105105519295,0.07428617030382156,9.323472023010254,-0.2457241266965866,-3.1291580200195312
1413393887860760500,0.010365895926952362,0.004396030679345131,0.0769059881567955,8.775996208190918,0.05247294530272484,-2.735412836074829
1413393887865760500,0.007568098604679108,0.01343531347811222,0.07011662423610687,9.764235496520996,0.10195954889059067,-3.080888271331787
1413393887870760500,-0.004648424685001373,0.0051367077976465225,0.06286393105983734,8.940017700195312,0.02909025549888611,-2.7596051692962646
1413393887875760500,-0.009639754891395569,-0.01120283268392086,0.07758546620607376,9.569939613342285,0.006688310299068689,-3.2857248783111572
1413393887880760500,-0.008700989186763763,0.030357634648680687,0.08766476064920425,9.641301155090332,-0.13956204056739807,-3.1380250453948975
1413393887885760500,-0.005781479179859161,0.01060660369694233,0.08322644233703613,9.151700019836426,-0.30296316742897034,-3.0130398273468018
1413393887890760500,-0.005263879895210266,0.01560591347515583,0.07677623629570007,10.00988483428955,-0.10200551152229309,-2.983790874481201
1413393887895760500,-0.004076309502124786,0.019865455105900764,0.07622440159320831,9.405352592468262,-0.1325303465127945,-2.88209867477417
1413393887900760500,-0.011637724936008453,0.01623261533677578,0.07354602217674255,9.707621574401855,-0.11743887513875961,-3.155245780944824
1413393887905760500,-0.004517443478107452,0.031840965151786804,0.08412940800189972,9.681952476501465,-0.3457500636577606,-3.038996696472168
1413393887910760500,0.012333594262599945,0.0246709194034338,0.09026913344860077,9.136560440063477,-0.3622995913028717,-2.922733783721924
1413393887915760500,0.013607196509838104,0.024026384577155113,0.07249701023101807,9.592851638793945,0.06954342871904373,-2.998600482940674
1413393887920760500,0.0037793293595314026,0.02599744312465191,0.07822708040475845,9.030557632446289,0.10427962243556976,-2.80115008354187
1413393887925760500,-0.009462974965572357,0.013487959280610085,0.08465145528316498,9.536365509033203,0.06289878487586975,-3.155015707015991
1413393887930760500,-0.01089862734079361,0.050549209117889404,0.09505968540906906,9.657631874084473,0.04030429571866989,-3.1382551193237305
1413393887935760500,-0.004490971565246582,0.04065985232591629,0.100780189037323,8.508281707763672,-0.19872388243675232,-2.8897624015808105
1413393887940760500,0.0010511800646781921,0.023356596007943153,0.08721916377544403,9.454376220703125,-0.28112226724624634,-2.8996341228485107
1413393887945760500,0.009315736591815948,0.05131513625383377,0.08166997134685516,9.038151741027832,-0.08240729570388794,-2.840592622756958
1413393887950760500,0.005824364721775055,0.006410675123333931,0.08616887032985687,8.711222648620605,0.04572892561554909,-2.8263673782348633
1413393887955760500,-0.008001886308193207,0.027213672176003456,0.07129862904548645,9.642056465148926,0.09585054218769073,-3.2126879692077637
1413393887960760500,-0.006518043577671051,0.04068106412887573,0.07968948781490326,8.965449333190918,0.03833688795566559,-2.9969959259033203
1413393887965760500,0.0031215474009513855,0.003064284101128578,0.07918563485145569,8.947161674499512,-0.21604777872562408,-2.8170735836029053
1413393887970760500,-0.0003503561019897461,0.023175762966275215,0.055142223834991455,9.512590408325195,0.1464817374944687,-2.9411721229553223
1413393887975760500,-0.0010255947709083557,0.009196104481816292,0.06932500004768372,8.825769424438477,0.15313895046710968,-2.7188355922698975
1413393887980760500,-0.015061628073453903,0.005605418235063553,0.06308785080909729,9.97528076171875,0.03720112890005112,-3.205242156982422
1413393887985760500,-0.019319400191307068,0.048316679894924164,0.06559252738952637,9.634818077087402,-0.09223725646734238,-2.851170539855957
1413393887990760500,-0.010842137038707733,0.0067442189902067184,0.08213663846254349,9.323383331298828,-0.5018458962440491,-2.8332624435424805
1413393887995760500,0.00029662251472473145,0.030381308868527412,0.07977670431137085,10.000833511352539,-0.6000376343727112,-2.9903762340545654
1413393888000760500,0.010789863765239716,0.03923428803682327,0.07403090596199036,9.18488597869873,0.13677839934825897,-2.972773313522339
1413393888005760500,0.016375601291656494,0.0050687044858932495,0.08756347000598907,9.258137702941895,0.2004385143518448,-2.9259285926818848
1413393888010760500,0.007301799952983856,0.01753169484436512,0.08987283706665039,9.831755638122559,0.07011587172746658,-3.1299118995666504
1413393888015760500,-0.01152726262807846,0.03169240057468414,0.08591441065073013,9.356620788574219,0.0960850715637207,-3.0805068016052246
1413393888020760500,-0.010111354291439056,0.005846234038472176,0.10164991021156311,9.4545316696167,-0.26509109139442444,-2.949653387069702
1413393888025760500,0.00026798248291015625,0.023926949128508568,0.08860378712415695,9.431005477905273,-0.5659999847412109,-2.980492353439331
1413393888030760500,0.0016430839896202087,0.013777097687125206,0.07062414288520813,8.995718002319336,-0.13218042254447937,-2.6938750743865967
1413393888035760500,0.01017007976770401,0.0028136204928159714,0.08330307900905609,9.315584182739258,0.16034267842769623,-3.0398659706115723
1413393888040760500,-0.0017477795481681824,0.019586293026804924,0.0807655081152916,9.218667030334473,0.17732539772987366,-2.917153835296631
1413393888045760500,-0.014417305588722229,0.013013890013098717,0.07288068532943726,9.062227249145508,-0.04214940220117569,-3.014573812484741
1413393888050760500,-0.014265142381191254,0.02602207474410534,0.07931004464626312,9.454556465148926,-0.1008663922548294,-3.0150153636932373
1413393888055760500,-0.0017419829964637756,0.03670185059309006,0.07674300670623779,8.955838203430176,-0.3127509653568268,-2.9052436351776123
1413393888060760500,0.009420253336429596,0.01573343016207218,0.06934995949268341,9.249907493591309,-0.19854086637496948,-2.890727996826172
1413393888065760500,0.011577524244785309,0.021103056147694588,0.07844214141368866,9.128104209899902,0.09555409848690033,-2.89129638671875
1413393888070760500,0.00800449401140213,0.012028256431221962,0.08502507209777832,9.30724811553955,0.12878771126270294,-3.0481481552124023
1413393888075760500,-0.009545952081680298,0.0146865863353014,0.07706164568662643,9.609881401062012,0.1867450773715973,-3.221277952194214
1413393888080760500,-0.02337021380662918,0.03711120784282684,0.07993297278881073,9.503490447998047,0.06329752504825592,-3.138732433319092
1413393888085760500,-0.014247745275497437,0.028324628248810768,0.08098428696393967,9.159714698791504,-0.36193302273750305,-3.0703916549682617
1413393888090760500,0.0016852542757987976,0.025316590443253517,0.07557885348796844,9.560477256774902,-0.2964700162410736,-3.0049986839294434
1413393888095760500,0.0129212886095047,0.02244117669761181,0.07704896479845047,9.127297401428223,-0.0770333781838417,-2.9229543209075928
1413393888100760500,0.014332272112369537,0.0168378334492445,0.08166351914405823,9.568650245666504,0.02141820453107357,-3.1304028034210205
1413393888105760500,0.0044543445110321045,0.020961975678801537,0.07838982343673706,9.5852689743042,0.12924113869667053,-3.138859272003174
1413393888110760500,-0.015025123953819275,0.043455906212329865,0.06730745732784271,9.674421310424805,0.26706284284591675,-3.2294766902923584
1413393888115760500,-0.01774488016963005,0.05064178258180618,0.08030270040035248,9.184736251831055,-0.15741084516048431,-2.7931206226348877
1413393888120760500,-0.005231179296970367,0.024672893807291985,0.08876550197601318,9.422173500061035,-0.4514274597167969,-2.8488011360168457
1413393888125760500,0.007257178425788879,0.03165486454963684,0.08744187653064728,9.110689163208008,-0.19149565696716309,-2.816260814666748
1413393888130760500,0.012197412550449371,0.018170317634940147,0.09080533683300018,9.446264266967773,0.0386342816054821,-2.982215404510498
1413393888135760500,0.01072024554014206,0.025193670764565468,0.08596920222043991,9.421683311462402,-0.025013787671923637,-3.0728390216827393
1413393888140760500,-0.015096999704837799,0.028844522312283516,0.07274483144283295,9.552490234375,0.27474015951156616,-3.1720621585845947
1413393888145760500,-0.024072151631116867,0.05341648310422897,0.07141263037919998,9.193172454833984,-0.04358065500855446,-2.8341214656829834
1413393888150760500,-0.009343795478343964,0.03661300987005234,0.07904483377933502,8.964225769042969,-0.475615531206131,-2.839484930038452
1413393888155760500,0.009358704090118408,0.01835380680859089,0.08118948340415955,9.062498092651367,-0.42011213302612305,-2.8155877590179443
1413393888160760500,0.018495582044124603,0.02321997471153736,0.0783747062087059,9.062468528747559,0.0130996722728014,-2.7924580574035645
1413393888165760500,0.013609074056148529,0.017499538138508797,0.08033686876296997,9.356401443481445,0.0072519914247095585,-3.130493402481079
1413393888170760500,0.00019910186529159546,0.011960284784436226,0.07049576193094254,9.218198776245117,0.358422189950943,-2.9102587699890137
1413393888175760500,-0.021344706416130066,0.026804490014910698,0.07207374274730682,9.536355018615723,0.30756399035453796,-3.0655839443206787
1413393888180760500,-0.034382231533527374,0.041533537209033966,0.0749283954501152,9.078487396240234,-0.28860148787498474,-2.767308235168457
1413393888185760500,-0.012893714010715485,0.005792487412691116,0.09031924605369568,9.226249694824219,-0.7384076714515686,-2.871976137161255
1413393888190760500,0.015601567924022675,0.01411672867834568,0.08543618023395538,9.494978904724121,-0.20800147950649261,-2.989450454711914
1413393888195760500,0.02124243974685669,0.01349635235965252,0.09074088931083679,9.323650360107422,0.046817004680633545,-2.941479206085205
1413393888200760500,0.009415805339813232,-0.0006910655647516251,0.0732981413602829,9.691150665283203,0.11199132353067398,-3.107205867767334
1413393888205760500,-0.007395513355731964,0.004369940608739853,0.06155640259385109,9.748565673828125,0.33202892541885376,-3.2297019958496094
1413393888210760500,-0.02272985130548477,0.04223467409610748,0.06313128024339676,9.511213302612305,0.10403012484312057,-3.0889790058135986
1413393888215760500,-0.019757810980081558,0.021867064759135246,0.08479709923267365,8.964707374572754,-0.3698229193687439,-2.938683271408081
1413393888220760500,-0.0002707764506340027,0.00858970358967781,0.08471008390188217,9.455374717712402,-0.5596785545349121,-2.9306700229644775
1413393888225760500,0.017706409096717834,0.021248294040560722,0.0956835076212883,9.315322875976562,-0.15771593153476715,-2.997305154800415
1413393888230760500,0.01632475107908249,0.017490556463599205,0.08713836222887039,9.44582748413086,0.1295115053653717,-3.2296149730682373
1413393888235760500,0.004472360014915466,0.01337425597012043,0.07607011497020721,9.462902069091797,0.2590252161026001,-3.082115888595581
1413393888240760500,-0.017124515026807785,0.015698755159974098,0.07086040824651718,9.731937408447266,0.24273139238357544,-3.2943012714385986
1413393888245760500,-0.027479737997055054,0.053395047783851624,0.07853085547685623,9.012772560119629,-0.23063160479068756,-2.8408823013305664
1413393888250760500,-0.0051456838846206665,0.0309173334389925,0.09240201115608215,9.087563514709473,-0.6080983281135559,-2.8721418380737305
1413393888255760500,0.019133873283863068,0.019805429503321648,0.09788689017295837,9.160454750061035,-0.33001479506492615,-2.7754180431365967
1413393888260760500,0.0267891064286232,0.02401178888976574,0.08847050368785858,9.29839038848877,-0.025657348334789276,-2.997983932495117
1413393888265760500,0.015004687011241913,0.023682894185185432,0.07807417213916779,9.36442756652832,0.24295824766159058,-3.1396915912628174
1413393888270760500,-0.013725198805332184,0.018979771062731743,0.048395492136478424,9.471355438232422,0.24332033097743988,-3.1058993339538574
1413393888275760500,-0.02275269478559494,0.03803890943527222,0.05477697029709816,9.339617729187012,0.1785077452659607,-3.0558736324310303
1413393888280760500,-0.022570442408323288,0.04998782277107239,0.06263663619756699,8.988480567932129,-0.23137377202510834,-2.6681814193725586
1413393888285760500,-0.007260382175445557,0.02241227962076664,0.09033019840717316,8.981618881225586,-0.5187414288520813,-2.6760408878326416
1413393888290760500,0.00873102992773056,0.010457957163453102,0.09830618649721146,9.45457649230957,0.2026297152042389,-3.032210111618042
1413393888295760500,0.0037235990166664124,0.021085312590003014,0.08627767860889435,9.233736991882324,0.2753194570541382,-2.918511390686035
1413393888300760500,-0.012990139424800873,0.01252906583249569,0.07055262476205826,9.609448432922363,-0.10122764110565186,-3.319124698638916
1413393888305760500,-0.010856188833713531,0.017010437324643135,0.07788179814815521,9.626168251037598,-0.10014127939939499,-3.0230884552001953
1413393888310760500,0.0031407102942466736,0.04252404719591141,0.07103145122528076,9.697992324829102,-0.7056146860122681,-3.0199081897735596
1413393888315760500,0.033144205808639526,0.04571892321109772,0.09949582815170288,9.1597261428833,-0.5596479177474976,-2.733382225036621
1413393888320760500,0.051985450088977814,0.0077065397053956985,0.11378564685583115,9.3493070602417,-0.10021856427192688,-2.972339153289795
1413393888325760500,0.02057897299528122,0.031348101794719696,0.09306313842535019,9.748510360717773,0.6850199699401855,-3.2151825428009033
1413393888330760500,-0.0338469073176384,0.023602569475769997,0.06462647765874863,9.266768455505371,0.8892644643783569,-3.1432554721832275
1413393888335760500,-0.05204638093709946,0.024423761293292046,0.0637255609035492,9.373821258544922,0.14501288533210754,-3.1154496669769287
1413393888340760500,-0.05622030794620514,0.0431353896856308,0.048579853028059006,9.348272323608398,-0.4859250485897064,-2.7013354301452637
1413393888345760500,-0.018387869000434875,0.009530268609523773,0.07965770363807678,8.939393043518066,-0.7547445893287659,-2.8794028759002686
1413393888350760500,0.0381937175989151,0.016781466081738472,0.11469618231058121,9.307766914367676,-0.4041864573955536,-2.897928476333618
1413393888355760500,0.04562923312187195,0.010392708703875542,0.1084025651216507,9.32479476928711,0.27444058656692505,-3.113767623901367
1413393888360760500,0.014252513647079468,0.023802829906344414,0.08569265902042389,9.527509689331055,0.4395221173763275,-3.1079251766204834
1413393888365760500,-0.010780192911624908,0.028945831581950188,0.0711902305483818,9.641619682312012,-0.051707010716199875,-3.2281925678253174
1413393888370760500,-0.012334056198596954,0.04795553535223007,0.05054231733083725,9.535926818847656,-0.30426639318466187,-2.8659868240356445
1413393888375760500,0.01151306927204132,0.040888711810112,0.08185592293739319,8.91468620300293,-0.025438008829951286,-2.7176499366760254
1413393888380760500,0.0062677934765815735,0.03489048779010773,0.08057574927806854,9.258478164672852,0.365355908870697,-3.2037971019744873
1413393888385760500,-0.03383737802505493,0.051713235676288605,0.0687139704823494,9.193801879882812,0.44010332226753235,-3.0821266174316406
1413393888390760500,-0.05509917438030243,0.029883338138461113,0.07191836833953857,9.340814590454102,0.16232585906982422,-3.1573002338409424
1413393888395760500,-0.05077037215232849,0.044388338923454285,0.05995229259133339,9.30715560913086,-0.8689211010932922,-2.645399332046509
1413393888400760500,-0.005217075347900391,0.03126399219036102,0.07629789412021637,8.62055492401123,-0.8606812953948975,-2.616589069366455
1413393888405760500,0.04667733609676361,-0.0011256951838731766,0.09163603186607361,9.266196250915527,-0.6897916197776794,-2.92916202545166
1413393888410760500,0.052174873650074005,-0.0005529168993234634,0.07554297149181366,9.28299617767334,0.06968098878860474,-2.9478952884674072
1413393888415760500,0.03649415075778961,0.0020787660032510757,0.0719987004995346,9.584940910339355,0.24882082641124725,-3.0571811199188232
1413393888420760500,0.005103833973407745,0.003497948870062828,0.08451719582080841,9.626483917236328,0.5041424036026001,-2.9358808994293213
1413393888425760500,-0.01639028638601303,0.017575660720467567,0.09505938738584518,9.333003044128418,0.4580214321613312,-2.836400270462036
1413393888430760500,-0.046160802245140076,0.005689429119229317,0.08581216633319855,9.071495056152344,0.5131616592407227,-2.9520840644836426
1413393888435760500,-0.06310614943504333,0.009290318936109543,0.07578655332326889,9.757279396057129,-0.35477790236473083,-3.121312141418457
1413393888440760500,-0.05357465147972107,0.019124025478959084,0.05058944597840309,9.143335342407227,-0.6089723110198975,-2.8573038578033447
1413393888445760500,0.0062817856669425964,0.014459175989031792,0.08930481970310211,9.592630386352539,-0.901756227016449,-2.9808895587921143
1413393888450760500,0.042972318828105927,0.03875218331813812,0.09012491255998611,9.250625610351562,-0.11707660555839539,-2.9565320014953613
1413393888455760500,0.05567615479230881,0.031071634963154793,0.10622897744178772,9.235034942626953,0.20166130363941193,-3.0389416217803955
1413393888460760500,0.02422173321247101,0.04497654736042023,0.059444524347782135,9.192838668823242,0.15252043306827545,-3.088087320327759
1413393888465760500,0.010693095624446869,0.015510497614741325,0.08180313557386398,9.398117065429688,0.37283235788345337,-3.146324396133423
1413393888470760500,0.0031262561678886414,0.029456762596964836,0.08840544521808624,9.437994956970215,0.1858130395412445,-3.0318498611450195
1413393888475760500,-0.021627992391586304,0.02853061445057392,0.09167535603046417,8.631197929382324,0.49012506008148193,-2.885896682739258
1413393888480760500,-0.04826144129037857,0.006988978013396263,0.08849353343248367,9.366013526916504,-0.01768593303859234,-3.1061201095581055
1413393888485760500,-0.0586337149143219,0.008672920987010002,0.05574290454387665,9.225114822387695,-0.5166720747947693,-3.103175163269043
1413393888490760500,-0.004455246031284332,-0.0012784916907548904,0.08194690942764282,9.559525489807129,-0.6639115810394287,-2.874845027923584
1413393888495760500,0.022656075656414032,0.01278127171099186,0.0801396369934082,9.976265907287598,-0.5907107591629028,-3.324465751647949
1413393888500760500,0.030815489590168,0.05335429310798645,0.07678695768117905,8.8746976852417,0.044768184423446655,-2.6278748512268066
1413393888505760500,0.013972267508506775,0.023470385000109673,0.06921617686748505,9.650163650512695,-0.08653994649648666,-3.211383819580078
1413393888510760500,0.00842287391424179,0.04297715425491333,0.07693852484226227,9.601116180419922,-0.04440098628401756,-3.137279748916626
1413393888515760500,0.028009921312332153,0.03009841777384281,0.11109388619661331,9.560554504394531,0.20971150696277618,-3.0395543575286865
1413393888520760500,0.003478430211544037,0.09082875400781631,0.1028757244348526,9.258371353149414,0.46757832169532776,-3.1971726417541504
1413393888525760500,-0.029297932982444763,0.05548431724309921,0.09875558316707611,8.721673965454102,0.25164851546287537,-2.5887789726257324
1413393888530760500,-0.05357407033443451,0.03095090575516224,0.06065937504172325,9.454841613769531,-0.26344195008277893,-3.407644271850586
1413393888535760500,-0.024028826504945755,0.0574345737695694,0.07093913853168488,9.18384838104248,-0.5088716149330139,-2.7597315311431885
1413393888540760500,0.013337373733520508,0.02782008983194828,0.08507603406906128,9.102958679199219,-0.6463633179664612,-2.9873709678649902
1413393888545760500,0.027144715189933777,0.04353173077106476,0.07629753649234772,8.596047401428223,-0.21365442872047424,-2.537245512008667
1413393888550760500,0.01807350665330887,-0.005818692967295647,0.05298522859811783,8.64688777923584,-0.1851493865251541,-2.5532801151275635
1413393888555760500,0.018239811062812805,-0.0111544793471694,0.055775679647922516,9.89533519744873,0.14155098795890808,-3.3439290523529053
1413393888560760500,0.016240112483501434,0.025625361129641533,0.07266278564929962,9.502913475036621,0.6030287742614746,-3.1642260551452637
1413393888565760500,-0.0014228969812393188,0.03357356786727905,0.10916879773139954,9.144753456115723,0.4307102859020233,-2.6483571529388428
1413393888570760500,-0.03545835614204407,0.04382975399494171,0.08176682889461517,9.087453842163086,-0.025118639692664146,-2.6611502170562744
1413393888575760500,-0.031901463866233826,-0.004699403420090675,0.0717875137925148,9.43936538696289,-0.3792344331741333,-2.9149961471557617
1413393888580760500,-0.006562337279319763,0.025363342836499214,0.08130884915590286,9.812555313110352,-0.46819260716438293,-3.1461753845214844
1413393888585760500,0.008426345884799957,0.01964934729039669,0.10843166708946228,9.584837913513184,-0.05815386027097702,-2.7879927158355713
1413393888590760500,0.008289776742458344,0.03180118650197983,0.09719472378492355,9.633743286132812,-0.17472387850284576,-3.0058820247650146
1413393888595760500,-0.0022981762886047363,0.027878040447831154,0.0629260241985321,9.429450035095215,-0.5292676687240601,-2.628406286239624
1413393888600760500,0.013347841799259186,0.026799025014042854,0.04885675013065338,9.635088920593262,-0.381183385848999,-3.1527628898620605
1413393888605760500,0.028033234179019928,0.012273425236344337,0.06739875674247742,9.658089637756348,-0.004171897657215595,-2.630993127822876
1413393888610760500,0.010290652513504028,0.026764465495944023,0.07798506319522858,9.608652114868164,-0.011390228755772114,-2.760366439819336
1413393888615760500,-0.0119481161236763,0.056148774921894073,0.07041207700967789,9.0628080368042,0.0882202610373497,-2.5734572410583496
1413393888620760500,-0.017951607704162598,0.014228491112589836,0.0863974317908287,9.162405967712402,0.03916342556476593,-3.1458687782287598
1413393888625760500,-0.007739923894405365,0.024614693596959114,0.11377198994159698,9.54584789276123,0.2676754593849182,-3.3454980850219727
1413393888630760500,-0.01856815069913864,0.026834646239876747,0.11543576419353485,9.306654930114746,-0.08995430916547775,-3.104555130004883
1413393888635760500,-0.020310942083597183,0.03904123604297638,0.08131782710552216,9.094766616821289,-0.3051449954509735,-2.9392406940460205
1413393888640760500,0.015682615339756012,0.000982619822025299,0.08100739121437073,8.981264114379883,-0.5530992150306702,-2.7487778663635254
1413393888645760500,0.03430163115262985,0.009347096085548401,0.08589950203895569,9.569055557250977,0.06097591668367386,-3.154841899871826
1413393888650760500,0.009522795677185059,0.03165312111377716,0.07570916414260864,9.282596588134766,0.24213024973869324,-2.9918465614318848
1413393888655760500,-0.01680920645594597,0.0629410371184349,0.05130965635180473,9.379617691040039,-0.01823866181075573,-3.244814872741699
1413393888660760500,0.0023407191038131714,0.004049092531204224,0.06899930536746979,8.392600059509277,-0.03515026345849037,-2.3836820125579834
1413393888665760500,0.012049339711666107,0.025953738018870354,0.09758570790290833,9.75770378112793,0.39873015880584717,-3.1544361114501953
1413393888670760500,-0.019083570688962936,0.07134828716516495,0.06863054633140564,9.372640609741211,-0.19660481810569763,-3.0786309242248535
1413393888675760500,-0.022606994956731796,0.023878561332821846,0.07990603893995285,8.596756935119629,-0.6223785877227783,-2.52085542678833
1413393888680760500,0.02366776019334793,0.017131434753537178,0.09590088576078415,9.48627758026123,-0.39269503951072693,-3.063535213470459
1413393888685760500,0.006515316665172577,0.016152994707226753,0.09696761518716812,9.226624488830566,0.5613740682601929,-3.1381633281707764
1413393888690760500,-0.03216736763715744,0.04094811528921127,0.05408608913421631,9.626152992248535,-0.21507994830608368,-3.204130172729492
1413393888695760500,-0.00992121547460556,-0.016598092392086983,0.05811502784490585,8.581222534179688,-0.5697354078292847,-2.4403789043426514
1413393888700760500,0.025038987398147583,0.025128142908215523,0.06432516127824783,9.845205307006836,-0.12670347094535828,-2.980587959289551
1413393888705760500,0.006770536303520203,0.017486298456788063,0.07505752891302109,9.518147468566895,0.5123893618583679,-3.4004557132720947
1413393888710760500,-0.027809880673885345,0.02772337757050991,0.05404284968972206,9.080368995666504,-0.3068607449531555,-2.5242903232574463
1413393888715760500,0.013306863605976105,-0.0007394328713417053,0.09000696241855621,9.741539001464844,-0.8380539417266846,-2.899390697479248
1413393888720760500,0.03345014899969101,0.012729624286293983,0.11372506618499756,9.404478073120117,0.6545730233192444,-3.4255542755126953
1413393888725760500,-0.009989134967327118,0.06358113884925842,0.08376464247703552,9.984414100646973,0.2593257427215576,-2.9841179847717285
1413393888730760500,-0.029255308210849762,0.03147108852863312,0.09028986096382141,9.178793907165527,-0.7061363458633423,-3.02117657661438
1413393888735760500,0.011784486472606659,0.045960478484630585,0.10272135585546494,8.843067169189453,0.08745286613702774,-2.4897384643554688
1413393888740760500,0.0028117969632148743,0.05843660980463028,0.1020292341709137,10.474715232849121,0.22636288404464722,-3.671616315841675
1413393888745760500,-0.023011330515146255,0.04954899102449417,0.05629681050777435,8.39146614074707,-0.4191846251487732,-2.38369083404541
1413393888750760500,0.003985077142715454,0.014793621376156807,0.06158335506916046,8.728677749633789,-0.33003926277160645,-2.6702382564544678
1413393888755760500,0.03557799011468887,0.042370982468128204,0.10819143801927567,10.452072143554688,0.36419716477394104,-3.647700786590576
1413393888760760500,-0.010197363793849945,0.08143314719200134,0.05959722772240639,8.415358543395996,-0.05891621485352516,-2.551877975463867
1413393888765760500,-0.014679379761219025,-0.008533379063010216,0.034377485513687134,8.907687187194824,-0.5246946811676025,-2.59747314453125
1413393888770760500,0.01499234139919281,0.013393392786383629,0.0971643254160881,9.80864143371582,0.5351784825325012,-3.638014793395996
1413393888775760500,-0.008403517305850983,0.07929607480764389,0.07012277841567993,8.487730979919434,-0.2795839011669159,-2.7812020778656006
1413393888780760500,-0.03839927166700363,0.018045494332909584,0.023514557629823685,8.718649864196777,-0.588160514831543,-2.5398945808410645
1413393888785760500,0.009526647627353668,0.012096045538783073,0.10498619824647903,9.883854866027832,0.40560266375541687,-3.4838008880615234
1413393888790760500,0.011030741035938263,0.07335764169692993,0.11011294275522232,8.936552047729492,-0.300076425075531,-2.7731423377990723
1413393888795760500,-0.005789592862129211,0.011213598772883415,0.063271164894104,8.80001163482666,-0.7870201468467712,-2.377228021621704
1413393888800760500,0.018289484083652496,-0.03325102850794792,0.09584178030490875,8.936149597167969,0.5308270454406738,-2.999908685684204
1413393888805760500,0.01185501366853714,0.011564165353775024,0.11514001339673996,9.813322067260742,0.5339016318321228,-3.2532570362091064
1413393888810760500,-0.02624914050102234,0.014229713007807732,0.06269190460443497,9.558719635009766,-0.8642607927322388,-2.7456843852996826
1413393888815760500,-0.016703184694051743,-0.02761956676840782,0.05030827969312668,8.695944786071777,-0.22008195519447327,-2.808553457260132
1413393888820760500,0.007799774408340454,0.012474974617362022,0.09144779294729233,10.329778671264648,0.4304993450641632,-3.4743950366973877
1413393888825760500,-0.010318346321582794,0.03693516552448273,0.09961967170238495,9.697982788085938,-0.3885636031627655,-2.6627635955810547
1413393888830760500,-0.011107198894023895,-0.008699065074324608,0.04902280867099762,8.498358726501465,-0.3797855079174042,-2.8665881156921387
1413393888835760500,0.030151911079883575,-0.0018399227410554886,0.11507462710142136,10.274277687072754,0.31501340866088867,-3.286637306213379
1413393888840760500,0.0027064308524131775,0.05944114923477173,0.10765083134174347,9.796666145324707,-0.12172051519155502,-3.350689172744751
1413393888845760500,-0.0118098184466362,0.023197701200842857,0.06212031468749046,7.974865913391113,-0.07841790467500687,-2.426729917526245
1413393888850760500,0.01666726917028427,0.011889832094311714,0.11083967983722687,9.851280212402344,0.40392011404037476,-3.3346383571624756
1413393888855760500,-0.0022885724902153015,0.06701506674289703,0.09060788154602051,9.75668716430664,0.04165421053767204,-3.210376739501953
1413393888860760500,-0.026713885366916656,0.038093507289886475,0.014560222625732422,7.718496322631836,-0.207256019115448,-2.327138662338257
1413393888865760500,-0.002040363848209381,-0.01707066036760807,0.08000175654888153,9.972375869750977,0.49339017271995544,-3.337423086166382
1413393888870760500,-0.008453987538814545,0.04442187398672104,0.08399100601673126,9.652129173278809,0.09767769277095795,-3.192950963973999
1413393888875760500,-0.024903297424316406,0.05071813613176346,0.031833358108997345,8.526820182800293,-0.4675765037536621,-2.3682286739349365
1413393888880760500,0.004338450729846954,-0.013479979708790779,0.08673325181007385,9.43170166015625,0.142238587141037,-3.130565881729126
1413393888885760500,0.023050986230373383,0.023508591577410698,0.11572793871164322,9.790722846984863,-0.2968103885650635,-3.1746721267700195
1413393888890760500,-0.001980900764465332,0.050041258335113525,0.06099602207541466,8.674324035644531,-0.6623552441596985,-2.2125587463378906
1413393888895760500,0.005764864385128021,0.005882272496819496,0.08781696110963821,10.264444351196289,0.37930330634117126,-3.5677528381347656
1413393888900760500,0.003735288977622986,0.03797939419746399,0.11699903756380081,9.71761703491211,0.11199475079774857,-3.185122013092041
1413393888905760500,-0.03779115527868271,0.06139768660068512,0.04413912445306778,9.459614753723145,-0.7844918966293335,-3.0876753330230713
1413393888910760500,-0.02995670586824417,0.030730707570910454,0.03775675967335701,9.397245407104492,0.03777430206537247,-3.1072072982788086
1413393888915760500,0.005910150706768036,0.014095952734351158,0.10405810922384262,9.06464958190918,-0.08423462510108948,-2.902937412261963
1413393888920760500,-0.007147572934627533,0.048155516386032104,0.0565011128783226,9.908626556396484,-1.2993600368499756,-3.0299510955810547
1413393888925760500,-1.852959394454956e-05,0.029993290081620216,0.036694981157779694,8.947344779968262,0.14346115291118622,-3.3194355964660645
1413393888930760500,0.037411369383335114,0.017353462055325508,0.13593588769435883,8.70620346069336,0.509131669998169,-2.6957666873931885
1413393888935760500,0.009620554745197296,0.02780109830200672,0.0959782525897026,10.066934585571289,-0.8661661148071289,-2.784635543823242
1413393888940760500,-0.009175501763820648,0.03716561198234558,0.06172756105661392,9.437291145324707,0.28411099314689636,-2.9594547748565674
1413393888945760500,0.03549067676067352,0.009096948429942131,0.15269166231155396,9.471333503723145,0.06337769329547882,-2.866565704345703
1413393888950760500,-0.0146804079413414,0.02320295013487339,0.08168332278728485,9.56137466430664,-0.334902286529541,-3.1863722801208496
1413393888955760500,-0.028799541294574738,0.048956677317619324,0.06563790142536163,8.99710464477539,0.8362988829612732,-2.847074270248413
1413393888960760500,0.003433234989643097,0.0037827268242836,0.15540343523025513,10.051366806030273,-0.22273534536361694,-3.2691256999969482
1413393888965760500,-0.03089703619480133,0.06869753450155258,0.06732161343097687,9.813916206359863,-0.7943635582923889,-3.3572139739990234
1413393888970760500,-0.01711174100637436,0.08697551488876343,0.067778579890728,8.653324127197266,0.3221893310546875,-2.5985794067382812
1413393888975760500,0.03695816546678543,0.04667568951845169,0.1324823498725891,9.552645683288574,-0.688351571559906,-2.5872561931610107
1413393888980760500,0.01321258395910263,0.05698877573013306,0.051673199981451035,9.200823783874512,-0.8025931715965271,-2.9281535148620605
1413393888985760500,0.021139755845069885,0.04971382021903992,0.0570032000541687,8.949298858642578,0.5087897181510925,-2.6330103874206543
1413393888990760500,0.03908679634332657,0.025323079898953438,0.10194796323776245,10.026616096496582,0.006249047815799713,-3.270768165588379
1413393888995760500,-0.0062185004353523254,0.08230282366275787,0.02417369931936264,8.913921356201172,0.5490837693214417,-3.1294314861297607
1413393889000760500,-0.017805878072977066,0.0387406125664711,0.09896054118871689,8.42792797088623,0.6961649656295776,-2.492347478866577
1413393889005760500,-0.032735832035541534,0.03630409389734268,0.07168034464120865,9.979971885681152,0.021987434476614,-3.58880352973938
1413393889010760500,-0.05504462867975235,0.07613705098628998,0.04244432970881462,7.9823994636535645,0.12355291843414307,-2.693589210510254
1413393889015760500,-0.019397787749767303,-0.012474657967686653,0.10025148838758469,8.744390487670898,-0.394133597612381,-2.450101613998413
1413393889020760500,-0.01533641666173935,0.025201881304383278,0.07539331912994385,9.513057708740234,-0.7044367790222168,-3.34081768989563
1413393889025760500,9.527057409286499e-05,0.009512973949313164,0.07784402370452881,8.204065322875977,-0.2290337234735489,-2.3815903663635254
1413393889030760500,0.033774085342884064,-0.03815266117453575,0.10372363030910492,10.125350952148438,-0.7052887082099915,-2.9752941131591797
1413393889035760500,0.027699626982212067,0.052003420889377594,0.04809089004993439,9.698029518127441,-0.44928592443466187,-2.913708209991455
1413393889040760500,0.037854813039302826,-0.010588349774479866,0.0742538794875145,8.972143173217773,0.3267539143562317,-2.2611541748046875
1413393889045760500,0.009488217532634735,-0.010481647215783596,0.060365498065948486,11.031606674194336,0.17326681315898895,-3.7885563373565674
1413393889050760500,-0.0303318090736866,0.11675150692462921,0.022113211452960968,8.613450050354004,0.2415778934955597,-2.7268238067626953
1413393889055760500,-0.025802001357078552,0.010569840669631958,0.06968867033720016,9.445767402648926,-0.08350322395563126,-2.8025259971618652
1413393889060760500,-0.03260631114244461,0.08347425609827042,0.06373713165521622,10.149173736572266,-0.0554315410554409,-3.319359302520752
1413393889065760500,-0.022788777947425842,0.04249057173728943,0.10144835710525513,8.074573516845703,0.01063451636582613,-1.9492961168289185
1413393889070760500,-0.0059263333678245544,-0.03202645480632782,0.11670054495334625,9.864927291870117,-0.7253125905990601,-3.0403435230255127
1413393889075760500,0.01015414297580719,0.05215360224246979,0.10461368411779404,9.162789344787598,-0.5263126492500305,-3.2252230644226074
1413393889080760500,0.03781771659851074,-0.004347838461399078,0.12926340103149414,8.759992599487305,-0.17072507739067078,-2.8489022254943848
1413393889085760500,0.03119175136089325,-0.006639027968049049,0.1064148098230362,10.337449073791504,-0.027396144345402718,-3.10752010345459
1413393889090760500,0.029188916087150574,0.0467427521944046,0.09879507124423981,8.737173080444336,0.07222200930118561,-2.7655410766601562
1413393889095760500,0.02393317222595215,-0.01124131865799427,0.09710027277469635,9.950653076171875,0.0992971807718277,-3.113640785217285
1413393889100760500,-0.007413811981678009,0.015982812270522118,0.06315416842699051,10.042961120605469,0.4420373737812042,-3.181438446044922
1413393889105760500,-0.020616456866264343,0.024504775181412697,0.06866280734539032,9.812594413757324,0.5737191438674927,-2.920079231262207
1413393889110760500,-0.04384814202785492,0.03541766107082367,0.05210829898715019,10.309810638427734,-0.022134196013212204,-2.8950884342193604
1413393889115760500,-0.01508023589849472,0.08213601261377335,0.0999940037727356,9.242901802062988,-0.19590620696544647,-3.506244659423828
1413393889120760500,-0.0011581704020500183,0.10788141191005707,0.11316758394241333,9.371335983276367,-0.7371572256088257,-2.808579921722412
1413393889125760500,0.008703388273715973,0.09621508419513702,0.10704971104860306,8.541409492492676,-0.5192410349845886,-2.8546926975250244
1413393889130760500,0.041718170046806335,0.08635321259498596,0.1219288632273674,8.50136661529541,0.28386083245277405,-3.0387425422668457
1413393889135760500,0.019093647599220276,0.011058568954467773,0.10394088178873062,9.381628036499023,0.09038064628839493,-2.3353214263916016
1413393889140760500,-8.562952280044556e-05,0.012754114344716072,0.0929667204618454,8.445117950439453,0.3558986186981201,-3.532829523086548
1413393889145760500,-0.0239512100815773,-0.004918742924928665,0.0727870762348175,8.75271224975586,-0.025846458971500397,-2.4762065410614014
1413393889150760500,-0.032605238258838654,-0.03546774387359619,0.04277728497982025,9.219329833984375,-0.10829658061265945,-3.3557181358337402
1413393889155760500,0.003053911030292511,-0.024746382609009743,0.07286292314529419,9.453344345092773,-0.3253721594810486,-3.119746208190918
1413393889160760500,-0.008831799030303955,-0.019377881661057472,0.035218335688114166,10.064390182495117,-0.03454715386033058,-2.8590452671051025
1413393889165760500,0.017949320375919342,0.040736906230449677,0.07782476395368576,9.52847957611084,0.9372617602348328,-3.206728935241699
1413393889170760500,-0.0011812672019004822,0.06381898373365402,0.06365996599197388,9.493613243103027,-0.026395099237561226,-2.4678573608398438
1413393889175760500,-0.0023773983120918274,0.045245684683322906,0.09748508781194687,8.532421112060547,0.790698230266571,-3.042846918106079
1413393889180760500,-0.0029296651482582092,0.10328914225101471,0.10785998404026031,10.565152168273926,-0.511227011680603,-3.615100860595703
1413393889185760500,-0.01610499620437622,0.052907995879650116,0.07644462585449219,8.184386253356934,-0.5718003511428833,-1.44078528881073
1413393889190760500,0.034661777317523956,-0.004185431636869907,0.1258186250925064,9.561463356018066,-0.5822398066520691,-3.887822151184082
1413393889195760500,0.0191197469830513,0.049928635358810425,0.057538583874702454,9.468770980834961,-0.9682294130325317,-2.3263604640960693
1413393889200760500,0.01986882835626602,-0.08743379265069962,0.09248434007167816,7.758969306945801,0.6529988050460815,-2.974249839782715
1413393889205760500,-0.008197151124477386,0.018647389486432076,0.052864644676446915,11.22638988494873,-0.4201227128505707,-2.9726831912994385
1413393889210760500,-0.040251120924949646,-0.011974422261118889,0.04709182679653168,8.13105297088623,0.7183746099472046,-2.2025058269500732
1413393889215760500,-0.005987346172332764,0.03660514950752258,0.08769773691892624,12.233752250671387,-0.8955760598182678,-4.134605884552002
1413393889220760500,-0.02101888880133629,0.05379760265350342,0.04982294514775276,8.863969802856445,-0.10181672871112823,-1.6224961280822754
1413393889225760500,0.028262630105018616,0.025436511263251305,0.10620353370904922,10.808269500732422,-0.09257316589355469,-4.882126808166504
1413393889230760500,0.0011111199855804443,0.15993542969226837,0.0195402130484581,9.441394805908203,-0.4883165955543518,-2.3045525550842285
1413393889235760500,0.017036274075508118,0.0194134209305048,0.11002205312252045,8.297971725463867,0.8381644487380981,-3.458249807357788
1413393889240760500,-0.00584874302148819,0.15245811641216278,0.04672437161207199,9.647989273071289,-1.0831553936004639,-2.9109878540039062
1413393889245760500,0.0015190541744232178,-0.008992226794362068,0.09904946386814117,6.399792194366455,0.8465006351470947,-1.6367605924606323
1413393889250760500,0.011690735816955566,0.034917235374450684,0.09998194128274918,10.565377235412598,-0.8056235909461975,-3.362889289855957
1413393889255760500,0.007760487496852875,-0.029491795226931572,0.10279899835586548,7.186436653137207,0.5509474277496338,-1.2958375215530396
1413393889260760500,0.03647930175065994,-0.0802348181605339,0.14493587613105774,10.170681953430176,-0.8006211519241333,-4.520455837249756
1413393889265760500,0.00659208744764328,0.024839455261826515,0.07376648485660553,7.755505561828613,0.5706117153167725,-1.4636423587799072
1413393889270760500,0.02174704521894455,-0.05258990079164505,0.11578483134508133,10.56607723236084,0.09831935167312622,-4.59334659576416
1413393889275760500,-0.04883164167404175,0.06607584655284882,-0.0014409571886062622,9.035765647888184,0.012418289668858051,-2.075191020965576
1413393889280760500,-0.0081382617354393,-0.020965533331036568,0.111729696393013,9.275718688964844,0.4730345606803894,-3.456496238708496
1413393889285760500,-0.02382209151983261,0.08402407169342041,0.02086198329925537,9.557572364807129,-1.0940247774124146,-2.577355146408081
1413393889290760500,0.025174997746944427,-0.024558139964938164,0.09891377389431,7.6575398445129395,0.11871745437383652,-2.3552165031433105
1413393889295760500,0.04173022508621216,0.025410162284970284,0.03724966570734978,9.700072288513184,-0.8361055850982666,-2.856613874435425
1413393889300760500,0.04760561138391495,-0.053535349667072296,0.08316051959991455,8.609955787658691,0.7870186567306519,-2.597844362258911
1413393889305760500,0.014193587005138397,-0.03056969679892063,0.04305245354771614,9.666662216186523,0.2750614285469055,-3.3779666423797607
1413393889310760500,-0.00796452909708023,-0.05196747928857803,0.10131493210792542,8.340469360351562,0.5835170745849609,-2.3355889320373535
1413393889315760500,-0.028216011822223663,-0.057757869362831116,0.085838183760643,9.955123901367188,-0.47037607431411743,-3.259470224380493
1413393889320760500,-0.03385103493928909,-0.040205828845500946,0.07845406234264374,10.328194618225098,-0.44241863489151,-3.561675548553467
1413393889325760500,-0.009379416704177856,-0.035511769354343414,0.08594571799039841,8.497763633728027,0.036479588598012924,-2.5811572074890137
1413393889330760500,0.004370659589767456,-0.015236940234899521,0.07259976863861084,9.862630844116211,-0.8826294541358948,-3.8250768184661865
1413393889335760500,0.002394363284111023,-0.011111011728644371,0.07246121764183044,7.978884696960449,0.7832678556442261,-1.9706263542175293
1413393889340760500,0.005971468985080719,-0.09571971744298935,0.11495433747768402,10.100115776062012,-0.058615319430828094,-4.056195259094238
1413393889345760500,-0.015450187027454376,0.0014709942042827606,0.09395359456539154,9.23694133758545,0.43837979435920715,-2.798668622970581
1413393889350760500,-0.008756883442401886,-0.06362646073102951,0.11888694763183594,9.137060165405273,-0.5176340937614441,-3.5435304641723633
1413393889355760500,-0.014756716787815094,-0.046930667012929916,0.0846778005361557,9.830718994140625,-0.07632863521575928,-2.657688856124878
1413393889360760500,0.0072337910532951355,-0.04627860337495804,0.09376809000968933,10.189901351928711,-0.19116124510765076,-3.6829023361206055
1413393889365760500,-0.015552841126918793,0.01023942045867443,0.04177571088075638,9.682421684265137,-0.48965826630592346,-2.022495746612549
1413393889370760500,0.01570829749107361,-0.040476664900779724,0.09948312491178513,8.367927551269531,0.15880818665027618,-3.462935447692871
1413393889375760500,-0.012202702462673187,-0.025254229083657265,0.0726948156952858,8.344069480895996,-0.2540462613105774,-2.4496660232543945
1413393889380760500,0.0029830262064933777,-0.06770060956478119,0.1474795639514923,9.530834197998047,0.8316933512687683,-3.9322431087493896
1413393889385760500,-0.02796497941017151,-0.02054821513593197,0.11933112144470215,9.63675594329834,-0.6567306518554688,-3.1644694805145264
1413393889390760500,0.001682095229625702,-0.034942008554935455,0.15070368349552155,10.028355598449707,0.2231910079717636,-3.268928050994873
1413393889395760500,-0.0016855821013450623,0.005650723353028297,0.09661287069320679,8.73464298248291,-1.2750931978225708,-2.977097988128662
1413393889400760500,0.019326716661453247,-0.06666548550128937,0.09022462368011475,8.990412712097168,0.36639484763145447,-3.513888120651245
1413393889405760500,0.008181631565093994,-0.03454858437180519,0.05348043143749237,9.153229713439941,-0.2649771571159363,-2.6791200637817383
1413393889410760500,0.00444938987493515,-0.08898112922906876,0.0927916169166565,9.969079971313477,0.30953097343444824,-3.615062952041626
1413393889415760500,-0.016990352421998978,0.017192596569657326,0.09625629335641861,9.338180541992188,0.07089421898126602,-3.000603675842285
1413393889420760500,-0.011531032621860504,-0.027586136013269424,0.1433100402355194,8.981512069702148,-0.050645217299461365,-2.931168794631958
1413393889425760500,-0.0030500367283821106,0.029734866693615913,0.14703433215618134,9.204924583435059,-0.3691927492618561,-2.883150339126587
1413393889430760500,0.014941878616809845,0.010166201740503311,0.14214901626110077,9.862689018249512,-0.386437326669693,-3.674755096435547
1413393889435760500,-0.01481436938047409,0.04120875149965286,0.056134507060050964,8.597114562988281,0.22746169567108154,-3.3185296058654785
1413393889440760500,-0.044988855719566345,-0.03166940063238144,0.02640976384282112,8.532382011413574,-0.010421821847558022,-2.999136447906494
1413393889445760500,-0.057506412267684937,-0.02156970463693142,0.019853413105010986,8.812621116638184,0.4893621802330017,-2.698308229446411
1413393889450760500,-0.05598096549510956,-0.07021506130695343,0.02775936760008335,8.34357738494873,-1.2106976509094238,-2.2492547035217285
1413393889455760500,-0.05032794177532196,-0.1272944062948227,0.05104120820760727,8.85876178741455,0.25502291321754456,-2.829953670501709
1413393889460760500,-0.008261717855930328,-0.15666629374027252,0.09186704456806183,8.748252868652344,-0.7668970227241516,-1.5358647108078003
1413393889465760500,-0.020041242241859436,-0.1552843302488327,0.0893983542919159,10.536992073059082,-0.10722894221544266,-4.480428695678711
1413393889470760500,0.007163412868976593,-0.09876476228237152,0.12505894899368286,9.325798988342285,0.09652221947908401,-2.477200508117676
1413393889475760500,-0.029616311192512512,-0.12080259621143341,0.11638639867305756,9.757270812988281,0.3328309953212738,-4.593340873718262
1413393889480760500,-0.006471522152423859,-0.019174793735146523,0.15545734763145447,9.168709754943848,0.36526691913604736,-2.502095937728882
1413393889485760500,-0.0393480584025383,-0.07934751361608505,0.13327690958976746,10.343181610107422,-0.518330454826355,-4.433537483215332
1413393889490760500,0.0036487802863121033,0.036613814532756805,0.11008767783641815,10.352250099182129,-0.41318899393081665,-2.6926803588867188
1413393889495760500,0.01656273752450943,-0.06095978617668152,0.11244846880435944,8.288912773132324,-0.6978979110717773,-3.9190030097961426
1413393889500760500,0.0273740217089653,0.00730440579354763,0.0921788215637207,9.634782791137695,0.22101368010044098,-2.638434886932373
1413393889505760500,0.0028485432267189026,-0.12807834148406982,0.10436171293258667,7.629483699798584,0.5569703578948975,-3.0377469062805176
1413393889510760500,-0.017315082252025604,-0.09927263110876083,0.12820270657539368,11.253341674804688,0.7995249629020691,-3.6398324966430664
1413393889515760500,-0.054712966084480286,-0.18188489973545074,0.08791958540678024,7.069997310638428,0.03637780621647835,-1.9712048768997192
1413393889520760500,-0.023991398513317108,-0.22837242484092712,0.13693057000637054,10.660724639892578,-0.6672595739364624,-3.80268931388855
1413393889525760500,-0.02308465540409088,-0.2525600492954254,0.042717818170785904,6.894626617431641,-0.6191445589065552,-2.0172770023345947
1413393889530760500,0.010835111141204834,-0.3509588837623596,0.08390048146247864,10.444299697875977,-0.3041984736919403,-4.219898223876953
1413393889535760500,-0.013426534831523895,-0.2779668867588043,0.01727386564016342,8.243416786193848,0.9120349884033203,-2.008216142654419
1413393889540760500,-0.02888895571231842,-0.3367072641849518,0.0628102719783783,11.901771545410156,0.6479600071907043,-4.876693248748779
1413393889545760500,-0.0868147686123848,-0.19365194439888,-0.01389266550540924,8.42044734954834,0.40614286065101624,-1.2672162055969238
1413393889550760500,-0.06690820306539536,-0.2843351662158966,0.1214703693985939,12.101271629333496,-0.37077948451042175,-3.7274320125579834
1413393889555760500,-0.04309132695198059,-0.08109570294618607,0.057136014103889465,9.632535934448242,-1.0672752857208252,-2.3312783241271973
1413393889560760500,0.007125101983547211,-0.20119279623031616,0.1694413721561432,10.761709213256836,-0.22660116851329803,-3.8150181770324707
1413393889565760500,0.007572963833808899,-0.08330395072698593,0.08202141523361206,8.751031875610352,-0.0013572156894952059,-3.0697243213653564
1413393889570760500,-0.011675089597702026,-0.20390258729457855,0.14695017039775848,9.99687385559082,0.7969047427177429,-3.849027395248413
1413393889575760500,-0.06658351421356201,-0.171477273106575,0.05738348141312599,8.112695693969727,0.6555773019790649,-3.6980998516082764
1413393889580760500,-0.09208819270133972,-0.2805284559726715,0.09620925784111023,10.289788246154785,0.37258708477020264,-4.421485424041748
1413393889585760500,-0.09673326462507248,-0.2098342627286911,0.021881263703107834,7.212326526641846,-0.3283615708351135,-3.0572948455810547
1413393889590760500,-0.05548127740621567,-0.34932616353034973,0.04743235558271408,10.024742126464844,-0.8832167983055115,-4.214733123779297
1413393889595760500,-0.038659773766994476,-0.2925926744937897,0.005159106105566025,9.431230545043945,0.05704693868756294,-3.240232229232788
1413393889600760500,-0.034870728850364685,-0.32803940773010254,0.005902621895074844,10.59433650970459,0.47006452083587646,-4.931021690368652
1413393889605760500,-0.067804716527462,-0.2243674099445343,-0.02017442137002945,9.897101402282715,1.3406919240951538,-2.695128917694092
1413393889610760500,-0.11800079047679901,-0.2981545031070709,0.014373991638422012,10.693596839904785,0.3715701401233673,-4.568017482757568
1413393889615760500,-0.11097390949726105,-0.16128946840763092,0.039310432970523834,9.705859184265137,0.02261975035071373,-2.5856170654296875
1413393889620760500,-0.09183607250452042,-0.2513682246208191,0.04822448641061783,9.937776565551758,-1.220240831375122,-3.96494197845459
1413393889625760500,-0.027355961501598358,-0.2106081247329712,0.06465960294008255,9.44799518585205,-0.3864424228668213,-2.87028431892395
1413393889630760500,-0.01627597212791443,-0.2461695522069931,0.0527176633477211,10.578792572021484,-0.47177058458328247,-4.287165641784668
1413393889635760500,-0.020555682480335236,-0.22523115575313568,0.04109244421124458,8.515950202941895,0.9911866188049316,-2.386302947998047
1413393889640760500,-0.08884742856025696,-0.30533885955810547,0.0012113377451896667,11.44469928741455,0.7323806285858154,-4.376265048980713
1413393889645760500,-0.10471741110086441,-0.25581201910972595,0.02492332085967064,8.441402435302734,1.1872878074645996,-2.117055654525757
1413393889650760500,-0.16595184803009033,-0.2458423227071762,-0.07524450123310089,12.468603134155273,-0.5672426223754883,-4.514272689819336
1413393889655760500,-0.1330653727054596,-0.3015497922897339,-0.081107497215271,8.95408821105957,-0.3707330822944641,-3.3263609409332275
1413393889660760500,-0.12684133648872375,-0.17645852267742157,-0.1635357141494751,11.84255599975586,-0.8382264375686646,-3.5569307804107666
1413393889665760500,-0.07327130436897278,-0.20660699903964996,-0.11141161620616913,10.589385032653809,-0.3840164244174957,-3.5964574813842773
1413393889670760500,-0.09409085661172867,-0.1291230469942093,-0.15735408663749695,9.742430686950684,0.5519474148750305,-4.661689758300781
1413393889675760500,-0.0828600600361824,-0.15932263433933258,-0.07978120446205139,10.400650978088379,0.6096676588058472,-2.754229784011841
1413393889680760500,-0.12011987715959549,-0.10693368315696716,-0.06877191364765167,11.268427848815918,0.8220584988594055,-5.4994988441467285
1413393889685760500,-0.14280131459236145,-0.1117284893989563,-0.0839645266532898,9.786993980407715,0.07079076021909714,-2.7321152687072754
1413393889690760500,-0.13429823517799377,-0.11096285283565521,-0.07145774364471436,10.894107818603516,-0.3278980255126953,-3.8132894039154053
1413393889695760500,-0.12216655910015106,-0.14334692060947418,-0.08169227838516235,10.136320114135742,-0.35360437631607056,-4.885519027709961
1413393889700760500,-0.07854663580656052,-0.07626848667860031,-0.011005684733390808,8.460824966430664,-0.36859777569770813,-2.2980122566223145
1413393889705760500,-0.061701901257038116,-0.1848166435956955,0.010767735540866852,11.221627235412598,-0.571892499923706,-4.153083801269531
1413393889710760500,-0.009965337812900543,-0.1758711189031601,0.0810156911611557,8.10834789276123,0.34234458208084106,-2.891509532928467
1413393889715760500,-0.03525565564632416,-0.2652209401130676,0.05322588235139847,10.971780776977539,0.06676963716745377,-4.334750175476074
1413393889720760500,-0.046152547001838684,-0.25153040885925293,0.03274139016866684,10.578512191772461,1.0320396423339844,-2.9294886589050293
1413393889725760500,-0.11939133703708649,-0.28970593214035034,-0.054155848920345306,12.920246124267578,0.34390294551849365,-5.857335090637207
1413393889730760500,-0.15778395533561707,-0.24425750970840454,-0.1403907984495163,8.550561904907227,0.8889782428741455,-3.5080671310424805
1413393889735760500,-0.18008336424827576,-0.2271406203508377,-0.20013263821601868,10.684027671813965,-0.6280717253684998,-3.7960150241851807
1413393889740760500,-0.15069591999053955,-0.21262790262699127,-0.2116038203239441,13.108112335205078,-0.216291606426239,-3.6749374866485596
1413393889745760500,-0.12217584252357483,-0.08260130137205124,-0.22351333498954773,11.963287353515625,-0.9616886973381042,-3.135737657546997
1413393889750760500,-0.1109086275100708,-0.1276877373456955,-0.18098454177379608,11.840569496154785,0.3706408739089966,-4.981191635131836
1413393889755760500,-0.11133065819740295,-0.09651190787553787,-0.10403195023536682,9.296448707580566,1.0578261613845825,-3.907116174697876
1413393889760760500,-0.13744449615478516,-0.043657347559928894,-0.10228511691093445,10.661778450012207,0.09978170692920685,-2.7144365310668945
1413393889765760500,-0.11993536353111267,-0.11509284377098083,0.011227674782276154,11.713202476501465,0.20143049955368042,-4.821991443634033
1413393889770760500,-0.11042770743370056,-0.10256698727607727,-0.0071791112422943115,9.347248077392578,-0.7139396071434021,-4.304874420166016
1413393889775760500,-0.05395928770303726,-0.09497003257274628,0.022764213383197784,10.62949275970459,-0.7081047892570496,-2.7284319400787354
1413393889780760500,-0.04426724463701248,-0.12610021233558655,-0.049626901745796204,10.875243186950684,-0.4625103175640106,-3.1539196968078613
1413393889785760500,-0.022535018622875214,-0.10168776661157608,-0.05697938799858093,12.98412799835205,0.4377514123916626,-4.509444236755371
1413393889790760500,-0.06824223697185516,-0.06812476366758347,-0.1120629757642746,9.710731506347656,0.5879964828491211,-3.2655882835388184
1413393889795760500,-0.09927161037921906,-0.10755494982004166,-0.0979977399110794,12.1929931640625,0.5013639330863953,-4.4162821769714355
1413393889800760500,-0.1414531171321869,-0.09986869990825653,-0.11228224635124207,9.824772834777832,0.9331271648406982,-3.962205648422241
1413393889805760500,-0.1506294310092926,-0.07165198773145676,-0.12391677498817444,9.650772094726562,-0.464825838804245,-3.4822006225585938
1413393889810760500,-0.137113556265831,-0.19673974812030792,-0.10061575472354889,9.76095962524414,-0.22203688323497772,-3.532513380050659
1413393889815760500,-0.11633671820163727,-0.1715339869260788,-0.19123384356498718,11.068456649780273,-0.9472948908805847,-3.645937204360962
1413393889820760500,-0.05903838947415352,-0.16515092551708221,-0.139705628156662,12.189643859863281,0.019811931997537613,-4.52388858795166
1413393889825760500,-0.09050717204809189,-0.17072416841983795,-0.20183974504470825,9.85446834564209,0.3644280433654785,-4.112026691436768
1413393889830760500,-0.09369111806154251,-0.09078355133533478,-0.1647551953792572,12.324213027954102,0.898185670375824,-3.514273166656494
1413393889835760500,-0.14579778909683228,-0.04558028280735016,-0.17269429564476013,11.475473403930664,0.6294000148773193,-3.621953010559082
1413393889840760500,-0.15580138564109802,-0.029399324208498,-0.15513484179973602,12.542196273803711,-0.22335995733737946,-4.987783432006836
1413393889845760500,-0.1495031714439392,-0.02292780950665474,-0.13927102088928223,8.241364479064941,-0.13224609196186066,-3.2510488033294678
1413393889850760500,-0.08467190712690353,0.04779133200645447,-0.1378086805343628,12.075676918029785,-1.4087121486663818,-2.8181331157684326
1413393889855760500,-0.03392552211880684,-0.09651600569486618,-0.10389865934848785,12.761468887329102,-0.3901747763156891,-4.7571611404418945
1413393889860760500,-0.02976575493812561,0.008697276934981346,-0.177186518907547,8.947247505187988,0.5229784846305847,-4.279782772064209
1413393889865760500,-0.06935755908489227,-0.025567268952727318,-0.14313438534736633,10.82133674621582,1.5827243328094482,-4.046777248382568
1413393889870760500,-0.16789370775222778,-0.009262638166546822,-0.20995071530342102,10.720311164855957,1.0863569974899292,-2.969600200653076
1413393889875760500,-0.20466622710227966,-0.02370656467974186,-0.2043529748916626,12.720799446105957,0.41830623149871826,-4.561902046203613
1413393889880760500,-0.2021162211894989,0.009791802614927292,-0.22987234592437744,9.125925064086914,-0.7323544025421143,-4.159611225128174
1413393889885760500,-0.12857303023338318,-0.004001084715127945,-0.2174631953239441,10.862600326538086,-1.5993809700012207,-3.8799283504486084
1413393889890760500,-0.07302182167768478,0.019331013783812523,-0.21931123733520508,11.027416229248047,-0.594022810459137,-2.678316116333008
1413393889895760500,-0.05522775650024414,0.06015199422836304,-0.2238800823688507,12.710957527160645,0.024700989946722984,-3.817270517349243
1413393889900760500,-0.1018465906381607,0.06144040822982788,-0.20788615942001343,10.458715438842773,1.7915109395980835,-4.4571452140808105
1413393889905760500,-0.16538017988204956,0.16248644888401031,-0.21235856413841248,10.964408874511719,1.045409083366394,-3.405149221420288
1413393889910760500,-0.18889376521110535,0.15690745413303375,-0.16451473534107208,11.806735038757324,-0.11725889146327972,-4.164515495300293
1413393889915760500,-0.18062931299209595,0.20875388383865356,-0.19899854063987732,9.359721183776855,-1.1391912698745728,-2.8615474700927734
1413393889920760500,-0.06863710284233093,0.17752249538898468,-0.16850271821022034,11.447256088256836,-1.8246413469314575,-3.017235040664673
1413393889925760500,-0.038034625351428986,0.11056989431381226,-0.189068004488945,10.215773582458496,-0.3465408980846405,-3.735100746154785
1413393889930760500,-0.029957208782434464,0.16493286192417145,-0.18239441514015198,10.331171989440918,0.7213340401649475,-4.398685932159424
1413393889935760500,-0.10280725359916687,0.10685628652572632,-0.1882343888282776,10.341909408569336,1.8098115921020508,-3.3105244636535645
1413393889940760500,-0.1642267107963562,0.22426490485668182,-0.1728617399930954,12.157942771911621,0.9209234714508057,-3.522606372833252
1413393889945760500,-0.20075711607933044,0.18966545164585114,-0.19986960291862488,11.455551147460938,0.2098432332277298,-4.214012622833252
1413393889950760500,-0.16324831545352936,0.2695343494415283,-0.22211888432502747,9.12563705444336,-1.6691007614135742,-2.8501651287078857
1413393889955760500,-0.09966826438903809,0.23423032462596893,-0.22745344042778015,11.542854309082031,-1.0437437295913696,-3.4846408367156982
1413393889960760500,-0.05005855858325958,0.2590102553367615,-0.23011064529418945,11.131163597106934,-0.5807298421859741,-3.9826231002807617
1413393889965760500,-0.07169947773218155,0.24534250795841217,-0.2245781123638153,8.997208595275879,1.308452844619751,-3.843871593475342
1413393889970760500,-0.12534502148628235,0.20564988255500793,-0.22373411059379578,8.911965370178223,1.5517081022262573,-2.6662654876708984
1413393889975760500,-0.1723492592573166,0.26763612031936646,-0.17731329798698425,11.74802303314209,0.18052852153778076,-3.7784831523895264
1413393889980760500,-0.20148521661758423,0.14291991293430328,-0.19724968075752258,9.793628692626953,-0.10803868621587753,-4.233170032501221
1413393889985760500,-0.1338421106338501,0.28381234407424927,-0.152357280254364,9.838950157165527,-1.585302710533142,-2.6993823051452637
1413393889990760500,-0.08551593124866486,0.17623023688793182,-0.1457463800907135,11.874849319458008,-1.0352460145950317,-4.3012614250183105
1413393889995760500,-0.013166584074497223,0.33217599987983704,-0.1022624671459198,9.252286911010742,-0.5943998098373413,-2.8466391563415527
1413393890000760500,-0.0326559953391552,0.23913557827472687,-0.09379372000694275,12.23036003112793,0.6824957132339478,-3.870544195175171
1413393890005760500,-0.04366964101791382,0.33538633584976196,-0.08319340646266937,9.11421012878418,0.7197953462600708,-2.942188024520874
1413393890010760500,-0.09938366711139679,0.2874724566936493,-0.06986993551254272,10.315557479858398,1.061172366142273,-4.585181713104248
1413393890015760500,-0.10908591747283936,0.2847651541233063,-0.04582560062408447,8.790373802185059,-0.30698031187057495,-2.9666309356689453
1413393890020760500,-0.09562989324331284,0.29007279872894287,0.0033145323395729065,10.013059616088867,-0.558666467666626,-3.743030548095703
1413393890025760500,-0.04874229431152344,0.17988331615924835,0.06744885444641113,8.70328140258789,-0.396949827671051,-2.074012041091919
1413393890030760500,0.01221468299627304,0.316461980342865,0.09267135709524155,10.251398086547852,-0.6551930904388428,-3.6771907806396484
1413393890035760500,0.03247483819723129,0.16681574285030365,0.13191889226436615,9.926846504211426,0.38434794545173645,-3.4057748317718506
1413393890040760500,0.026969678699970245,0.32271111011505127,0.12787532806396484,9.823075294494629,0.09455998986959457,-3.175187826156616
1413393890045760500,-0.00038314610719680786,0.15911290049552917,0.17160631716251373,9.479059219360352,1.2315422296524048,-3.621885061264038
1413393890050760500,-0.016396552324295044,0.27678364515304565,0.17867502570152283,9.717066764831543,-0.1035076305270195,-2.470588445663452
1413393890055760500,-0.036509402096271515,0.14508436620235443,0.18363060057163239,9.623980522155762,0.07124236226081848,-4.171879768371582
1413393890060760500,-0.0019275322556495667,0.24821339547634125,0.17786270380020142,9.130048751831055,-0.7125949859619141,-2.627476692199707
1413393890065760500,0.029429078102111816,0.14790646731853485,0.19877630472183228,10.476791381835938,-0.844086229801178,-3.483283281326294
1413393890070760500,0.0630410835146904,0.22571256756782532,0.18187250196933746,8.79323673248291,-0.065808966755867,-3.374831438064575
1413393890075760500,0.08079179376363754,0.17904165387153625,0.25024110078811646,10.161520957946777,0.3718342185020447,-3.5339303016662598
1413393890080760500,0.06348177045583725,0.20014820992946625,0.2856738865375519,8.944038391113281,0.5848217606544495,-3.3461039066314697
1413393890085760500,0.03133397549390793,0.2422751635313034,0.3223663866519928,9.072833061218262,0.2187209129333496,-3.341217517852783
1413393890090760500,0.03101961314678192,0.17212043702602386,0.32990512251853943,9.011116027832031,0.010866413824260235,-2.633842945098877
1413393890095760500,0.045572713017463684,0.23767800629138947,0.30774956941604614,9.909321784973145,-0.7787808179855347,-3.355177402496338
1413393890100760500,0.06637860089540482,0.18819035589694977,0.2830660939216614,8.735346794128418,-0.2526538670063019,-2.7610883712768555
1413393890105760500,0.06727416068315506,0.2491329461336136,0.2571585774421692,9.287029266357422,-0.07053089141845703,-2.765500783920288
1413393890110760500,0.058307550847530365,0.19226916134357452,0.25696268677711487,8.028120040893555,0.365431547164917,-3.385615825653076
1413393890115760500,0.03931674361228943,0.2727671265602112,0.25769421458244324,8.967731475830078,0.48181286454200745,-2.881641387939453
1413393890120760500,0.035905495285987854,0.19639459252357483,0.29969102144241333,7.061796188354492,0.0784408301115036,-3.420386552810669
1413393890125760500,0.04492061585187912,0.2576977014541626,0.3138437569141388,8.710783004760742,-0.4423113763332367,-2.4022974967956543
1413393890130760500,0.05523017793893814,0.1890084594488144,0.3324563503265381,6.422019004821777,-0.17268021404743195,-2.8479437828063965
1413393890135760500,0.07550223916769028,0.23803852498531342,0.28800490498542786,8.643281936645508,-0.4107775390148163,-2.6256103515625
1413393890140760500,0.07189968973398209,0.14914478361606598,0.2986481785774231,7.122042655944824,0.05515021085739136,-2.5090177059173584
1413393890145760500,0.05483783036470413,0.21590296924114227,0.2769796848297119,9.654653549194336,0.2935832440853119,-3.3277664184570312
1413393890150760500,0.0435393825173378,0.18862105906009674,0.27752846479415894,6.361677169799805,0.7138016223907471,-2.089644432067871
1413393890155760500,0.02756434679031372,0.21187710762023926,0.27693796157836914,8.267521858215332,-0.12080635875463486,-3.347019672393799
1413393890160760500,0.026362910866737366,0.17753605544567108,0.2799007296562195,6.3947224617004395,0.18949200212955475,-1.27134108543396
1413393890165760500,0.05375201255083084,0.1928374022245407,0.2867831289768219,9.383743286132812,-1.0208581686019897,-3.4089808464050293
1413393890170760500,0.06508824974298477,0.16637517511844635,0.28418052196502686,5.287143230438232,0.31734275817871094,-1.1356685161590576
1413393890175760500,0.08659803122282028,0.12475661933422089,0.31642523407936096,8.914600372314453,-0.9788463115692139,-3.6616082191467285
1413393890180760500,0.06683316081762314,0.16560278832912445,0.2905695140361786,5.597264766693115,0.8058487176895142,-1.1080009937286377
1413393890185760500,0.06581363826990128,0.061868250370025635,0.3037338852882385,9.753254890441895,-0.32026612758636475,-4.083927154541016
1413393890190760500,0.028024844825267792,0.14284084737300873,0.2863084077835083,5.22270393371582,1.2585217952728271,-0.976969838142395
1413393890195760500,0.04686726629734039,0.09599485248327255,0.3077707588672638,10.043709754943848,-1.3999730348587036,-4.125909805297852
1413393890200760500,0.03700672835111618,0.19431881606578827,0.23944813013076782,5.441109657287598,0.7369100451469421,-0.873269259929657
1413393890205760500,0.08423330634832382,0.07386340200901031,0.31650757789611816,8.939157485961914,-1.2555733919143677,-3.45180344581604
1413393890210760500,0.06841131299734116,0.22560735046863556,0.22720572352409363,6.6935200691223145,0.7600059509277344,-1.6407557725906372
1413393890215760500,0.09836293011903763,0.08793435990810394,0.3480909466743469,7.951357364654541,-0.23838695883750916,-3.0365922451019287
1413393890220760500,0.03827907145023346,0.21741315722465515,0.23947542905807495,7.79788064956665,1.0188730955123901,-2.1877365112304688
1413393890225760500,0.046111010015010834,0.10048992186784744,0.31673502922058105,6.082973003387451,0.16754290461540222,-2.531846046447754
1413393890230760500,-0.012520834803581238,0.1782962530851364,0.20737498998641968,8.773056983947754,0.6256805658340454,-2.0965025424957275
1413393890235760500,0.027847036719322205,0.10689719021320343,0.27295756340026855,7.150244235992432,-1.2634602785110474,-2.7031233310699463
1413393890240760500,0.020530350506305695,0.13813120126724243,0.17893171310424805,8.223273277282715,-0.06885992735624313,-1.9289501905441284
1413393890245760500,0.08540631085634232,0.0738539770245552,0.2744494676589966,6.297739505767822,-0.45739680528640747,-1.9018925428390503
1413393890250760500,0.06059188395738602,0.1596282720565796,0.21212902665138245,8.690884590148926,0.3910703659057617,-2.8515138626098633
1413393890255760500,0.07366471737623215,0.11182147264480591,0.30691397190093994,5.93748140335083,0.5211518406867981,-2.370492696762085
1413393890260760500,0.027083836495876312,0.15425018966197968,0.25067681074142456,8.906198501586914,0.03179176151752472,-3.3587639331817627
1413393890265760500,0.03330501168966293,0.13576175272464752,0.3029194474220276,5.634970188140869,0.9836702346801758,-1.6311988830566406
1413393890270760500,0.019198842346668243,0.1252322942018509,0.26561009883880615,9.613683700561523,-1.1912057399749756,-3.245757818222046
1413393890275760500,0.049200378358364105,0.13232144713401794,0.2622692286968231,5.38563346862793,0.3057689666748047,-1.257815957069397
