#timestamp [ns],w_RS_S_x [rad s^-1],w_RS_S_y [rad s^-1],w_RS_S_z [rad s^-1],a_RS_S_x [m s^-2],a_RS_S_y [m s^-2],a_RS_S_z [m s^-2]
1413393885975760500,0.050963614158234416,0.041887902047863905,0.06841690667817772,9.438900625,-0.4004382083333333,-2.729517583333333
1413393885980760500,0.05375614096142535,0.03630284844148206,0.07051130178057091,9.398039583333333,0.032688833333333334,-3.195333458333333
1413393885985760500,0.03839724354387525,0.04258603374866164,0.04677482395344803,9.561483749999999,0.2533384583333333,-3.015544875
1413393885990760500,0.028623399732707,0.047472955654245766,0.07120943348136866,9.283628666666665,0.269682875,-3.0890947499999997
1413393885995760500,0.0027925268031909274,0.06562437987498679,0.06213372137099814,9.610517,0.4985047083333333,-3.0400614999999998
1413393886000760500,-0.025132741228718346,0.03839724354387525,0.08377580409572781,9.161045541666667,0.7681875833333334,-3.2280222916666665
1413393886005760500,-0.05235987755982988,0.04817108735504349,0.08936085770210968,9.283628666666665,0.3350605416666666,-3.0809225416666663
1413393886010760500,-0.05585053606381855,0.03839724354387525,0.08098327729253688,9.054806833333332,-0.35140495833333335,-2.7867230416666664
1413393886015760500,-0.04049163864626844,0.009075712110370514,0.0747000919853573,9.259112041666667,-0.5720545833333333,-2.754034208333333
1413393886020760500,-0.013264502315156905,0.00767944870877505,0.08656833089891874,9.357178541666666,-0.6701210833333332,-2.7376897916666665
1413393886025760500,0.023038346126325153,0.010471975511965976,0.07819075048934597,9.520622708333333,-0.612915625,-2.9093061666666666
1413393886030760500,0.0439822971502571,0.032114058236695664,0.08307767239493008,9.586000375,-0.3759215833333333,-2.941995
1413393886035760500,0.04049163864626844,0.028623399732707,0.07819075048934597,9.250939833333334,0.18796079166666665,-2.811239666666667
1413393886040760500,0.021642082724729686,0.02652900463031381,0.07190756518216637,9.259112041666667,0.416782625,-3.023717083333333
1413393886045760500,-0.005585053606381855,0.04677482395344803,0.06911503837897544,9.373522958333332,0.367749375,-3.0400614999999998
1413393886050760500,-0.023736477827122883,0.03420845333908886,0.06771877497737998,9.144701125,0.057205458333333334,-2.982856041666666
1413393886055760500,-0.03490658503988659,0.01884955592153876,0.06981317007977318,9.07115125,0.10623870833333333,-2.7376897916666665
1413393886060760500,-0.03490658503988659,0.013962634015954637,0.08237954069413235,9.1201845,-0.2533384583333333,-2.9093061666666666
1413393886065760500,-0.021642082724729686,0.009075712110370514,0.08028514559173915,9.242767624999999,-0.4004382083333333,-2.999200458333333
1413393886070760500,-0.008377580409572781,0.006981317007977318,0.08726646259971647,9.536967125,-0.392266,-2.9583394166666666
1413393886075760500,0.00767944870877505,0.02234021442552742,0.08307767239493008,9.406211791666665,-0.3105439166666667,-2.974683833333333
1413393886080760500,0.017453292519943295,0.02234021442552742,0.07260569688296412,9.349006333333334,-0.3023717083333333,-3.015544875
1413393886085760500,0.025132741228718346,0.02722713633111154,0.06562437987498679,9.520622708333333,-0.17978858333333333,-2.974683833333333
1413393886090760500,0.02652900463031381,0.02234021442552742,0.08098327729253688,9.291800875,0.17161637500000002,-2.9338227916666666
1413393886095760500,0.009773843811168246,0.017453292519943295,0.08517206749732328,9.234595416666666,0.35957716666666667,-2.8766173333333334
1413393886100760500,-0.013264502315156905,0.02024581932313422,0.09564404300928926,8.989429166666666,0.3840937916666667,-2.8684451249999996
1413393886105760500,-0.033510321638291124,0.008377580409572781,0.09215338450530061,9.635033625,0.08989429166666667,-3.1299557916666663
1413393886110760500,-0.04537856055185257,0.009075712110370514,0.08237954069413235,9.5124505,-0.20430520833333332,-3.0645781249999997
1413393886115760500,-0.02722713633111154,0.016755160819145562,0.07330382858376185,9.398039583333333,-0.661948875,-2.8766173333333334
1413393886120760500,0.0013962634015954637,0.024434609527920613,0.0635299847725936,9.471589458333332,-0.563882375,-3.0400614999999998
1413393886125760500,0.02652900463031381,0.02652900463031381,0.07330382858376185,9.316317499999998,-0.08989429166666667,-2.941995
1413393886130760500,0.041189770347066175,0.021642082724729686,0.0879645943005142,9.161045541666667,-0.08989429166666667,-2.7867230416666664
1413393886135760500,0.032812189937493394,0.012566370614359173,0.0767944870877505,9.5124505,0.21247741666666667,-3.0972669583333334
1413393886140760500,0.0027925268031909274,0.030019663134302467,0.07958701389094143,9.291800875,0.4985047083333333,-2.974683833333333
1413393886145760500,-0.020943951023931952,0.013264502315156905,0.08098327729253688,9.569655958333334,0.318716125,-3.2443667083333327
1413393886150760500,-0.033510321638291124,0.025132741228718346,0.07190756518216637,9.455245041666666,-0.20430520833333332,-3.0645781249999997
1413393886155760500,-0.023038346126325153,0.03560471674068433,0.0747000919853573,9.414383999999998,-0.20430520833333332,-3.0972669583333334
1413393886160760500,-0.013264502315156905,0.041887902047863905,0.07958701389094143,9.226423208333333,-0.032688833333333334,-2.8847895416666667
1413393886165760500,-0.003490658503988659,0.027925268031909273,0.07609635538695278,9.226423208333333,-0.196133,-2.827584083333333
1413393886170760500,0.0027925268031909274,0.016755160819145562,0.07120943348136866,9.250939833333334,-0.40861041666666664,-2.99102825
1413393886175760500,0.012566370614359173,0.023038346126325153,0.07819075048934597,9.447072833333333,0.008172208333333333,-3.342433208333333
1413393886180760500,0.008377580409572781,0.041887902047863905,0.08587019919812101,9.152873333333332,0.032688833333333334,-2.852100708333333
1413393886185760500,0.0006981317007977319,0.019547687622336492,0.08866272600131193,9.447072833333333,-0.11441091666666667,-2.9583394166666666
1413393886190760500,0.005585053606381855,0.03560471674068433,0.08237954069413235,9.504278291666665,-0.21247741666666667,-2.9093061666666666
1413393886195760500,0.009773843811168246,0.0439822971502571,0.08447393579652555,9.291800875,0.16344416666666667,-2.8929617499999996
1413393886200760500,-0.0027925268031909274,0.03490658503988659,0.08237954069413235,9.16921775,0.220649625,-2.8929617499999996
1413393886205760500,-0.01815142422074103,0.017453292519943295,0.06771877497737998,9.398039583333333,-0.04086104166666667,-2.8766173333333334
1413393886210760500,-0.020943951023931952,0.017453292519943295,0.06562437987498679,9.283628666666665,-0.17978858333333333,-2.999200458333333
1413393886215760500,-0.013962634015954637,0.025132741228718346,0.07120943348136866,9.381695166666667,-0.22882183333333334,-3.0564059166666664
1413393886220760500,-0.0153588974175501,0.032114058236695664,0.07749261878854824,9.152873333333332,-0.220649625,-2.8194118749999997
1413393886225760500,0.0,0.02234021442552742,0.08726646259971647,9.381695166666667,-0.269682875,-2.974683833333333
1413393886230760500,0.016057029118347832,0.024434609527920613,0.08517206749732328,9.250939833333334,-0.220649625,-2.8602729166666667
1413393886235760500,0.02722713633111154,0.023736477827122883,0.08587019919812101,9.340834124999999,0.057205458333333334,-2.9093061666666666
1413393886240760500,0.01884955592153876,0.02583087292951608,0.08098327729253688,9.201906583333333,0.24516625,-3.0073726666666665
1413393886245760500,0.0020943951023931952,0.01815142422074103,0.08517206749732328,9.479761666666667,0.20430520833333332,-3.0318892916666664
1413393886250760500,-0.014660765716752367,0.02652900463031381,0.08168140899333462,9.1201845,0.04086104166666667,-3.015544875
1413393886255760500,-0.01815142422074103,0.014660765716752367,0.09634217471008698,9.438900625,0.18796079166666665,-2.9501672083333332
1413393886260760500,-0.023038346126325153,0.02652900463031381,0.09634217471008698,9.161045541666667,0.016344416666666667,-2.9011339583333333
1413393886265760500,-0.014660765716752367,0.004886921905584123,0.09704030641088471,9.291800875,-0.4004382083333333,-2.7703786249999998
1413393886270760500,-0.0006981317007977319,0.009773843811168246,0.07400196028455958,9.438900625,-0.42495483333333334,-2.9501672083333332
1413393886275760500,0.011868238913561441,0.010471975511965976,0.06422811647339133,9.5124505,-0.3105439166666667,-3.0564059166666664
1413393886280760500,0.013962634015954637,0.021642082724729686,0.05235987755982988,9.422556208333333,-0.11441091666666667,-3.0482337083333335
1413393886285760500,0.01884955592153876,0.005585053606381855,0.060039326268604934,9.340834124999999,-0.008172208333333333,-2.982856041666666
1413393886290760500,0.00767944870877505,0.029321531433504733,0.060039326268604934,9.398039583333333,0.220649625,-3.0809225416666663
1413393886295760500,-0.011868238913561441,0.0153588974175501,0.08726646259971647,9.340834124999999,0.5311935416666667,-2.999200458333333
1413393886300760500,-0.02583087292951608,0.033510321638291124,0.0942477796076938,9.218250999999999,0.11441091666666667,-2.9011339583333333
1413393886305760500,-0.02652900463031381,0.019547687622336492,0.09075712110370514,9.144701125,-0.2533384583333333,-2.9093061666666666
1413393886310760500,-0.0153588974175501,0.02652900463031381,0.08656833089891874,9.389867375,-0.42495483333333334,-3.138128
1413393886315760500,-0.0013962634015954637,0.021642082724729686,0.09215338450530061,9.26728425,-0.2860272916666666,-3.0890947499999997
1413393886320760500,0.013264502315156905,0.029321531433504733,0.08098327729253688,9.357178541666666,-0.40861041666666664,-2.9174783749999995
1413393886325760500,0.029321531433504733,0.020943951023931952,0.08866272600131193,9.259112041666667,-0.269682875,-2.982856041666666
1413393886330760500,0.030019663134302467,0.031415926535897934,0.08587019919812101,9.324489708333333,0.17978858333333333,-2.982856041666666
1413393886335760500,0.016057029118347832,0.024434609527920613,0.10332349171806432,9.242767624999999,0.44129925,-2.966511625
1413393886340760500,-0.013962634015954637,0.032114058236695664,0.08656833089891874,9.218250999999999,0.04903325,-3.0972669583333334
1413393886345760500,-0.028623399732707,0.014660765716752367,0.07190756518216637,9.438900625,-0.17978858333333333,-3.170816833333333
1413393886350760500,-0.028623399732707,0.028623399732707,0.06283185307179587,9.545139333333333,-0.21247741666666667,-3.2035056666666666
1413393886355760500,-0.016057029118347832,0.02583087292951608,0.0635299847725936,9.283628666666665,-0.3759215833333333,-2.827584083333333
1413393886360760500,-0.0013962634015954637,0.020943951023931952,0.06213372137099814,9.349006333333334,-0.42495483333333334,-2.974683833333333
1413393886365760500,0.02024581932313422,0.027925268031909273,0.07749261878854824,9.430728416666666,-0.17161637500000002,-2.8684451249999996
1413393886370760500,0.02024581932313422,0.03839724354387525,0.08656833089891874,9.275456458333332,0.2778550833333333,-3.015544875
1413393886375760500,0.008377580409572781,0.033510321638291124,0.0879645943005142,9.136528916666666,0.3759215833333333,-2.803067458333333
1413393886380760500,-0.005585053606381855,0.024434609527920613,0.09285151620609833,9.447072833333333,0.032688833333333334,-2.9174783749999995
1413393886385760500,-0.01117010721276371,0.02722713633111154,0.08936085770210968,9.406211791666665,-0.04086104166666667,-2.9338227916666666
1413393886390760500,-0.010471975511965976,0.03839724354387525,0.08866272600131193,9.430728416666666,-0.16344416666666667,-2.9583394166666666
1413393886395760500,-0.009075712110370514,0.027925268031909273,0.08587019919812101,9.087495666666666,-0.18796079166666665,-2.8357562916666668
1413393886400760500,0.006981317007977318,0.020943951023931952,0.08517206749732328,9.496106083333332,-0.392266,-2.982856041666666
1413393886405760500,0.016057029118347832,0.023736477827122883,0.07888888219014369,9.259112041666667,-0.008172208333333333,-2.9011339583333333
1413393886410760500,0.00767944870877505,0.020943951023931952,0.07539822368615504,9.308145291666667,0.20430520833333332,-2.999200458333333
1413393886415760500,-0.009075712110370514,0.009075712110370514,0.0767944870877505,9.373522958333332,0.04903325,-2.9256505833333333
1413393886420760500,-0.012566370614359173,0.010471975511965976,0.06911503837897544,9.504278291666665,-0.08172208333333333,-3.1544724166666662
1413393886425760500,-0.011868238913561441,0.017453292519943295,0.060039326268604934,9.291800875,-0.2860272916666666,-2.8439284999999996
1413393886430760500,-0.006283185307179587,0.020943951023931952,0.059341194567807204,9.36535075,-0.17978858333333333,-3.1217835833333334
1413393886435760500,0.008377580409572781,0.01884955592153876,0.07609635538695278,9.357178541666666,-0.2778550833333333,-2.811239666666667
1413393886440760500,0.013264502315156905,0.016057029118347832,0.08377580409572781,9.438900625,0.016344416666666667,-2.99102825
1413393886445760500,0.006283185307179587,0.023038346126325153,0.0879645943005142,9.201906583333333,0.196133,-2.778550833333333
1413393886450760500,-0.0041887902047863905,0.016057029118347832,0.08936085770210968,9.36535075,0.10623870833333333,-3.0400614999999998
1413393886455760500,-0.013264502315156905,0.0153588974175501,0.09285151620609833,9.398039583333333,-0.057205458333333334,-3.1217835833333334
1413393886460760500,-0.0153588974175501,0.021642082724729686,0.08866272600131193,9.447072833333333,-0.10623870833333333,-3.0400614999999998
1413393886465760500,-0.01117010721276371,0.02652900463031381,0.08447393579652555,9.16921775,-0.35140495833333335,-2.9011339583333333
1413393886470760500,0.00767944870877505,0.027925268031909273,0.08866272600131193,9.36535075,-0.40861041666666664,-2.8766173333333334
1413393886475760500,0.01884955592153876,0.01815142422074103,0.09215338450530061,9.226423208333333,-0.23699404166666665,-2.8929617499999996
1413393886480760500,0.021642082724729686,0.0153588974175501,0.08377580409572781,9.447072833333333,0.057205458333333334,-3.0318892916666664
1413393886485760500,0.01117010721276371,0.023736477827122883,0.07400196028455958,9.299973083333333,0.20430520833333332,-2.9093061666666666
1413393886490760500,-0.0013962634015954637,0.0153588974175501,0.07400196028455958,9.389867375,0.29419949999999995,-3.1054391666666663
1413393886495760500,-0.016755160819145562,0.016057029118347832,0.07749261878854824,9.36535075,0.10623870833333333,-3.1054391666666663
1413393886500760500,-0.024434609527920613,0.021642082724729686,0.07260569688296412,9.545139333333333,-0.196133,-3.1217835833333334
1413393886505760500,-0.02024581932313422,0.04258603374866164,0.07609635538695278,9.398039583333333,-0.196133,-2.827584083333333
1413393886510760500,-0.006981317007977318,0.029321531433504733,0.08237954069413235,9.299973083333333,-0.24516625,-2.941995
1413393886515760500,0.01117010721276371,0.03700098014227979,0.08726646259971647,9.357178541666666,-0.23699404166666665,-2.9256505833333333
1413393886520760500,0.01815142422074103,0.032114058236695664,0.08866272600131193,9.193734375,-0.07354987499999999,-3.0564059166666664
1413393886525760500,0.013264502315156905,0.032812189937493394,0.08377580409572781,9.373522958333332,0.13075533333333333,-2.9093061666666666
1413393886530760500,-0.0006981317007977319,0.019547687622336492,0.0767944870877505,9.381695166666667,0.15527195833333335,-3.1054391666666663
1413393886535760500,-0.004886921905584123,0.03769911184307752,0.07609635538695278,9.316317499999998,-0.016344416666666667,-2.8847895416666667
1413393886540760500,-0.013264502315156905,0.031415926535897934,0.07539822368615504,9.103840083333333,-0.04086104166666667,-3.1054391666666663
1413393886545760500,-0.010471975511965976,0.0439822971502571,0.08237954069413235,9.438900625,-0.0980665,-2.9093061666666666
1413393886550760500,-0.01117010721276371,0.023736477827122883,0.08237954069413235,9.144701125,-0.20430520833333332,-2.9338227916666666
1413393886555760500,-0.0027925268031909274,0.033510321638291124,0.08237954069413235,9.226423208333333,-0.29419949999999995,-2.574245625
1413393886560760500,0.0020943951023931952,0.0027925268031909274,0.07888888219014369,9.087495666666666,-0.11441091666666667,-2.9338227916666666
1413393886565760500,0.008377580409572781,0.024434609527920613,0.07400196028455958,9.594172583333334,-0.016344416666666667,-2.9256505833333333
1413393886570760500,-0.004886921905584123,0.0153588974175501,0.07260569688296412,9.308145291666667,-0.07354987499999999,-3.0073726666666665
1413393886575760500,0.0027925268031909274,0.025132741228718346,0.06562437987498679,9.406211791666665,-0.20430520833333332,-2.8194118749999997
1413393886580760500,-0.0027925268031909274,0.014660765716752367,0.06771877497737998,9.185562166666665,0.04903325,-2.974683833333333
1413393886585760500,-0.0013962634015954637,0.041887902047863905,0.08866272600131193,9.610517,0.17161637500000002,-3.113611375
1413393886590760500,-0.009075712110370514,0.03490658503988659,0.08587019919812101,9.062979041666667,-0.122583125,-2.7458620000000002
1413393886595760500,-0.003490658503988659,0.013264502315156905,0.09285151620609833,9.299973083333333,-0.26151066666666667,-2.8439284999999996
1413393886600760500,0.0006981317007977319,0.009773843811168246,0.08307767239493008,9.234595416666666,-0.21247741666666667,-3.023717083333333
1413393886605760500,0.004886921905584123,0.01884955592153876,0.09634217471008698,9.577828166666666,0.0,-3.1217835833333334
1413393886610760500,-0.003490658503988659,0.0307177948351002,0.08237954069413235,9.316317499999998,-0.18796079166666665,-2.966511625
1413393886615760500,0.004886921905584123,0.013264502315156905,0.07888888219014369,9.381695166666667,-0.220649625,-2.9011339583333333
1413393886620760500,0.008377580409572781,0.020943951023931952,0.07749261878854824,9.210078791666666,-0.008172208333333333,-3.0972669583333334
1413393886625760500,0.006981317007977318,0.031415926535897934,0.09285151620609833,9.389867375,0.15527195833333335,-3.1299557916666663
1413393886630760500,-0.010471975511965976,0.0307177948351002,0.08168140899333462,9.1201845,0.04903325,-2.9501672083333332
1413393886635760500,-0.008377580409572781,0.006981317007977318,0.08517206749732328,9.177389958333332,-0.07354987499999999,-2.9093061666666666
1413393886640760500,-0.005585053606381855,0.0153588974175501,0.08237954069413235,9.16921775,-0.16344416666666667,-3.0318892916666664
1413393886645760500,-0.004886921905584123,0.013962634015954637,0.08237954069413235,9.471589458333332,0.0,-3.162644625
1413393886650760500,-0.0153588974175501,0.027925268031909273,0.06702064327658225,9.46341725,-0.14709974999999997,-2.966511625
1413393886655760500,0.004886921905584123,0.021642082724729686,0.07888888219014369,9.349006333333334,-0.17161637500000002,-2.8929617499999996
1413393886660760500,0.008377580409572781,0.03420845333908886,0.07190756518216637,9.316317499999998,-0.18796079166666665,-3.0318892916666664
1413393886665760500,0.006283185307179587,0.02722713633111154,0.08028514559173915,9.406211791666665,0.17161637500000002,-3.1217835833333334
1413393886670760500,-0.003490658503988659,0.029321531433504733,0.07609635538695278,9.242767624999999,0.0,-2.9583394166666666
1413393886675760500,-0.0013962634015954637,0.017453292519943295,0.08237954069413235,9.46341725,-0.18796079166666665,-3.0073726666666665
1413393886680760500,-0.0041887902047863905,0.023736477827122883,0.08168140899333462,9.242767624999999,-0.17978858333333333,-3.015544875
1413393886685760500,-0.006283185307179587,0.02024581932313422,0.08168140899333462,9.569655958333334,-0.016344416666666667,-3.0400614999999998
1413393886690760500,-0.009773843811168246,0.030019663134302467,0.07958701389094143,9.398039583333333,-0.13892754166666665,-2.9093061666666666
1413393886695760500,0.006283185307179587,0.032812189937493394,0.08098327729253688,9.422556208333333,-0.17978858333333333,-2.9501672083333332
1413393886700760500,0.008377580409572781,0.032114058236695664,0.08098327729253688,9.275456458333332,-0.11441091666666667,-2.982856041666666
1413393886705760500,0.0041887902047863905,0.03700098014227979,0.07819075048934597,9.455245041666666,0.17161637500000002,-3.0645781249999997
1413393886710760500,-0.0020943951023931952,0.0307177948351002,0.07958701389094143,9.112012291666666,0.032688833333333334,-2.7131731666666665
1413393886715760500,-0.0013962634015954637,0.014660765716752367,0.08168140899333462,9.586000375,-0.16344416666666667,-3.0482337083333335
1413393886720760500,-0.0020943951023931952,0.02583087292951608,0.08377580409572781,9.218250999999999,0.057205458333333334,-2.974683833333333
1413393886725760500,-0.00767944870877505,0.0307177948351002,0.07609635538695278,9.430728416666666,-0.008172208333333333,-2.982856041666666
1413393886730760500,0.0006981317007977319,0.023736477827122883,0.07958701389094143,9.193734375,-0.14709974999999997,-2.8929617499999996
1413393886735760500,0.003490658503988659,0.02722713633111154,0.0747000919853573,9.536967125,-0.04086104166666667,-3.023717083333333
1413393886740760500,0.011868238913561441,0.030019663134302467,0.08587019919812101,9.226423208333333,0.06537766666666667,-2.99102825
1413393886745760500,0.0013962634015954637,0.031415926535897934,0.0747000919853573,9.373522958333332,0.06537766666666667,-2.9583394166666666
1413393886750760500,-0.0020943951023931952,0.013264502315156905,0.08377580409572781,9.112012291666666,0.08989429166666667,-2.7458620000000002
1413393886755760500,-0.0020943951023931952,0.012566370614359173,0.08098327729253688,9.438900625,-0.08172208333333333,-2.9093061666666666
1413393886760760500,-0.0041887902047863905,0.016057029118347832,0.09005898940290741,9.283628666666665,-0.08172208333333333,-3.138128
1413393886765760500,-0.01117010721276371,0.024434609527920613,0.07958701389094143,9.479761666666667,-0.17161637500000002,-3.0564059166666664
1413393886770760500,-0.003490658503988659,0.011868238913561441,0.08168140899333462,9.308145291666667,-0.2860272916666666,-3.0482337083333335
1413393886775760500,0.0041887902047863905,0.02583087292951608,0.07819075048934597,9.455245041666666,-0.10623870833333333,-2.966511625
1413393886780760500,0.014660765716752367,0.014660765716752367,0.0879645943005142,9.283628666666665,0.032688833333333334,-3.015544875
1413393886785760500,0.0041887902047863905,0.028623399732707,0.07330382858376185,9.479761666666667,0.06537766666666667,-3.0073726666666665
1413393886790760500,-0.003490658503988659,0.00767944870877505,0.07958701389094143,9.128356708333332,0.13075533333333333,-2.9501672083333332
1413393886795760500,-0.008377580409572781,0.017453292519943295,0.07819075048934597,9.447072833333333,-0.22882183333333334,-2.999200458333333
1413393886800760500,-0.00767944870877505,0.02024581932313422,0.08866272600131193,9.291800875,-0.13892754166666665,-3.195333458333333
1413393886805760500,-0.009075712110370514,0.027925268031909273,0.08168140899333462,9.504278291666665,-0.17161637500000002,-3.015544875
1413393886810760500,-0.003490658503988659,0.013962634015954637,0.08377580409572781,9.210078791666666,-0.10623870833333333,-2.99102825
1413393886815760500,0.0006981317007977319,0.03490658503988659,0.0747000919853573,9.487933875,-0.20430520833333332,-2.999200458333333
1413393886820760500,0.004886921905584123,0.027925268031909273,0.08028514559173915,9.128356708333332,-0.122583125,-3.0318892916666664
1413393886825760500,0.00767944870877505,0.03490658503988659,0.07819075048934597,9.504278291666665,-0.032688833333333334,-3.023717083333333
1413393886830760500,0.0027925268031909274,0.02234021442552742,0.08307767239493008,9.144701125,-0.024516625,-3.0073726666666665
1413393886835760500,-0.0006981317007977319,0.02583087292951608,0.08237954069413235,9.414383999999998,-0.024516625,-2.941995
1413393886840760500,-0.010471975511965976,0.02583087292951608,0.08517206749732328,9.112012291666666,-0.14709974999999997,-3.0564059166666664
1413393886845760500,-0.008377580409572781,0.0307177948351002,0.08866272600131193,9.332661916666666,-0.11441091666666667,-3.0400614999999998
1413393886850760500,-0.006283185307179587,0.027925268031909273,0.08517206749732328,9.349006333333334,-0.17978858333333333,-2.99102825
1413393886855760500,0.0013962634015954637,0.027925268031909273,0.08587019919812101,9.242767624999999,-0.07354987499999999,-2.9256505833333333
1413393886860760500,0.004886921905584123,0.031415926535897934,0.0767944870877505,9.161045541666667,-0.17978858333333333,-3.015544875
1413393886865760500,0.009075712110370514,0.023038346126325153,0.07609635538695278,9.26728425,-0.016344416666666667,-2.9338227916666666
1413393886870760500,0.006981317007977318,0.019547687622336492,0.07051130178057091,9.250939833333334,-0.08172208333333333,-3.0645781249999997
1413393886875760500,0.0027925268031909274,0.017453292519943295,0.0747000919853573,9.144701125,0.08172208333333333,-2.9501672083333332
1413393886880760500,-0.00767944870877505,0.025132741228718346,0.07819075048934597,9.381695166666667,-0.032688833333333334,-3.0400614999999998
1413393886885760500,-0.009773843811168246,0.021642082724729686,0.07888888219014369,9.324489708333333,-0.11441091666666667,-2.966511625
1413393886890760500,-0.008377580409572781,0.024434609527920613,0.07539822368615504,9.684066875,-0.14709974999999997,-3.211677875
1413393886895760500,-0.004886921905584123,0.029321531433504733,0.08098327729253688,9.210078791666666,0.08172208333333333,-2.9093061666666666
1413393886900760500,-0.0020943951023931952,0.02722713633111154,0.07330382858376185,9.455245041666666,-0.196133,-3.0073726666666665
1413393886905760500,0.003490658503988659,0.028623399732707,0.0747000919853573,9.340834124999999,-0.17161637500000002,-2.8602729166666667
1413393886910760500,0.016057029118347832,0.02234021442552742,0.08098327729253688,9.46341725,-0.13892754166666665,-3.0809225416666663
1413393886915760500,0.009075712110370514,0.024434609527920613,0.07749261878854824,9.054806833333332,0.057205458333333334,-2.827584083333333
1413393886920760500,0.0,0.021642082724729686,0.08447393579652555,9.46341725,0.04903325,-3.113611375
1413393886925760500,-0.006981317007977318,0.024434609527920613,0.08237954069413235,9.226423208333333,-0.08989429166666667,-2.8847895416666667
1413393886930760500,-0.004886921905584123,0.01815142422074103,0.09215338450530061,9.504278291666665,-0.016344416666666667,-2.974683833333333
1413393886935760500,-0.006981317007977318,0.02652900463031381,0.0879645943005142,9.062979041666667,0.057205458333333334,-2.941995
1413393886940760500,-0.006981317007977318,0.020943951023931952,0.08237954069413235,9.398039583333333,-0.29419949999999995,-3.0073726666666665
1413393886945760500,0.0027925268031909274,0.016755160819145562,0.08237954069413235,9.062979041666667,-0.26151066666666667,-2.9583394166666666
1413393886950760500,0.010471975511965976,0.017453292519943295,0.07539822368615504,9.414383999999998,-0.10623870833333333,-2.982856041666666
1413393886955760500,0.006283185307179587,0.01884955592153876,0.07819075048934597,9.16921775,-0.008172208333333333,-2.9011339583333333
1413393886960760500,0.0013962634015954637,0.013962634015954637,0.07609635538695278,9.594172583333334,-0.16344416666666667,-3.1054391666666663
1413393886965760500,0.0,0.02024581932313422,0.07539822368615504,9.07115125,-0.08989429166666667,-2.8602729166666667
1413393886970760500,-0.0013962634015954637,0.011868238913561441,0.09145525280450287,9.504278291666665,0.13075533333333333,-3.293399958333333
1413393886975760500,-0.013264502315156905,0.039095375244672985,0.08517206749732328,9.357178541666666,0.07354987499999999,-2.941995
1413393886980760500,-0.013264502315156905,0.02234021442552742,0.08656833089891874,9.242767624999999,-0.18796079166666665,-2.9093061666666666
1413393886985760500,-0.004886921905584123,0.02652900463031381,0.07190756518216637,9.373522958333332,-0.4004382083333333,-2.9338227916666666
1413393886990760500,0.012566370614359173,0.023736477827122883,0.07958701389094143,9.226423208333333,-0.11441091666666667,-3.0564059166666664
1413393886995760500,0.013264502315156905,0.024434609527920613,0.08447393579652555,9.430728416666666,0.008172208333333333,-2.99102825
1413393887000760500,0.0020943951023931952,0.017453292519943295,0.07539822368615504,9.36535075,-0.024516625,-2.982856041666666
1413393887005760500,0.0027925268031909274,0.023736477827122883,0.07819075048934597,9.308145291666667,-0.10623870833333333,-3.0400614999999998
1413393887010760500,0.0006981317007977319,0.02024581932313422,0.08936085770210968,9.193734375,0.24516625,-3.023717083333333
1413393887015760500,-0.013264502315156905,0.028623399732707,0.09145525280450287,9.651378041666666,0.11441091666666667,-3.0073726666666665
1413393887020760500,-0.017453292519943295,0.031415926535897934,0.08377580409572781,9.26728425,-0.122583125,-2.9093061666666666
1413393887025760500,-0.004886921905584123,0.017453292519943295,0.07609635538695278,9.389867375,-0.40861041666666664,-3.0073726666666665
1413393887030760500,0.010471975511965976,0.031415926535897934,0.07190756518216637,9.185562166666665,-0.20430520833333332,-2.9501672083333332
1413393887035760500,0.013962634015954637,0.019547687622336492,0.08377580409572781,9.36535075,-0.016344416666666667,-2.9583394166666666
1413393887040760500,0.006283185307179587,0.028623399732707,0.07400196028455958,9.438900625,-0.16344416666666667,-2.999200458333333
1413393887045760500,0.00767944870877505,0.02024581932313422,0.08237954069413235,9.201906583333333,-0.024516625,-2.966511625
1413393887050760500,0.0020943951023931952,0.02722713633111154,0.08237954069413235,9.128356708333332,0.2533384583333333,-2.99102825
1413393887055760500,-0.017453292519943295,0.020943951023931952,0.08656833089891874,9.438900625,0.17978858333333333,-3.015544875
1413393887060760500,-0.020943951023931952,0.03420845333908886,0.08028514559173915,9.357178541666666,-0.15527195833333335,-3.0645781249999997
1413393887065760500,-0.006981317007977318,0.01884955592153876,0.08237954069413235,9.226423208333333,-0.3023717083333333,-2.8929617499999996
1413393887070760500,0.005585053606381855,0.02234021442552742,0.07609635538695278,9.185562166666665,-0.24516625,-2.9256505833333333
1413393887075760500,0.013962634015954637,0.01117010721276371,0.08168140899333462,9.193734375,-0.14709974999999997,-2.9338227916666666
1413393887080760500,0.008377580409572781,0.021642082724729686,0.07609635538695278,9.520622708333333,-0.13892754166666665,-3.0482337083333335
1413393887085760500,0.01117010721276371,0.013264502315156905,0.07609635538695278,9.185562166666665,-0.07354987499999999,-2.974683833333333
1413393887090760500,0.005585053606381855,0.021642082724729686,0.08028514559173915,9.259112041666667,0.15527195833333335,-3.015544875
1413393887095760500,-0.009773843811168246,0.008377580409572781,0.08517206749732328,9.218250999999999,0.20430520833333332,-2.974683833333333
1413393887100760500,-0.02583087292951608,0.023736477827122883,0.07888888219014369,9.553311541666666,-0.11441091666666667,-3.015544875
1413393887105760500,-0.0153588974175501,0.019547687622336492,0.08517206749732328,9.373522958333332,-0.3840937916666667,-2.941995
1413393887110760500,0.0020943951023931952,0.031415926535897934,0.08237954069413235,9.471589458333332,-0.4004382083333333,-3.0073726666666665
1413393887115760500,0.009075712110370514,0.01884955592153876,0.08447393579652555,9.095667875,-0.220649625,-2.8357562916666668
1413393887120760500,0.014660765716752367,0.021642082724729686,0.07819075048934597,9.602344791666665,-0.196133,-2.999200458333333
1413393887125760500,0.016057029118347832,0.017453292519943295,0.07539822368615504,9.193734375,-0.06537766666666667,-2.8766173333333334
1413393887130760500,0.012566370614359173,0.023038346126325153,0.08237954069413235,9.406211791666665,0.17978858333333333,-3.1299557916666663
1413393887135760500,-0.005585053606381855,0.0307177948351002,0.08168140899333462,9.201906583333333,0.26151066666666667,-2.941995
1413393887140760500,-0.02583087292951608,0.023038346126325153,0.08237954069413235,9.5124505,0.15527195833333335,-2.99102825
1413393887145760500,-0.023038346126325153,0.032812189937493394,0.08168140899333462,9.299973083333333,-0.21247741666666667,-2.9011339583333333
1413393887150760500,-0.006981317007977318,0.01884955592153876,0.08307767239493008,9.26728425,-0.32688833333333334,-3.0400614999999998
1413393887155760500,0.0,0.03630284844148206,0.0767944870877505,9.136528916666666,-0.26151066666666667,-2.9011339583333333
1413393887160760500,0.013264502315156905,0.02024581932313422,0.07819075048934597,9.373522958333332,-0.29419949999999995,-2.9093061666666666
1413393887165760500,0.017453292519943295,0.030019663134302467,0.06841690667817772,9.36535075,-0.20430520833333332,-3.023717083333333
1413393887170760500,0.017453292519943295,0.019547687622336492,0.08237954069413235,9.193734375,0.220649625,-3.0972669583333334
1413393887175760500,-0.004886921905584123,0.03839724354387525,0.07958701389094143,9.299973083333333,0.4004382083333333,-2.9501672083333332
1413393887180760500,-0.025132741228718346,0.025132741228718346,0.08587019919812101,9.324489708333333,0.13075533333333333,-3.023717083333333
1413393887185760500,-0.028623399732707,0.027925268031909273,0.07609635538695278,9.447072833333333,-0.23699404166666665,-3.1054391666666663
1413393887190760500,-0.016755160819145562,0.012566370614359173,0.08307767239493008,9.201906583333333,-0.3105439166666667,-2.8929617499999996
1413393887195760500,-0.0013962634015954637,0.03630284844148206,0.0747000919853573,9.569655958333334,-0.34323275000000003,-3.023717083333333
1413393887200760500,0.0153588974175501,0.023038346126325153,0.08307767239493008,9.087495666666666,-0.4004382083333333,-2.9011339583333333
1413393887205760500,0.023736477827122883,0.01884955592153876,0.07260569688296412,9.635033625,-0.29419949999999995,-2.9338227916666666
1413393887210760500,0.024434609527920613,0.014660765716752367,0.07400196028455958,9.234595416666666,0.20430520833333332,-2.9011339583333333
1413393887215760500,0.012566370614359173,0.02583087292951608,0.08377580409572781,9.553311541666666,0.4004382083333333,-3.1217835833333334
1413393887220760500,-0.02024581932313422,0.028623399732707,0.08377580409572781,9.275456458333332,0.269682875,-3.015544875
1413393887225760500,-0.02652900463031381,0.028623399732707,0.08098327729253688,9.349006333333334,-0.008172208333333333,-2.9174783749999995
1413393887230760500,-0.02024581932313422,0.014660765716752367,0.08936085770210968,9.193734375,-0.220649625,-2.7948952499999997
1413393887235760500,-0.003490658503988659,0.020943951023931952,0.09005898940290741,9.520622708333333,-0.367749375,-3.0972669583333334
1413393887240760500,0.013264502315156905,0.032812189937493394,0.08517206749732328,9.136528916666666,-0.367749375,-2.8684451249999996
1413393887245760500,0.02024581932313422,0.023736477827122883,0.0747000919853573,9.398039583333333,-0.32688833333333334,-2.7703786249999998
1413393887250760500,0.02652900463031381,0.014660765716752367,0.0747000919853573,9.144701125,-0.14709974999999997,-2.8847895416666667
1413393887255760500,0.016057029118347832,0.010471975511965976,0.07819075048934597,9.26728425,0.35140495833333335,-3.1544724166666662
1413393887260760500,-0.006981317007977318,0.032812189937493394,0.08517206749732328,9.201906583333333,0.48216029166666663,-2.8929617499999996
1413393887265760500,-0.0307177948351002,0.01884955592153876,0.0767944870877505,9.46341725,0.122583125,-2.982856041666666
1413393887270760500,-0.030019663134302467,0.02024581932313422,0.07888888219014369,9.275456458333332,-0.32688833333333334,-2.9256505833333333
1413393887275760500,-0.016755160819145562,0.011868238913561441,0.07120943348136866,9.250939833333334,-0.34323275000000003,-3.0400614999999998
1413393887280760500,0.0013962634015954637,0.03420845333908886,0.07539822368615504,9.340834124999999,-0.367749375,-2.8847895416666667
1413393887285760500,0.010471975511965976,0.014660765716752367,0.07539822368615504,9.455245041666666,-0.367749375,-3.0564059166666664
1413393887290760500,0.023038346126325153,0.025132741228718346,0.07120943348136866,9.5124505,-0.2533384583333333,-2.9256505833333333
1413393887295760500,0.021642082724729686,0.010471975511965976,0.07330382858376185,9.1201845,0.16344416666666667,-2.99102825
1413393887300760500,0.009773843811168246,0.03490658503988659,0.0879645943005142,9.586000375,0.4985047083333333,-3.0400614999999998
1413393887305760500,-0.02234021442552742,0.023736477827122883,0.09005898940290741,9.210078791666666,0.2860272916666666,-2.99102825
1413393887310760500,-0.0307177948351002,0.01884955592153876,0.0879645943005142,9.553311541666666,-0.15527195833333335,-2.99102825
1413393887315760500,-0.021642082724729686,0.02583087292951608,0.08517206749732328,9.1201845,-0.3023717083333333,-2.966511625
1413393887320760500,-0.009075712110370514,0.02234021442552742,0.09354964790689606,9.643205833333333,-0.3105439166666667,-3.138128
1413393887325760500,0.008377580409572781,0.023736477827122883,0.08028514559173915,9.112012291666666,-0.43312704166666666,-2.8439284999999996
1413393887330760500,0.02583087292951608,0.017453292519943295,0.07958701389094143,9.577828166666666,-0.3759215833333333,-2.999200458333333
1413393887335760500,0.028623399732707,0.03630284844148206,0.06841690667817772,9.144701125,-0.032688833333333334,-2.9011339583333333
1413393887340760500,0.016755160819145562,0.02024581932313422,0.09005898940290741,9.479761666666667,0.5311935416666667,-3.015544875
1413393887345760500,-0.0153588974175501,0.039095375244672985,0.07958701389094143,9.389867375,0.3105439166666667,-3.0809225416666663
1413393887350760500,-0.031415926535897934,0.02722713633111154,0.07330382858376185,9.242767624999999,0.0980665,-2.999200458333333
1413393887355760500,-0.02583087292951608,0.031415926535897934,0.08168140899333462,9.095667875,-0.2778550833333333,-3.0482337083333335
1413393887360760500,-0.013962634015954637,0.020943951023931952,0.07958701389094143,9.299973083333333,-0.22882183333333334,-3.0318892916666664
1413393887365760500,0.0027925268031909274,0.04049163864626844,0.08098327729253688,9.218250999999999,-0.44129925,-2.8357562916666668
1413393887370760500,0.012566370614359173,0.01884955592153876,0.07819075048934597,9.324489708333333,-0.43312704166666666,-2.8684451249999996
1413393887375760500,0.0307177948351002,0.027925268031909273,0.07330382858376185,9.26728425,-0.14709974999999997,-2.8766173333333334
1413393887380760500,0.01815142422074103,0.009075712110370514,0.07609635538695278,9.128356708333332,0.43312704166666666,-3.015544875
1413393887385760500,-0.0006981317007977319,0.032812189937493394,0.08936085770210968,9.496106083333332,0.5066769166666666,-2.99102825
1413393887390760500,-0.031415926535897934,0.016057029118347832,0.07958701389094143,9.349006333333334,0.15527195833333335,-3.0645781249999997
1413393887395760500,-0.0307177948351002,0.02024581932313422,0.08237954069413235,9.381695166666667,-0.07354987499999999,-3.0073726666666665
1413393887400760500,-0.025132741228718346,0.006283185307179587,0.07749261878854824,9.357178541666666,-0.3840937916666667,-2.9501672083333332
1413393887405760500,-0.004886921905584123,0.021642082724729686,0.08447393579652555,9.684066875,-0.318716125,-3.0727503333333335
1413393887410760500,0.004886921905584123,0.01884955592153876,0.07888888219014369,9.218250999999999,-0.465815875,-2.8357562916666668
1413393887415760500,0.02652900463031381,0.0153588974175501,0.07330382858376185,9.561483749999999,-0.416782625,-2.982856041666666
1413393887420760500,0.030019663134302467,0.02234021442552742,0.07051130178057091,9.26728425,0.024516625,-2.982856041666666
1413393887425760500,0.01815142422074103,0.006981317007977318,0.09075712110370514,9.528794916666666,0.4739880833333333,-3.178989041666666
1413393887430760500,-0.006981317007977318,0.03769911184307752,0.08517206749732328,9.357178541666666,0.3105439166666667,-2.999200458333333
1413393887435760500,-0.0307177948351002,0.017453292519943295,0.08307767239493008,9.308145291666667,0.0,-3.0564059166666664
1413393887440760500,-0.02722713633111154,0.027925268031909273,0.08237954069413235,9.226423208333333,-0.13892754166666665,-3.0318892916666664
1413393887445760500,-0.012566370614359173,0.013962634015954637,0.09005898940290741,9.283628666666665,-0.3840937916666667,-3.0727503333333335
1413393887450760500,0.006283185307179587,0.03700098014227979,0.08587019919812101,9.381695166666667,-0.5066769166666666,-2.966511625
1413393887455760500,0.020943951023931952,0.0153588974175501,0.08237954069413235,9.177389958333332,-0.45764366666666667,-2.8439284999999996
1413393887460760500,0.03490658503988659,0.025132741228718346,0.07609635538695278,9.406211791666665,-0.17978858333333333,-2.999200458333333
1413393887465760500,0.020943951023931952,0.01815142422074103,0.07958701389094143,9.030290208333332,0.32688833333333334,-3.015544875
1413393887470760500,-0.0020943951023931952,0.024434609527920613,0.08377580409572781,9.381695166666667,0.5965712083333333,-2.99102825
1413393887475760500,-0.02722713633111154,0.024434609527920613,0.07958701389094143,9.242767624999999,0.14709974999999997,-2.99102825
1413393887480760500,-0.03700098014227979,0.023736477827122883,0.07120943348136866,9.316317499999998,-0.11441091666666667,-3.0727503333333335
1413393887485760500,-0.024434609527920613,0.0153588974175501,0.07958701389094143,9.259112041666667,-0.3023717083333333,-2.974683833333333
1413393887490760500,-0.005585053606381855,0.029321531433504733,0.07958701389094143,9.536967125,-0.3759215833333333,-2.9501672083333332
1413393887495760500,0.013264502315156905,0.025132741228718346,0.07749261878854824,9.283628666666665,-0.5148491249999999,-2.9338227916666666
1413393887500760500,0.0307177948351002,0.02583087292951608,0.07330382858376185,9.479761666666667,-0.34323275000000003,-2.966511625
1413393887505760500,0.029321531433504733,0.02234021442552742,0.07330382858376185,9.308145291666667,0.11441091666666667,-3.015544875
1413393887510760500,0.013264502315156905,0.017453292519943295,0.08028514559173915,9.447072833333333,0.5311935416666667,-3.023717083333333
1413393887515760500,-0.012566370614359173,0.032114058236695664,0.08936085770210968,9.430728416666666,0.3840937916666667,-2.974683833333333
1413393887520760500,-0.03490658503988659,0.02652900463031381,0.07749261878854824,9.438900625,0.13892754166666665,-3.195333458333333
1413393887525760500,-0.02722713633111154,0.028623399732707,0.08656833089891874,9.357178541666666,-0.269682875,-2.9093061666666666
1413393887530760500,-0.017453292519943295,0.023038346126325153,0.07819075048934597,9.349006333333334,-0.35957716666666667,-3.1217835833333334
1413393887535760500,0.005585053606381855,0.03839724354387525,0.08168140899333462,9.226423208333333,-0.4739880833333333,-2.8194118749999997
1413393887540760500,0.023736477827122883,0.021642082724729686,0.08168140899333462,9.357178541666666,-0.42495483333333334,-2.999200458333333
1413393887545760500,0.03560471674068433,0.029321531433504733,0.0767944870877505,9.389867375,-0.08989429166666667,-2.8439284999999996
1413393887550760500,0.01815142422074103,0.013962634015954637,0.08377580409572781,9.022118,0.563882375,-3.0564059166666664
1413393887555760500,-0.009773843811168246,0.03560471674068433,0.09215338450530061,9.561483749999999,0.5802267916666666,-3.0645781249999997
1413393887560760500,-0.041189770347066175,0.02722713633111154,0.08517206749732328,9.185562166666665,0.22882183333333334,-3.0809225416666663
1413393887565760500,-0.032812189937493394,0.03420845333908886,0.08307767239493008,9.528794916666666,-0.43312704166666666,-2.974683833333333
1413393887570760500,-0.01884955592153876,0.02234021442552742,0.06911503837897544,9.201906583333333,-0.5475379583333333,-2.811239666666667
1413393887575760500,0.006981317007977318,0.028623399732707,0.0747000919853573,9.26728425,-0.5720545833333333,-2.99102825
1413393887580760500,0.021642082724729686,0.02024581932313422,0.06981317007977318,9.291800875,-0.2860272916666666,-3.0645781249999997
1413393887585760500,0.02722713633111154,0.008377580409572781,0.07539822368615504,9.528794916666666,0.3105439166666667,-3.4078108749999996
1413393887590760500,0.0027925268031909274,0.03769911184307752,0.07051130178057091,9.577828166666666,0.42495483333333334,-3.0972669583333334
1413393887595760500,-0.027925268031909273,0.028623399732707,0.06702064327658225,9.618689208333333,0.40861041666666664,-3.138128
1413393887600760500,-0.03490658503988659,0.041189770347066175,0.060039326268604934,10.010955208333332,-0.5148491249999999,-3.3832942499999996
1413393887605760500,-0.009075712110370514,0.02024581932313422,0.06771877497737998,9.504278291666665,-0.6456044583333332,-2.8194118749999997
1413393887610760500,0.0153588974175501,0.050963614158234416,0.08377580409572781,9.349006333333334,-0.2860272916666666,-3.162644625
1413393887615760500,0.032812189937493394,0.057246799465414,0.12426744274199628,8.940395916666665,0.016344416666666667,-2.827584083333333
1413393887620760500,0.023038346126325153,0.03560471674068433,0.15289084247470325,8.989429166666666,-0.032688833333333334,-2.9501672083333332
1413393887625760500,0.023038346126325153,0.05864306286700947,0.143116998663535,9.430728416666666,-0.24516625,-2.9501672083333332
1413393887630760500,0.016057029118347832,0.032114058236695664,0.11868238913561441,8.87501825,-0.057205458333333334,-2.7948952499999997
1413393887635760500,0.0006981317007977319,0.024434609527920613,0.10890854532444616,9.136528916666666,0.48216029166666663,-3.0564059166666664
1413393887640760500,-0.039793506945470715,0.050963614158234416,0.08168140899333462,9.07115125,0.20430520833333332,-2.672312125
1413393887645760500,-0.05166174585903216,0.033510321638291124,0.05305800926062762,9.177389958333332,-0.4903325,-2.9583394166666666
1413393887650760500,-0.02024581932313422,0.031415926535897934,0.023736477827122883,9.022118,-1.0787315,-2.7131731666666665
1413393887655760500,0.0153588974175501,0.01117010721276371,0.032114058236695664,8.638024208333333,-0.3023717083333333,-2.6477955
1413393887660760500,0.0307177948351002,0.048869219055841226,0.05026548245743669,9.46341725,-0.04086104166666667,-3.023717083333333
1413393887665760500,0.01117010721276371,0.03560471674068433,0.05515240436302082,8.515441083333332,0.17978858333333333,-2.631451083333333
1413393887670760500,0.012566370614359173,-0.0006981317007977319,0.06841690667817772,9.496106083333332,0.032688833333333334,-3.211677875
1413393887675760500,-0.0006981317007977319,0.032812189937493394,0.06981317007977318,9.389867375,0.45764366666666667,-2.7703786249999998
1413393887680760500,-0.009075712110370514,0.0041887902047863905,0.1340412865531645,9.16921775,0.5475379583333333,-3.1217835833333334
1413393887685760500,-0.039095375244672985,0.033510321638291124,0.1096066770252439,9.545139333333333,-0.17161637500000002,-2.8357562916666668
1413393887690760500,-0.019547687622336492,-0.0153588974175501,0.10890854532444616,9.398039583333333,-0.6292600416666666,-2.974683833333333
1413393887695760500,0.0,0.0041887902047863905,0.07260569688296412,10.190743791666666,-0.4004382083333333,-3.0645781249999997
1413393887700760500,0.009773843811168246,-0.00767944870877505,0.10821041362364843,9.520622708333333,0.23699404166666665,-3.0890947499999997
1413393887705760500,-0.00767944870877505,0.04258603374866164,0.06771877497737998,9.986438583333333,-0.4985047083333333,-3.293399958333333
1413393887710760500,0.011868238913561441,0.00767944870877505,0.06911503837897544,8.9240515,-0.3105439166666667,-2.2718739166666664
1413393887715760500,0.02583087292951608,0.006981317007977318,0.05305800926062762,10.354187958333334,-0.44129925,-3.4323274999999995
1413393887720760500,0.020943951023931952,0.03560471674068433,0.06702064327658225,8.891362666666666,0.8253930416666666,-2.827584083333333
1413393887725760500,0.0013962634015954637,0.031415926535897934,0.09564404300928926,9.528794916666666,0.4494714583333333,-3.3015721666666664
1413393887730760500,-0.021642082724729686,0.0767944870877505,0.07819075048934597,8.703401874999999,-0.04086104166666667,-2.459834708333333
1413393887735760500,-0.010471975511965976,-0.0006981317007977319,0.09564404300928926,9.013945791666666,0.016344416666666667,-3.0073726666666665
1413393887740760500,-0.013962634015954637,0.04468042885105484,0.07609635538695278,9.373522958333332,-0.22882183333333334,-3.2852277500000002
1413393887745760500,-0.009075712110370514,0.02583087292951608,0.10890854532444616,8.670713041666666,-0.0980665,-2.9174783749999995
1413393887750760500,-0.014660765716752367,0.059341194567807204,0.08517206749732328,9.038462416666666,-0.6701210833333332,-2.8929617499999996
1413393887755760500,0.0006981317007977319,0.014660765716752367,0.07958701389094143,8.572646541666666,-0.24516625,-2.6396232916666666
1413393887760760500,0.02024581932313422,-0.004886921905584123,0.05585053606381855,9.749444541666666,-0.45764366666666667,-3.3996386666666667
1413393887765760500,0.019547687622336492,0.014660765716752367,0.0635299847725936,9.095667875,0.34323275000000003,-2.9501672083333332
1413393887770760500,0.005585053606381855,0.02024581932313422,0.0767944870877505,9.847511041666666,0.06537766666666667,-3.563082833333333
1413393887775760500,-0.016755160819145562,0.04677482395344803,0.04328416544945937,8.580818749999999,0.122583125,-2.3454237916666667
1413393887780760500,-0.010471975511965976,-0.021642082724729686,0.07609635538695278,9.487933875,-0.13892754166666665,-2.999200458333333
1413393887785760500,-0.01815142422074103,0.01117010721276371,0.04956735075663895,10.059988458333333,-0.24516625,-3.2852277500000002
1413393887790760500,-0.0027925268031909274,0.0041887902047863905,0.0991347015132779,9.316317499999998,0.11441091666666667,-2.811239666666667
1413393887795760500,-0.013264502315156905,0.046076692252650306,0.09005898940290741,9.986438583333333,-0.269682875,-3.0972669583333334
1413393887800760500,-0.013962634015954637,0.016057029118347832,0.08377580409572781,8.801468374999999,-0.23699404166666665,-2.7213453750000003
1413393887805760500,0.013264502315156905,0.003490658503988659,0.09075712110370514,10.256121458333332,-0.63743225,-3.2852277500000002
1413393887810760500,0.021642082724729686,0.033510321638291124,0.09983283321407566,9.005773583333333,0.057205458333333334,-2.803067458333333
1413393887815760500,0.021642082724729686,0.03490658503988659,0.1117010721276371,9.733100125,0.35140495833333335,-3.211677875
1413393887820760500,-0.006283185307179587,0.05305800926062762,0.08726646259971647,9.079323458333333,-0.04086104166666667,-2.6477955
1413393887825760500,-0.006981317007977318,0.012566370614359173,0.08447393579652555,9.234595416666666,-0.024516625,-3.015544875
1413393887830760500,0.0,0.028623399732707,0.07539822368615504,9.643205833333333,-0.2533384583333333,-3.1463002083333333
1413393887835760500,0.0006981317007977319,0.03700098014227979,0.08098327729253688,8.621679791666667,0.16344416666666667,-2.852100708333333
1413393887840760500,-0.008377580409572781,0.0307177948351002,0.09005898940290741,9.16921775,0.22882183333333334,-2.9174783749999995
1413393887845760500,-0.020943951023931952,0.032114058236695664,0.06702064327658225,8.785123958333333,-0.16344416666666667,-2.6886565416666666
1413393887850760500,-0.01117010721276371,-0.008377580409572781,0.07190756518216637,9.038462416666666,-0.16344416666666667,-3.0400614999999998
1413393887855760500,0.006283185307179587,0.012566370614359173,0.0747000919853573,9.332661916666666,-0.24516625,-3.1299557916666663
1413393887860760500,0.010471975511965976,0.003490658503988659,0.07749261878854824,8.785123958333333,0.057205458333333334,-2.7376897916666665
1413393887865760500,0.00767944870877505,0.012566370614359173,0.07051130178057091,9.773961166666666,0.10623870833333333,-3.0809225416666663
1413393887870760500,-0.0041887902047863905,0.0041887902047863905,0.0635299847725936,8.948568125,0.032688833333333334,-2.7622064166666664
1413393887875760500,-0.009075712110370514,-0.011868238913561441,0.07819075048934597,9.577828166666666,0.008172208333333333,-3.2852277500000002
1413393887880760500,-0.008377580409572781,0.029321531433504733,0.0879645943005142,9.651378041666666,-0.13892754166666665,-3.138128
1413393887885760500,-0.005585053606381855,0.009773843811168246,0.08377580409572781,9.161045541666667,-0.3023717083333333,-3.015544875
1413393887890760500,-0.004886921905584123,0.014660765716752367,0.07749261878854824,10.019127416666667,-0.0980665,-2.982856041666666
1413393887895760500,-0.003490658503988659,0.01884955592153876,0.0767944870877505,9.414383999999998,-0.13075533333333333,-2.8847895416666667
1413393887900760500,-0.01117010721276371,0.0153588974175501,0.07400196028455958,9.716755708333332,-0.11441091666666667,-3.1544724166666662
1413393887905760500,-0.0041887902047863905,0.0307177948351002,0.08447393579652555,9.692239083333332,-0.34323275000000003,-3.0400614999999998
1413393887910760500,0.012566370614359173,0.023736477827122883,0.09075712110370514,9.144701125,-0.35957716666666667,-2.9256505833333333
1413393887915760500,0.013962634015954637,0.023038346126325153,0.07330382858376185,9.602344791666665,0.07354987499999999,-2.999200458333333
1413393887920760500,0.0041887902047863905,0.025132741228718346,0.07888888219014369,9.038462416666666,0.10623870833333333,-2.803067458333333
1413393887925760500,-0.009075712110370514,0.012566370614359173,0.08517206749732328,9.545139333333333,0.06537766666666667,-3.1544724166666662
1413393887930760500,-0.010471975511965976,0.04956735075663895,0.09564404300928926,9.667722458333333,0.04086104166666667,-3.138128
1413393887935760500,-0.0041887902047863905,0.039793506945470715,0.10122909661567112,8.515441083333332,-0.196133,-2.8929617499999996
1413393887940760500,0.0013962634015954637,0.02234021442552742,0.0879645943005142,9.46341725,-0.2778550833333333,-2.9011339583333333
1413393887945760500,0.009773843811168246,0.05026548245743669,0.08237954069413235,9.046634625,-0.08172208333333333,-2.8439284999999996
1413393887950760500,0.006283185307179587,0.005585053606381855,0.08656833089891874,8.719746291666667,0.04903325,-2.827584083333333
1413393887955760500,-0.00767944870877505,0.02652900463031381,0.07190756518216637,9.651378041666666,0.0980665,-3.211677875
1413393887960760500,-0.006283185307179587,0.039793506945470715,0.08028514559173915,8.97308475,0.04086104166666667,-2.999200458333333
1413393887965760500,0.003490658503988659,0.0020943951023931952,0.07958701389094143,8.956740333333332,-0.21247741666666667,-2.8194118749999997
1413393887970760500,0.0,0.02234021442552742,0.05585053606381855,9.520622708333333,0.14709974999999997,-2.941995
1413393887975760500,-0.0006981317007977319,0.008377580409572781,0.06981317007977318,8.834157208333334,0.15527195833333335,-2.7213453750000003
1413393887980760500,-0.014660765716752367,0.004886921905584123,0.0635299847725936,9.986438583333333,0.04086104166666667,-3.2035056666666666
1413393887985760500,-0.01884955592153876,0.047472955654245766,0.06632251157578452,9.643205833333333,-0.08989429166666667,-2.852100708333333
1413393887990760500,-0.010471975511965976,0.005585053606381855,0.08237954069413235,9.332661916666666,-0.4985047083333333,-2.8357562916666668
1413393887995760500,0.0006981317007977319,0.029321531433504733,0.08028514559173915,10.010955208333332,-0.5965712083333333,-2.99102825
1413393888000760500,0.01117010721276371,0.03839724354387525,0.0747000919853573,9.193734375,0.13892754166666665,-2.974683833333333
1413393888005760500,0.016755160819145562,0.0041887902047863905,0.0879645943005142,9.26728425,0.20430520833333332,-2.9256505833333333
1413393888010760500,0.00767944870877505,0.016755160819145562,0.09075712110370514,9.839338833333333,0.07354987499999999,-3.1299557916666663
1413393888015760500,-0.01117010721276371,0.0307177948351002,0.08656833089891874,9.36535075,0.0980665,-3.0809225416666663
1413393888020760500,-0.009773843811168246,0.004886921905584123,0.10192722831646883,9.46341725,-0.26151066666666667,-2.9501672083333332
1413393888025760500,0.0006981317007977319,0.023038346126325153,0.08936085770210968,9.438900625,-0.563882375,-2.982856041666666
1413393888030760500,0.0020943951023931952,0.012566370614359173,0.07120943348136866,9.005773583333333,-0.13075533333333333,-2.69682875
1413393888035760500,0.010471975511965976,0.0020943951023931952,0.08377580409572781,9.324489708333333,0.16344416666666667,-3.0400614999999998
1413393888040760500,-0.0013962634015954637,0.01884955592153876,0.08168140899333462,9.226423208333333,0.17978858333333333,-2.9174783749999995
1413393888045760500,-0.013962634015954637,0.011868238913561441,0.07330382858376185,9.07115125,-0.04086104166666667,-3.015544875
1413393888050760500,-0.013962634015954637,0.025132741228718346,0.07958701389094143,9.46341725,-0.0980665,-3.015544875
1413393888055760500,-0.0013962634015954637,0.03560471674068433,0.07749261878854824,8.964912541666667,-0.3105439166666667,-2.9093061666666666
1413393888060760500,0.009773843811168246,0.014660765716752367,0.06981317007977318,9.259112041666667,-0.196133,-2.8929617499999996
1413393888065760500,0.011868238913561441,0.02024581932313422,0.07888888219014369,9.136528916666666,0.0980665,-2.8929617499999996
1413393888070760500,0.008377580409572781,0.01117010721276371,0.08587019919812101,9.316317499999998,0.13075533333333333,-3.0482337083333335
1413393888075760500,-0.009075712110370514,0.013962634015954637,0.07749261878854824,9.618689208333333,0.18796079166666665,-3.219850083333333
1413393888080760500,-0.023038346126325153,0.03630284844148206,0.08028514559173915,9.5124505,0.06537766666666667,-3.138128
1413393888085760500,-0.013962634015954637,0.02722713633111154,0.08168140899333462,9.16921775,-0.35957716666666667,-3.0727503333333335
1413393888090760500,0.0020943951023931952,0.024434609527920613,0.07609635538695278,9.569655958333334,-0.29419949999999995,-3.0073726666666665
1413393888095760500,0.013264502315156905,0.021642082724729686,0.07749261878854824,9.136528916666666,-0.07354987499999999,-2.9256505833333333
1413393888100760500,0.014660765716752367,0.016057029118347832,0.08237954069413235,9.577828166666666,0.024516625,-3.1299557916666663
1413393888105760500,0.004886921905584123,0.02024581932313422,0.07888888219014369,9.594172583333334,0.13075533333333333,-3.138128
1413393888110760500,-0.014660765716752367,0.04258603374866164,0.06771877497737998,9.684066875,0.269682875,-3.2280222916666665
1413393888115760500,-0.017453292519943295,0.04956735075663895,0.08098327729253688,9.193734375,-0.15527195833333335,-2.7948952499999997
1413393888120760500,-0.004886921905584123,0.023736477827122883,0.08936085770210968,9.430728416666666,-0.4494714583333333,-2.852100708333333
1413393888125760500,0.00767944870877505,0.0307177948351002,0.0879645943005142,9.1201845,-0.18796079166666665,-2.8194118749999997
1413393888130760500,0.012566370614359173,0.017453292519943295,0.09145525280450287,9.455245041666666,0.04086104166666667,-2.982856041666666
1413393888135760500,0.01117010721276371,0.024434609527920613,0.08656833089891874,9.430728416666666,-0.024516625,-3.0727503333333335
1413393888140760500,-0.014660765716752367,0.027925268031909273,0.07330382858376185,9.561483749999999,0.2778550833333333,-3.170816833333333
1413393888145760500,-0.023736477827122883,0.05235987755982988,0.07190756518216637,9.201906583333333,-0.04086104166666667,-2.8357562916666668
1413393888150760500,-0.009075712110370514,0.03560471674068433,0.07958701389094143,8.97308475,-0.4739880833333333,-2.8439284999999996
1413393888155760500,0.009773843811168246,0.017453292519943295,0.08168140899333462,9.07115125,-0.416782625,-2.8194118749999997
1413393888160760500,0.01884955592153876,0.02234021442552742,0.07888888219014369,9.07115125,0.016344416666666667,-2.7948952499999997
1413393888165760500,0.013962634015954637,0.016755160819145562,0.08098327729253688,9.36535075,0.008172208333333333,-3.1299557916666663
1413393888170760500,0.0006981317007977319,0.01117010721276371,0.07120943348136866,9.226423208333333,0.35957716666666667,-2.9093061666666666
1413393888175760500,-0.020943951023931952,0.02583087292951608,0.07260569688296412,9.545139333333333,0.3105439166666667,-3.0645781249999997
1413393888180760500,-0.03420845333908886,0.04049163864626844,0.07539822368615504,9.087495666666666,-0.2860272916666666,-2.7703786249999998
1413393888185760500,-0.012566370614359173,0.004886921905584123,0.09075712110370514,9.234595416666666,-0.73549875,-2.8766173333333334
1413393888190760500,0.016057029118347832,0.013264502315156905,0.08587019919812101,9.504278291666665,-0.20430520833333332,-2.99102825
1413393888195760500,0.021642082724729686,0.012566370614359173,0.09145525280450287,9.332661916666666,0.04903325,-2.941995
1413393888200760500,0.009773843811168246,-0.0013962634015954637,0.07400196028455958,9.700411291666665,0.11441091666666667,-3.1054391666666663
1413393888205760500,-0.006981317007977318,0.003490658503988659,0.06213372137099814,9.757616749999999,0.3350605416666666,-3.2280222916666665
1413393888210760500,-0.02234021442552742,0.041189770347066175,0.0635299847725936,9.520622708333333,0.10623870833333333,-3.0890947499999997
1413393888215760500,-0.019547687622336492,0.020943951023931952,0.08517206749732328,8.97308475,-0.367749375,-2.941995
1413393888220760500,0.0,0.00767944870877505,0.08517206749732328,9.46341725,-0.5557101666666666,-2.9338227916666666
1413393888225760500,0.01815142422074103,0.02024581932313422,0.09634217471008698,9.324489708333333,-0.15527195833333335,-2.999200458333333
1413393888230760500,0.016755160819145562,0.016755160819145562,0.0879645943005142,9.455245041666666,0.13075533333333333,-3.2280222916666665
1413393888235760500,0.004886921905584123,0.012566370614359173,0.0767944870877505,9.471589458333332,0.26151066666666667,-3.0809225416666663
1413393888240760500,-0.016755160819145562,0.014660765716752367,0.07120943348136866,9.741272333333333,0.24516625,-3.293399958333333
1413393888245760500,-0.02722713633111154,0.05235987755982988,0.07888888219014369,9.022118,-0.22882183333333334,-2.8439284999999996
1413393888250760500,-0.004886921905584123,0.030019663134302467,0.09285151620609833,9.095667875,-0.6047434166666666,-2.8766173333333334
1413393888255760500,0.019547687622336492,0.01884955592153876,0.09843656981248018,9.16921775,-0.32688833333333334,-2.778550833333333
1413393888260760500,0.02722713633111154,0.023038346126325153,0.08936085770210968,9.308145291666667,-0.024516625,-2.999200458333333
1413393888265760500,0.0153588974175501,0.023038346126325153,0.07888888219014369,9.373522958333332,0.24516625,-3.138128
1413393888270760500,-0.013264502315156905,0.01815142422074103,0.048869219055841226,9.479761666666667,0.24516625,-3.1054391666666663
1413393888275760500,-0.02234021442552742,0.03700098014227979,0.05515240436302082,9.349006333333334,0.17978858333333333,-3.0564059166666664
1413393888280760500,-0.02234021442552742,0.048869219055841226,0.06283185307179587,8.997601374999999,-0.22882183333333334,-2.672312125
1413393888285760500,-0.006981317007977318,0.021642082724729686,0.09075712110370514,8.989429166666666,-0.5148491249999999,-2.680484333333333
1413393888290760500,0.009075712110370514,0.009773843811168246,0.0991347015132779,9.46341725,0.20430520833333332,-3.0318892916666664
1413393888295760500,0.0041887902047863905,0.02024581932313422,0.08726646259971647,9.242767624999999,0.2778550833333333,-2.9174783749999995
1413393888300760500,-0.012566370614359173,0.011868238913561441,0.07120943348136866,9.618689208333333,-0.0980665,-3.317916583333333
1413393888305760500,-0.010471975511965976,0.016057029118347832,0.07819075048934597,9.635033625,-0.0980665,-3.023717083333333
1413393888310760500,0.003490658503988659,0.041189770347066175,0.07120943348136866,9.7085835,-0.7028099166666667,-3.023717083333333
1413393888315760500,0.033510321638291124,0.04468042885105484,0.09983283321407566,9.16921775,-0.5557101666666666,-2.7376897916666665
1413393888320760500,0.05235987755982988,0.006981317007977318,0.114493598930828,9.357178541666666,-0.0980665,-2.974683833333333
1413393888325760500,0.020943951023931952,0.0307177948351002,0.0942477796076938,9.757616749999999,0.6864655000000001,-3.211677875
1413393888330760500,-0.033510321638291124,0.023038346126325153,0.06562437987498679,9.275456458333332,0.8907707083333333,-3.138128
1413393888335760500,-0.05166174585903216,0.023736477827122883,0.06422811647339133,9.381695166666667,0.14709974999999997,-3.113611375
1413393888340760500,-0.05585053606381855,0.041887902047863905,0.048869219055841226,9.357178541666666,-0.48216029166666663,-2.705000958333333
1413393888345760500,-0.01815142422074103,0.008377580409572781,0.07958701389094143,8.948568125,-0.7518431666666666,-2.8847895416666667
1413393888350760500,0.03839724354387525,0.016057029118347832,0.11519173063162574,9.316317499999998,-0.4004382083333333,-2.9011339583333333
1413393888355760500,0.046076692252650306,0.009773843811168246,0.1096066770252439,9.332661916666666,0.2778550833333333,-3.113611375
1413393888360760500,0.014660765716752367,0.023038346126325153,0.08656833089891874,9.536967125,0.44129925,-3.1054391666666663
1413393888365760500,-0.010471975511965976,0.027925268031909273,0.07190756518216637,9.651378041666666,-0.04903325,-3.2280222916666665
1413393888370760500,-0.011868238913561441,0.04677482395344803,0.050963614158234416,9.545139333333333,-0.3023717083333333,-2.8684451249999996
1413393888375760500,0.011868238913561441,0.039793506945470715,0.08168140899333462,8.9240515,-0.024516625,-2.7213453750000003
1413393888380760500,0.006283185307179587,0.03420845333908886,0.08098327729253688,9.26728425,0.367749375,-3.2035056666666666
1413393888385760500,-0.033510321638291124,0.050963614158234416,0.06981317007977318,9.201906583333333,0.44129925,-3.0809225416666663
1413393888390760500,-0.05445427266222308,0.029321531433504733,0.07260569688296412,9.349006333333334,0.16344416666666667,-3.1544724166666662
1413393888395760500,-0.05026548245743669,0.04328416544945937,0.06073745796940267,9.316317499999998,-0.8662540833333333,-2.6477955
1413393888400760500,-0.004886921905584123,0.030019663134302467,0.0767944870877505,8.629852,-0.8580818749999999,-2.623278875
1413393888405760500,0.04677482395344803,-0.0020943951023931952,0.09145525280450287,9.275456458333332,-0.6864655000000001,-2.9338227916666666
1413393888410760500,0.05235987755982988,-0.0013962634015954637,0.07609635538695278,9.291800875,0.07354987499999999,-2.9501672083333332
1413393888415760500,0.03700098014227979,0.0013962634015954637,0.07260569688296412,9.594172583333334,0.2533384583333333,-3.0564059166666664
1413393888420760500,0.005585053606381855,0.0027925268031909274,0.08517206749732328,9.635033625,0.5066769166666666,-2.9338227916666666
1413393888425760500,-0.016057029118347832,0.016755160819145562,0.09634217471008698,9.340834124999999,0.45764366666666667,-2.8357562916666668
1413393888430760500,-0.046076692252650306,0.004886921905584123,0.08656833089891874,9.079323458333333,0.5148491249999999,-2.9501672083333332
1413393888435760500,-0.06283185307179587,0.008377580409572781,0.07609635538695278,9.765788958333333,-0.35140495833333335,-3.1217835833333334
1413393888440760500,-0.05305800926062762,0.01815142422074103,0.050963614158234416,9.152873333333332,-0.6047434166666666,-2.8602729166666667
1413393888445760500,0.006981317007977318,0.013264502315156905,0.08936085770210968,9.602344791666665,-0.8989429166666666,-2.982856041666666
1413393888450760500,0.04328416544945937,0.03769911184307752,0.09075712110370514,9.259112041666667,-0.11441091666666667,-2.9583394166666666
1413393888455760500,0.05585053606381855,0.030019663134302467,0.1075122819228507,9.242767624999999,0.20430520833333332,-3.0400614999999998
1413393888460760500,0.024434609527920613,0.0439822971502571,0.060039326268604934,9.201906583333333,0.15527195833333335,-3.0890947499999997
1413393888465760500,0.01117010721276371,0.014660765716752367,0.08237954069413235,9.406211791666665,0.3759215833333333,-3.1463002083333333
1413393888470760500,0.003490658503988659,0.028623399732707,0.08866272600131193,9.447072833333333,0.18796079166666665,-3.0318892916666664
1413393888475760500,-0.021642082724729686,0.027925268031909273,0.09215338450530061,8.638024208333333,0.4903325,-2.8847895416666667
1413393888480760500,-0.04817108735504349,0.006283185307179587,0.08936085770210968,9.373522958333332,-0.016344416666666667,-3.1054391666666663
1413393888485760500,-0.05794493116621174,0.00767944870877505,0.056548667764616284,9.234595416666666,-0.5148491249999999,-3.1054391666666663
1413393888490760500,-0.003490658503988659,-0.0020943951023931952,0.08237954069413235,9.569655958333334,-0.661948875,-2.8766173333333334
1413393888495760500,0.023038346126325153,0.011868238913561441,0.08028514559173915,9.986438583333333,-0.5883989999999999,-3.3260887916666664
1413393888500760500,0.0307177948351002,0.05235987755982988,0.07749261878854824,8.883190458333333,0.04903325,-2.631451083333333
1413393888505760500,0.013962634015954637,0.02234021442552742,0.06981317007977318,9.659550249999999,-0.08172208333333333,-3.211677875
1413393888510760500,0.009075712110370514,0.041887902047863905,0.07749261878854824,9.610517,-0.04086104166666667,-3.138128
1413393888515760500,0.028623399732707,0.029321531433504733,0.1117010721276371,9.569655958333334,0.21247741666666667,-3.0400614999999998
1413393888520760500,0.003490658503988659,0.09005898940290741,0.10332349171806432,9.26728425,0.465815875,-3.195333458333333
1413393888525760500,-0.029321531433504733,0.05445427266222308,0.09983283321407566,8.7279185,0.2533384583333333,-2.5905900416666663
1413393888530760500,-0.05305800926062762,0.030019663134302467,0.0614355896702004,9.46341725,-0.26151066666666667,-3.4078108749999996
1413393888535760500,-0.023038346126325153,0.056548667764616284,0.07120943348136866,9.193734375,-0.5066769166666666,-2.7622064166666664
1413393888540760500,0.013962634015954637,0.02722713633111154,0.08517206749732328,9.112012291666666,-0.6456044583333332,-2.99102825
1413393888545760500,0.02722713633111154,0.04258603374866164,0.0767944870877505,8.605335375,-0.21247741666666667,-2.5415567916666664
1413393888550760500,0.01815142422074103,-0.006981317007977318,0.05375614096142535,8.654368624999998,-0.17978858333333333,-2.557901208333333
1413393888555760500,0.01884955592153876,-0.011868238913561441,0.056548667764616284,9.9047165,0.14709974999999997,-3.342433208333333
1413393888560760500,0.016755160819145562,0.025132741228718346,0.07330382858376185,9.5124505,0.6047434166666666,-3.162644625
1413393888565760500,-0.0013962634015954637,0.032812189937493394,0.1096066770252439,9.152873333333332,0.43312704166666666,-2.6477955
1413393888570760500,-0.03560471674068433,0.04258603374866164,0.08237954069413235,9.095667875,-0.024516625,-2.6641399166666666
1413393888575760500,-0.031415926535897934,-0.005585053606381855,0.07260569688296412,9.447072833333333,-0.3759215833333333,-2.9174783749999995
1413393888580760500,-0.005585053606381855,0.024434609527920613,0.08168140899333462,9.822994416666667,-0.465815875,-3.1463002083333333
1413393888585760500,0.009075712110370514,0.01884955592153876,0.10890854532444616,9.594172583333334,-0.057205458333333334,-2.7867230416666664
1413393888590760500,0.008377580409572781,0.0307177948351002,0.09773843811168245,9.643205833333333,-0.17161637500000002,-3.0073726666666665
1413393888595760500,-0.0020943951023931952,0.02652900463031381,0.0635299847725936,9.438900625,-0.5230213333333333,-2.631451083333333
1413393888600760500,0.013962634015954637,0.02583087292951608,0.04956735075663895,9.643205833333333,-0.3759215833333333,-3.1544724166666662
1413393888605760500,0.028623399732707,0.01117010721276371,0.06771877497737998,9.667722458333333,0.0,-2.631451083333333
1413393888610760500,0.010471975511965976,0.02583087292951608,0.07819075048934597,9.618689208333333,-0.008172208333333333,-2.7622064166666664
1413393888615760500,-0.011868238913561441,0.05515240436302082,0.07120943348136866,9.07115125,0.08989429166666667,-2.574245625
1413393888620760500,-0.017453292519943295,0.013264502315156905,0.08726646259971647,9.16921775,0.04086104166666667,-3.1463002083333333
1413393888625760500,-0.006981317007977318,0.023736477827122883,0.114493598930828,9.553311541666666,0.269682875,-3.342433208333333
1413393888630760500,-0.01815142422074103,0.02583087292951608,0.11588986233242347,9.316317499999998,-0.08989429166666667,-3.1054391666666663
1413393888635760500,-0.02024581932313422,0.03839724354387525,0.08168140899333462,9.103840083333333,-0.3023717083333333,-2.941995
1413393888640760500,0.016057029118347832,0.0,0.08168140899333462,8.989429166666666,-0.5475379583333333,-2.754034208333333
1413393888645760500,0.03490658503988659,0.008377580409572781,0.08656833089891874,9.577828166666666,0.06537766666666667,-3.1544724166666662
1413393888650760500,0.009773843811168246,0.0307177948351002,0.07609635538695278,9.291800875,0.24516625,-2.99102825
1413393888655760500,-0.016755160819145562,0.06213372137099814,0.05166174585903216,9.389867375,-0.016344416666666667,-3.2443667083333327
1413393888660760500,0.0027925268031909274,0.0027925268031909274,0.06981317007977318,8.401030166666667,-0.032688833333333334,-2.3862848333333333
1413393888665760500,0.012566370614359173,0.025132741228718346,0.09843656981248018,9.765788958333333,0.4004382083333333,-3.1544724166666662
1413393888670760500,-0.01884955592153876,0.07051130178057091,0.06911503837897544,9.381695166666667,-0.196133,-3.0809225416666663
1413393888675760500,-0.02234021442552742,0.023038346126325153,0.08028514559173915,8.605335375,-0.6210878333333334,-2.5252123749999997
1413393888680760500,0.024434609527920613,0.016057029118347832,0.09634217471008698,9.496106083333332,-0.392266,-3.0645781249999997
1413393888685760500,0.006981317007977318,0.0153588974175501,0.09773843811168245,9.234595416666666,0.563882375,-3.138128
1413393888690760500,-0.032114058236695664,0.04049163864626844,0.05445427266222308,9.635033625,-0.21247741666666667,-3.2035056666666666
1413393888695760500,-0.009773843811168246,-0.017453292519943295,0.05864306286700947,8.588990958333333,-0.563882375,-2.4434902916666665
1413393888700760500,0.02583087292951608,0.023736477827122883,0.06492624817418906,9.855683249999998,-0.122583125,-2.982856041666666
1413393888705760500,0.006981317007977318,0.016755160819145562,0.07539822368615504,9.528794916666666,0.5148491249999999,-3.3996386666666667
1413393888710760500,-0.027925268031909273,0.02722713633111154,0.05445427266222308,9.087495666666666,-0.3023717083333333,-2.5252123749999997
1413393888715760500,0.013962634015954637,-0.0020943951023931952,0.09075712110370514,9.749444541666666,-0.83356525,-2.9011339583333333
1413393888720760500,0.03420845333908886,0.011868238913561441,0.114493598930828,9.414383999999998,0.6537766666666667,-3.4241552916666667
1413393888725760500,-0.009773843811168246,0.06283185307179587,0.08447393579652555,9.994610791666668,0.26151066666666667,-2.982856041666666
1413393888730760500,-0.029321531433504733,0.0307177948351002,0.09075712110370514,9.185562166666665,-0.7028099166666667,-3.023717083333333
1413393888735760500,0.012566370614359173,0.04468042885105484,0.10332349171806432,8.850501625,0.08989429166666667,-2.4925235416666665
1413393888740760500,0.003490658503988659,0.057246799465414,0.10262536001726656,10.484943291666665,0.22882183333333334,-3.6693215416666662
1413393888745760500,-0.023038346126325153,0.048869219055841226,0.056548667764616284,8.401030166666667,-0.416782625,-2.3862848333333333
1413393888750760500,0.0041887902047863905,0.013962634015954637,0.06213372137099814,8.736090708333332,-0.32688833333333334,-2.672312125
1413393888755760500,0.03630284844148206,0.041189770347066175,0.10890854532444616,10.460426666666667,0.367749375,-3.6448049166666663
1413393888760760500,-0.009773843811168246,0.08028514559173915,0.060039326268604934,8.425546791666665,-0.057205458333333334,-2.557901208333333
1413393888765760500,-0.014660765716752367,-0.009075712110370514,0.03490658503988659,8.915879291666666,-0.5230213333333333,-2.59876225
1413393888770760500,0.0153588974175501,0.012566370614359173,0.09773843811168245,9.814822208333332,0.53936575,-3.6366327083333334
1413393888775760500,-0.00767944870877505,0.07819075048934597,0.07051130178057091,8.499096666666667,-0.2778550833333333,-2.7867230416666664
1413393888780760500,-0.03839724354387525,0.017453292519943295,0.023736477827122883,8.7279185,-0.5883989999999999,-2.5415567916666664
1413393888785760500,0.009773843811168246,0.01117010721276371,0.1054178868204575,9.888372083333332,0.40861041666666664,-3.4813607499999994
1413393888790760500,0.011868238913561441,0.07190756518216637,0.11100294042683936,8.948568125,-0.29419949999999995,-2.778550833333333
1413393888795760500,-0.005585053606381855,0.010471975511965976,0.0635299847725936,8.809640583333332,-0.784532,-2.378112625
1413393888800760500,0.01815142422074103,-0.033510321638291124,0.09634217471008698,8.940395916666665,0.5311935416666667,-2.999200458333333
1413393888805760500,0.012566370614359173,0.010471975511965976,0.1165879940332212,9.822994416666667,0.53936575,-3.2525389166666665
1413393888810760500,-0.02583087292951608,0.013264502315156905,0.06283185307179587,9.569655958333334,-0.8580818749999999,-2.7458620000000002
1413393888815760500,-0.016755160819145562,-0.027925268031909273,0.05026548245743669,8.703401874999999,-0.220649625,-2.811239666666667
1413393888820760500,0.008377580409572781,0.01117010721276371,0.09285151620609833,10.337843541666667,0.43312704166666666,-3.4731885416666666
1413393888825760500,-0.009773843811168246,0.03560471674068433,0.09983283321407566,9.7085835,-0.3840937916666667,-2.6641399166666666
1413393888830760500,-0.01117010721276371,-0.009075712110370514,0.048869219055841226,8.507268875,-0.3759215833333333,-2.8684451249999996
1413393888835760500,0.0307177948351002,-0.0027925268031909274,0.1165879940332212,10.280638083333333,0.318716125,-3.2852277500000002
1413393888840760500,0.003490658503988659,0.05794493116621174,0.10821041362364843,9.80665,-0.122583125,-3.3506054166666663
1413393888845760500,-0.011868238913561441,0.02234021442552742,0.06213372137099814,7.984247541666667,-0.07354987499999999,-2.427145875
1413393888850760500,0.016755160819145562,0.01117010721276371,0.1117010721276371,9.855683249999998,0.40861041666666664,-3.334261
1413393888855760500,-0.0013962634015954637,0.06562437987498679,0.09145525280450287,9.765788958333333,0.04086104166666667,-3.211677875
1413393888860760500,-0.02652900463031381,0.03700098014227979,0.014660765716752367,7.730909083333333,-0.20430520833333332,-2.3290793749999996
1413393888865760500,-0.0020943951023931952,-0.017453292519943295,0.08028514559173915,9.978266375,0.4985047083333333,-3.334261
1413393888870760500,-0.00767944870877505,0.04328416544945937,0.08517206749732328,9.659550249999999,0.0980665,-3.195333458333333
1413393888875760500,-0.024434609527920613,0.04956735075663895,0.032114058236695664,8.539957708333333,-0.465815875,-2.3699404166666667
1413393888880760500,0.0041887902047863905,-0.013962634015954637,0.08656833089891874,9.438900625,0.14709974999999997,-3.1299557916666663
1413393888885760500,0.023736477827122883,0.02234021442552742,0.11728612573401893,9.798477791666667,-0.29419949999999995,-3.178989041666666
1413393888890760500,-0.0013962634015954637,0.048869219055841226,0.0614355896702004,8.687057458333333,-0.661948875,-2.214668458333333
1413393888895760500,0.005585053606381855,0.005585053606381855,0.08726646259971647,10.272465875,0.3840937916666667,-3.563082833333333
1413393888900760500,0.0041887902047863905,0.03700098014227979,0.11868238913561441,9.724927916666667,0.11441091666666667,-3.18716125
1413393888905760500,-0.03700098014227979,0.060039326268604934,0.04468042885105484,9.471589458333332,-0.784532,-3.0890947499999997
1413393888910760500,-0.030019663134302467,0.030019663134302467,0.03700098014227979,9.406211791666665,0.04086104166666667,-3.1054391666666663
1413393888915760500,0.006283185307179587,0.013264502315156905,0.1054178868204575,9.07115125,-0.08172208333333333,-2.9093061666666666
1413393888920760500,-0.006283185307179587,0.04677482395344803,0.057246799465414,9.921060916666667,-1.299381125,-3.0318892916666664
1413393888925760500,0.0,0.029321531433504733,0.03630284844148206,8.956740333333332,0.14709974999999997,-3.317916583333333
1413393888930760500,0.03769911184307752,0.016755160819145562,0.13753194505715316,8.711574083333332,0.5148491249999999,-2.69682875
1413393888935760500,0.010471975511965976,0.02652900463031381,0.09704030641088471,10.076332875,-0.8662540833333333,-2.7867230416666664
1413393888940760500,-0.009075712110370514,0.03630284844148206,0.0614355896702004,9.447072833333333,0.2860272916666666,-2.9583394166666666
1413393888945760500,0.03560471674068433,0.008377580409572781,0.153588974175501,9.479761666666667,0.07354987499999999,-2.8684451249999996
1413393888950760500,-0.013962634015954637,0.02234021442552742,0.08307767239493008,9.569655958333334,-0.3350605416666666,-3.18716125
1413393888955760500,-0.028623399732707,0.04817108735504349,0.06562437987498679,9.005773583333333,0.83356525,-2.8439284999999996
1413393888960760500,0.003490658503988659,0.0027925268031909274,0.1556833692778942,10.059988458333333,-0.21247741666666667,-3.268883333333333
1413393888965760500,-0.030019663134302467,0.06771877497737998,0.06911503837897544,9.822994416666667,-0.7927042083333332,-3.358777625
1413393888970760500,-0.016755160819145562,0.08587019919812101,0.06771877497737998,8.662540833333333,0.318716125,-2.59876225
1413393888975760500,0.03700098014227979,0.04537856055185257,0.13264502315156904,9.561483749999999,-0.6782932916666666,-2.5905900416666663
1413393888980760500,0.013962634015954637,0.05585053606381855,0.05375614096142535,9.210078791666666,-0.8008764166666666,-2.9338227916666666
1413393888985760500,0.021642082724729686,0.048869219055841226,0.056548667764616284,8.956740333333332,0.5066769166666666,-2.631451083333333
1413393888990760500,0.039095375244672985,0.024434609527920613,0.10192722831646883,10.035471833333334,0.016344416666666667,-3.268883333333333
1413393888995760500,-0.005585053606381855,0.08168140899333462,0.02652900463031381,8.9240515,0.5475379583333333,-3.1299557916666663
1413393889000760500,-0.017453292519943295,0.03769911184307752,0.09843656981248018,8.433719,0.6946377083333333,-2.4925235416666665
1413393889005760500,-0.032812189937493394,0.03560471674068433,0.07190756518216637,9.986438583333333,0.032688833333333334,-3.587599458333333
1413393889010760500,-0.05445427266222308,0.07539822368615504,0.04468042885105484,7.992419749999999,0.122583125,-2.69682875
1413393889015760500,-0.01884955592153876,-0.013264502315156905,0.0991347015132779,8.752435125,-0.392266,-2.4516625
1413393889020760500,-0.0153588974175501,0.024434609527920613,0.07609635538695278,9.520622708333333,-0.6946377083333333,-3.342433208333333
1413393889025760500,0.0006981317007977319,0.008377580409572781,0.07958701389094143,8.213069375,-0.22882183333333334,-2.3862848333333333
1413393889030760500,0.03420845333908886,-0.039095375244672985,0.10262536001726656,10.133538333333334,-0.7028099166666667,-2.974683833333333
1413393889035760500,0.027925268031909273,0.050963614158234416,0.04956735075663895,9.7085835,-0.44129925,-2.9174783749999995
1413393889040760500,0.03839724354387525,-0.011868238913561441,0.07539822368615504,8.981256958333333,0.32688833333333334,-2.263701708333333
1413393889045760500,0.009773843811168246,-0.01117010721276371,0.059341194567807204,11.040653458333331,0.17161637500000002,-3.7837324583333327
1413393889050760500,-0.030019663134302467,0.11588986233242347,0.023736477827122883,8.621679791666667,0.24516625,-2.729517583333333
1413393889055760500,-0.025132741228718346,0.009075712110370514,0.06981317007977318,9.455245041666666,-0.08172208333333333,-2.803067458333333
1413393889060760500,-0.032114058236695664,0.08237954069413235,0.0635299847725936,10.158054958333333,-0.057205458333333334,-3.317916583333333
1413393889065760500,-0.02234021442552742,0.041189770347066175,0.10332349171806432,8.082314041666667,0.016344416666666667,-1.9531577916666665
1413393889070760500,-0.005585053606381855,-0.032812189937493394,0.1165879940332212,9.872027666666666,-0.7191543333333333,-3.0400614999999998
1413393889075760500,0.010471975511965976,0.05166174585903216,0.1054178868204575,9.16921775,-0.5230213333333333,-3.2280222916666665
1413393889080760500,0.03839724354387525,-0.005585053606381855,0.13055062804917586,8.768779541666666,-0.16344416666666667,-2.852100708333333
1413393889085760500,0.031415926535897934,-0.00767944870877505,0.10611601852125524,10.34601575,-0.024516625,-3.1054391666666663
1413393889090760500,0.029321531433504733,0.046076692252650306,0.09983283321407566,8.744262916666667,0.07354987499999999,-2.7703786249999998
1413393889095760500,0.024434609527920613,-0.012566370614359173,0.09773843811168245,9.961921958333333,0.10623870833333333,-3.113611375
1413393889100760500,-0.006981317007977318,0.0153588974175501,0.0635299847725936,10.051816249999998,0.44129925,-3.178989041666666
1413393889105760500,-0.02024581932313422,0.023736477827122883,0.06981317007977318,9.822994416666667,0.5720545833333333,-2.9174783749999995
1413393889110760500,-0.04328416544945937,0.03420845333908886,0.05235987755982988,10.321499124999999,-0.016344416666666667,-2.8929617499999996
1413393889115760500,-0.014660765716752367,0.08168140899333462,0.10053096491487339,9.250939833333334,-0.196133,-3.505877375
1413393889120760500,-0.0006981317007977319,0.10611601852125524,0.11379546723003027,9.381695166666667,-0.73549875,-2.811239666666667
1413393889125760500,0.009075712110370514,0.09494591130849153,0.1075122819228507,8.548129916666667,-0.5148491249999999,-2.8602729166666667
1413393889130760500,0.041887902047863905,0.08587019919812101,0.1228711793404008,8.507268875,0.2860272916666666,-3.0400614999999998
1413393889135760500,0.019547687622336492,0.009773843811168246,0.10471975511965977,9.389867375,0.0980665,-2.3372515833333334
1413393889140760500,0.0,0.012566370614359173,0.09354964790689606,8.450063416666666,0.35957716666666667,-3.530394
1413393889145760500,-0.023736477827122883,-0.005585053606381855,0.07330382858376185,8.760607333333333,-0.024516625,-2.476179125
1413393889150760500,-0.032114058236695664,-0.03630284844148206,0.04328416544945937,9.226423208333333,-0.10623870833333333,-3.358777625
1413393889155760500,0.003490658503988659,-0.025132741228718346,0.07330382858376185,9.46341725,-0.32688833333333334,-3.1217835833333334
1413393889160760500,-0.008377580409572781,-0.02024581932313422,0.03560471674068433,10.076332875,-0.032688833333333334,-2.8602729166666667
1413393889165760500,0.01815142422074103,0.04049163864626844,0.07888888219014369,9.536967125,0.9398039583333333,-3.2035056666666666
1413393889170760500,-0.0006981317007977319,0.06283185307179587,0.06422811647339133,9.504278291666665,-0.024516625,-2.4680069166666665
1413393889175760500,-0.0020943951023931952,0.0439822971502571,0.09843656981248018,8.539957708333333,0.7927042083333332,-3.0400614999999998
1413393889180760500,-0.0027925268031909274,0.10192722831646883,0.10821041362364843,10.574837583333332,-0.5066769166666666,-3.6121160833333334
1413393889185760500,-0.016057029118347832,0.05166174585903216,0.0767944870877505,8.196724958333332,-0.563882375,-1.4383086666666667
1413393889190760500,0.03490658503988659,-0.004886921905584123,0.12636183784438945,9.569655958333334,-0.5802267916666666,-3.8899711666666663
1413393889195760500,0.019547687622336492,0.048869219055841226,0.05794493116621174,9.479761666666667,-0.9643205833333333,-2.3290793749999996
1413393889200760500,0.02024581932313422,-0.0879645943005142,0.09354964790689606,7.763597916666666,0.6537766666666667,-2.974683833333333
1413393889205760500,-0.00767944870877505,0.01815142422074103,0.05305800926062762,11.236786458333333,-0.416782625,-2.966511625
1413393889210760500,-0.039793506945470715,-0.013264502315156905,0.04817108735504349,8.139519499999999,0.7191543333333333,-2.20649625
1413393889215760500,-0.005585053606381855,0.03560471674068433,0.0879645943005142,12.250140291666666,-0.8907707083333333,-4.126965208333333
1413393889220760500,-0.020943951023931952,0.05305800926062762,0.05026548245743669,8.87501825,-0.0980665,-1.61809725
1413393889225760500,0.028623399732707,0.024434609527920613,0.10681415022205297,10.820003833333333,-0.08989429166666667,-4.878808374999999
1413393889230760500,0.0013962634015954637,0.15847589608108512,0.019547687622336492,9.455245041666666,-0.48216029166666663,-2.3045627499999997
1413393889235760500,0.017453292519943295,0.01884955592153876,0.11100294042683936,8.302963666666667,0.8417374583333332,-3.4568441249999995
1413393889240760500,-0.005585053606381855,0.15079644737231007,0.04677482395344803,9.659550249999999,-1.0787315,-2.9093061666666666
1413393889245760500,0.0020943951023931952,-0.010471975511965976,0.09983283321407566,6.407011333333333,0.8499096666666667,-1.6426138750000001
1413393889250760500,0.011868238913561441,0.03420845333908886,0.10053096491487339,10.574837583333332,-0.8008764166666666,-3.358777625
1413393889255760500,0.008377580409572781,-0.0307177948351002,0.10402162341886204,7.191543333333333,0.5557101666666666,-1.299381125
1413393889260760500,0.03700098014227979,-0.08028514559173915,0.14521139376592823,10.182571583333333,-0.8008764166666666,-4.519231208333333
1413393889265760500,0.006981317007977318,0.023736477827122883,0.0747000919853573,7.763597916666666,0.5720545833333333,-1.4628252916666666
1413393889270760500,0.02234021442552742,-0.05305800926062762,0.1165879940332212,10.574837583333332,0.0980665,-4.592781083333333
1413393889275760500,-0.048869219055841226,0.06492624817418906,-0.0013962634015954637,9.046634625,0.016344416666666667,-2.0757409166666667
1413393889280760500,-0.00767944870877505,-0.021642082724729686,0.11239920382843484,9.283628666666665,0.4739880833333333,-3.4568441249999995
1413393889285760500,-0.023736477827122883,0.08307767239493008,0.020943951023931952,9.569655958333334,-1.0869037083333333,-2.574245625
1413393889290760500,0.02583087292951608,-0.02583087292951608,0.09983283321407566,7.665531416666666,0.122583125,-2.3617682083333333
1413393889295760500,0.041887902047863905,0.024434609527920613,0.03769911184307752,9.7085835,-0.83356525,-2.852100708333333
1413393889300760500,0.04817108735504349,-0.05515240436302082,0.08447393579652555,8.613507583333332,0.7927042083333332,-2.59876225
1413393889305760500,0.014660765716752367,-0.0307177948351002,0.04328416544945937,9.675894666666666,0.2778550833333333,-3.3751220416666667
1413393889310760500,-0.00767944870877505,-0.05305800926062762,0.10192722831646883,8.343824708333333,0.5883989999999999,-2.3372515833333334
1413393889315760500,-0.027925268031909273,-0.05864306286700947,0.08656833089891874,9.961921958333333,-0.465815875,-3.260711125
1413393889320760500,-0.033510321638291124,-0.041189770347066175,0.07888888219014369,10.337843541666667,-0.44129925,-3.563082833333333
1413393889325760500,-0.009075712110370514,-0.03630284844148206,0.08656833089891874,8.507268875,0.04086104166666667,-2.582417833333333
1413393889330760500,0.004886921905584123,-0.016057029118347832,0.07330382858376185,9.872027666666666,-0.8825985,-3.8245934999999998
1413393889335760500,0.0027925268031909274,-0.012566370614359173,0.07330382858376185,7.984247541666667,0.784532,-1.9695022083333333
1413393889340760500,0.006283185307179587,-0.09634217471008698,0.11519173063162574,10.109021708333332,-0.057205458333333334,-4.053415333333333
1413393889345760500,-0.0153588974175501,0.0006981317007977319,0.09494591130849153,9.242767624999999,0.44129925,-2.7948952499999997
1413393889350760500,-0.008377580409572781,-0.06422811647339133,0.11938052083641214,9.144701125,-0.5148491249999999,-3.546738416666667
1413393889355760500,-0.014660765716752367,-0.04817108735504349,0.08517206749732328,9.839338833333333,-0.07354987499999999,-2.655967708333333
1413393889360760500,0.00767944870877505,-0.047472955654245766,0.09494591130849153,10.198916,-0.18796079166666665,-3.6856659583333333
1413393889365760500,-0.0153588974175501,0.009075712110370514,0.041887902047863905,9.692239083333332,-0.4903325,-2.0185354583333335
1413393889370760500,0.016057029118347832,-0.041189770347066175,0.09983283321407566,8.376513541666666,0.16344416666666667,-3.4650163333333333
1413393889375760500,-0.011868238913561441,-0.02652900463031381,0.07330382858376185,8.351996916666666,-0.2533384583333333,-2.4516625
1413393889380760500,0.003490658503988659,-0.06841690667817772,0.14800392056911915,9.536967125,0.83356525,-3.930832208333333
1413393889385760500,-0.027925268031909273,-0.020943951023931952,0.12007865253720987,9.643205833333333,-0.6537766666666667,-3.162644625
1413393889390760500,0.0020943951023931952,-0.03560471674068433,0.15219271077390556,10.035471833333334,0.22882183333333334,-3.268883333333333
1413393889395760500,-0.0013962634015954637,0.0041887902047863905,0.09704030641088471,8.744262916666667,-1.2748645,-2.982856041666666
1413393889400760500,0.019547687622336492,-0.06702064327658225,0.09075712110370514,8.997601374999999,0.367749375,-3.514049583333333
1413393889405760500,0.008377580409572781,-0.03560471674068433,0.05375614096142535,9.161045541666667,-0.26151066666666667,-2.680484333333333
1413393889410760500,0.004886921905584123,-0.08936085770210968,0.09285151620609833,9.978266375,0.3105439166666667,-3.6121160833333334
1413393889415760500,-0.016755160819145562,0.016057029118347832,0.09704030641088471,9.349006333333334,0.07354987499999999,-2.999200458333333
1413393889420760500,-0.01117010721276371,-0.028623399732707,0.1445132620651305,8.989429166666666,-0.04903325,-2.9338227916666666
1413393889425760500,-0.0027925268031909274,0.028623399732707,0.14800392056911915,9.210078791666666,-0.367749375,-2.8847895416666667
1413393889430760500,0.0153588974175501,0.009075712110370514,0.143116998663535,9.872027666666666,-0.3840937916666667,-3.67749375
1413393889435760500,-0.014660765716752367,0.04049163864626844,0.056548667764616284,8.605335375,0.22882183333333334,-3.317916583333333
1413393889440760500,-0.04468042885105484,-0.032114058236695664,0.02652900463031381,8.539957708333333,-0.008172208333333333,-2.999200458333333
1413393889445760500,-0.057246799465414,-0.02234021442552742,0.02024581932313422,8.817812791666666,0.4903325,-2.69682875
1413393889450760500,-0.05585053606381855,-0.07120943348136866,0.027925268031909273,8.351996916666666,-1.201314625,-2.2555295
1413393889455760500,-0.05026548245743669,-0.12775810124598494,0.05166174585903216,8.866846041666665,0.2533384583333333,-2.827584083333333
1413393889460760500,-0.008377580409572781,-0.15707963267948966,0.09285151620609833,8.760607333333333,-0.7600153749999999,-1.5363751666666667
1413393889465760500,-0.019547687622336492,-0.1556833692778942,0.09005898940290741,10.550320958333334,-0.10623870833333333,-4.478370166666666
1413393889470760500,0.00767944870877505,-0.0991347015132779,0.12566370614359174,9.332661916666666,0.0980665,-2.476179125
1413393889475760500,-0.029321531433504733,-0.12147491593880534,0.1165879940332212,9.765788958333333,0.3350605416666666,-4.592781083333333
1413393889480760500,-0.006283185307179587,-0.02024581932313422,0.15638150097869194,9.177389958333332,0.367749375,-2.5006957499999998
1413393889485760500,-0.039095375244672985,-0.08098327729253688,0.13334315485236678,10.354187958333334,-0.5148491249999999,-4.437509125
1413393889490760500,0.0041887902047863905,0.03560471674068433,0.11100294042683936,10.362360166666665,-0.40861041666666664,-2.6886565416666666
1413393889495760500,0.016755160819145562,-0.06213372137099814,0.11309733552923257,8.294791458333332,-0.6946377083333333,-3.92266
1413393889500760500,0.027925268031909273,0.006283185307179587,0.09285151620609833,9.643205833333333,0.220649625,-2.631451083333333
1413393889505760500,0.0027925268031909274,-0.1291543646475804,0.1054178868204575,7.632842583333333,0.563882375,-3.0400614999999998
1413393889510760500,-0.016755160819145562,-0.0991347015132779,0.12845623294678266,11.261303083333333,0.8008764166666666,-3.6284604999999996
1413393889515760500,-0.05445427266222308,-0.18291050560900574,0.08866272600131193,7.077132416666666,0.04086104166666667,-1.9776744166666664
1413393889520760500,-0.023736477827122883,-0.2282890661608583,0.13753194505715316,10.664731875,-0.661948875,-3.800076875
1413393889525760500,-0.023038346126325153,-0.25342180738957665,0.04328416544945937,6.905516041666667,-0.612915625,-2.0267076666666664
1413393889530760500,0.01117010721276371,-0.35046211380046133,0.08447393579652555,10.452254458333334,-0.3023717083333333,-4.2168595
1413393889535760500,-0.013264502315156905,-0.278554548618295,0.017453292519943295,8.253930416666666,0.9071151249999999,-2.0021910416666664
1413393889540760500,-0.027925268031909273,-0.3364994797845067,0.06283185307179587,11.906907541666666,0.6456044583333332,-4.870636166666666
1413393889545760500,-0.08726646259971647,-0.19408061282176942,-0.013962634015954637,8.433719,0.4004382083333333,-1.2585200833333332
1413393889550760500,-0.06632251157578452,-0.28553586562627226,0.12147491593880534,12.103040541666665,-0.367749375,-3.726527
1413393889555760500,-0.04328416544945937,-0.08237954069413235,0.05794493116621174,9.643205833333333,-1.0623870833333333,-2.3290793749999996
1413393889560760500,0.00767944870877505,-0.20315632493213995,0.17034413499464657,10.770970583333334,-0.220649625,-3.8164212916666664
1413393889565760500,0.00767944870877505,-0.08447393579652555,0.08237954069413235,8.760607333333333,0.0,-3.0645781249999997
1413393889570760500,-0.01117010721276371,-0.20525072003453312,0.14800392056911915,10.002782999999999,0.8008764166666666,-3.8491101249999997
1413393889575760500,-0.06632251157578452,-0.17174039839624203,0.057246799465414,8.115002875,0.6537766666666667,-3.693838166666666
1413393889580760500,-0.09145525280450287,-0.28064894372068816,0.09634217471008698,10.2969825,0.3759215833333333,-4.4211647083333325
1413393889585760500,-0.09704030641088471,-0.21013764194011728,0.02234021442552742,7.216059958333333,-0.32688833333333334,-3.0564059166666664
1413393889590760500,-0.05515240436302082,-0.3490658503988659,0.047472955654245766,10.035471833333334,-0.8825985,-4.2168595
1413393889595760500,-0.03839724354387525,-0.29251718263424964,0.005585053606381855,9.438900625,0.057205458333333334,-3.2361945
1413393889600760500,-0.03420845333908886,-0.3274237676741362,0.006283185307179587,10.607526416666667,0.465815875,-4.927841624999999
1413393889605760500,-0.06771877497737998,-0.22479840765686968,-0.019547687622336492,9.912888708333332,1.3402421666666664,-2.680484333333333
1413393889610760500,-0.11728612573401893,-0.2981022362406315,0.014660765716752367,10.705592916666665,0.367749375,-4.568264458333333
1413393889615760500,-0.11100294042683936,-0.1626646862858715,0.039793506945470715,9.716755708333332,0.024516625,-2.582417833333333
1413393889620760500,-0.09145525280450287,-0.25202554398798116,0.04817108735504349,9.945577541666665,-1.2176590416666666,-3.97169325
1413393889625760500,-0.02722713633111154,-0.2115339053417127,0.06492624817418906,9.455245041666666,-0.3840937916666667,-2.8684451249999996
1413393889630760500,-0.016057029118347832,-0.24713862208239704,0.05305800926062762,10.591182,-0.4739880833333333,-4.290409374999999
1413393889635760500,-0.02024581932313422,-0.22619467105846514,0.041887902047863905,8.523613291666665,0.9888372083333332,-2.378112625
1413393889640760500,-0.0879645943005142,-0.3050835532486088,0.0013962634015954637,11.449263875,0.7273265416666667,-4.3721314583333335
1413393889645760500,-0.10471975511965977,-0.2569124658935653,0.02583087292951608,8.450063416666666,1.1849702083333333,-2.10842975
1413393889650760500,-0.16545721308906244,-0.2457423586808016,-0.0747000919853573,12.478962124999999,-0.5720545833333333,-4.519231208333333
1413393889655760500,-0.13264502315156904,-0.30159289474462014,-0.08098327729253688,8.964912541666667,-0.367749375,-3.3260887916666664
1413393889660760500,-0.12636183784438945,-0.17662732030182612,-0.1626646862858715,11.849702083333332,-0.83356525,-3.563082833333333
1413393889665760500,-0.07260569688296412,-0.20804324683772407,-0.11100294042683936,10.599354208333333,-0.3840937916666667,-3.5957716666666664
1413393889670760500,-0.09354964790689606,-0.1291543646475804,-0.15777776438028737,9.757616749999999,0.5475379583333333,-4.666330958333333
1413393889675760500,-0.08237954069413235,-0.16126842288427606,-0.07958701389094143,10.411393416666668,0.612915625,-2.7458620000000002
1413393889680760500,-0.11938052083641214,-0.1075122819228507,-0.06911503837897544,11.277647499999999,0.8172208333333333,-5.4998962083333325
1413393889685760500,-0.1424188669627373,-0.11309733552923257,-0.08377580409572781,9.798477791666667,0.07354987499999999,-2.729517583333333
1413393889690760500,-0.1340412865531645,-0.1117010721276371,-0.07120943348136866,10.901725916666665,-0.32688833333333334,-3.8164212916666664
1413393889695760500,-0.12147491593880534,-0.1445132620651305,-0.08168140899333462,10.149882749999998,-0.35957716666666667,-4.878808374999999
1413393889700760500,-0.07819075048934597,-0.0767944870877505,-0.01117010721276371,8.474580041666666,-0.367749375,-2.3045627499999997
1413393889705760500,-0.0614355896702004,-0.18570303241219666,0.010471975511965976,11.22861425,-0.5720545833333333,-4.151481833333333
1413393889710760500,-0.009773843811168246,-0.1759291886010284,0.08168140899333462,8.115002875,0.34323275000000003,-2.8929617499999996
1413393889715760500,-0.03490658503988659,-0.26529004630313807,0.05375614096142535,10.983448000000001,0.06537766666666667,-4.3312704166666665
1413393889720760500,-0.046076692252650306,-0.25132741228718347,0.033510321638291124,10.591182,1.0378704583333334,-2.9174783749999995
1413393889725760500,-0.11868238913561441,-0.28832839242946323,-0.05375614096142535,12.928433583333332,0.32688833333333334,-5.8513011666666666
1413393889730760500,-0.15707963267948966,-0.2436479635784084,-0.14032447186034408,8.564474333333333,0.8907707083333333,-3.505877375
1413393889735760500,-0.17941984710501704,-0.22759093446006054,-0.20036379812894903,10.6892485,-0.6292600416666666,-3.800076875
1413393889740760500,-0.1494001839707146,-0.21223203704251048,-0.2115339053417127,13.124566583333333,-0.220649625,-3.67749375
1413393889745760500,-0.12147491593880534,-0.08377580409572781,-0.22270401255447644,11.980457416666667,-0.9561483749999999,-3.1463002083333333
1413393889750760500,-0.11030480872604163,-0.12845623294678266,-0.18081611050661253,11.849702083333332,0.367749375,-4.968702666666667
1413393889755760500,-0.11100294042683936,-0.09704030641088471,-0.10332349171806432,9.308145291666667,1.054214875,-3.906315583333333
1413393889760760500,-0.13683381335635544,-0.04537856055185257,-0.10192722831646883,10.672904083333334,0.10623870833333333,-2.7131731666666665
1413393889765760500,-0.11938052083641214,-0.11588986233242347,0.010471975511965976,11.71894675,0.196133,-4.8216029166666665
1413393889770760500,-0.11030480872604163,-0.10332349171806432,-0.00767944870877505,9.357178541666666,-0.7109821249999999,-4.306753791666666
1413393889775760500,-0.05375614096142535,-0.09564404300928926,0.023038346126325153,10.640215249999999,-0.7028099166666667,-2.729517583333333
1413393889780760500,-0.0439822971502571,-0.1270599695451872,-0.04956735075663895,10.885381500000001,-0.45764366666666667,-3.1544724166666662
1413393889785760500,-0.021642082724729686,-0.10122909661567112,-0.056548667764616284,12.993811249999998,0.43312704166666666,-4.502886791666667
1413393889790760500,-0.06771877497737998,-0.06911503837897544,-0.1117010721276371,9.724927916666667,0.5883989999999999,-3.260711125
1413393889795760500,-0.09843656981248018,-0.1075122819228507,-0.09843656981248018,12.201107041666665,0.4985047083333333,-4.404820291666666
1413393889800760500,-0.14102260356114182,-0.09983283321407566,-0.1117010721276371,9.839338833333333,0.93163175,-3.9635210416666666
1413393889805760500,-0.15009831567151233,-0.07260569688296412,-0.12356931104119852,9.659550249999999,-0.45764366666666667,-3.489532958333333
1413393889810760500,-0.13683381335635544,-0.19687313962496036,-0.10053096491487339,9.765788958333333,-0.220649625,-3.530394
1413393889815760500,-0.11588986233242347,-0.17174039839624203,-0.18989182261698306,11.081514499999999,-0.9398039583333333,-3.6529771249999996
1413393889820760500,-0.05864306286700947,-0.16545721308906244,-0.13962634015954636,12.201107041666665,0.016344416666666667,-4.519231208333333
1413393889825760500,-0.09005898940290741,-0.17034413499464657,-0.20245819323134223,9.863855458333333,0.35957716666666667,-4.110620791666666
1413393889830760500,-0.09285151620609833,-0.09145525280450287,-0.1647590813882647,12.331862375,0.8989429166666666,-3.505877375
1413393889835760500,-0.14521139376592823,-0.04677482395344803,-0.1731366617978375,11.490124916666666,0.6292600416666666,-3.6202882916666663
1413393889840760500,-0.15498523757709648,-0.030019663134302467,-0.15498523757709648,12.560684208333331,-0.22882183333333334,-4.985047083333333
1413393889845760500,-0.1494001839707146,-0.023736477827122883,-0.13892820845874865,8.253930416666666,-0.13075533333333333,-3.2525389166666665
1413393889850760500,-0.08377580409572781,0.04677482395344803,-0.13753194505715316,12.094868333333332,-1.3974476249999999,-2.8194118749999997
1413393889855760500,-0.033510321638291124,-0.09704030641088471,-0.10332349171806432,12.773161624999998,-0.392266,-4.75622525
1413393889860760500,-0.029321531433504733,0.008377580409572781,-0.17732545200262387,8.964912541666667,0.5230213333333333,-4.2822371666666665
1413393889865760500,-0.06911503837897544,-0.02583087292951608,-0.143116998663535,10.828176041666667,1.5854084166666664,-4.037070916666667
1413393889870760500,-0.16755160819145562,-0.009773843811168246,-0.20943951023931953,10.730109541666666,1.0869037083333333,-2.966511625
1413393889875760500,-0.20385445663293766,-0.023736477827122883,-0.20455258833373544,12.740472791666665,0.416782625,-4.56009225
1413393889880760500,-0.2017600615305445,0.009075712110370514,-0.2303834612632515,9.136528916666666,-0.7273265416666667,-4.159654041666666
1413393889885760500,-0.12775810124598494,-0.004886921905584123,-0.21642082724729686,10.877209291666667,-1.593580625,-3.881798958333333
1413393889890760500,-0.07260569688296412,0.01815142422074103,-0.2192133540504878,11.048825666666666,-0.5883989999999999,-2.680484333333333
1413393889895760500,-0.05445427266222308,0.059341194567807204,-0.2241002759560719,12.732300583333332,0.024516625,-3.8164212916666664
1413393889900760500,-0.10122909661567112,0.0614355896702004,-0.20734511513692636,10.468598874999998,1.7897136249999999,-4.453853541666667
1413393889905760500,-0.1647590813882647,0.16196655458507375,-0.21223203704251048,10.975275791666666,1.0460426666666667,-3.3996386666666667
1413393889910760500,-0.1884955592153876,0.1556833692778942,-0.1647590813882647,11.825185458333332,-0.11441091666666667,-4.159654041666666
1413393889915760500,-0.18011797880581482,0.20734511513692636,-0.19896753472735357,9.373522958333332,-1.1359369583333332,-2.8684451249999996
1413393889920760500,-0.06771877497737998,0.1759291886010284,-0.16824973989225336,11.473780499999998,-1.8142302499999998,-3.015544875
1413393889925760500,-0.03769911184307752,0.1096066770252439,-0.18919369091618532,10.231604833333332,-0.34323275000000003,-3.7346992083333332
1413393889930760500,-0.029321531433504733,0.16406094968746698,-0.182212373908208,10.34601575,0.7191543333333333,-4.396648083333333
1413393889935760500,-0.10262536001726656,0.10681415022205297,-0.18779742751458986,10.34601575,1.8142302499999998,-3.3015721666666664
1413393889940760500,-0.16336281798666924,0.2241002759560719,-0.1731366617978375,12.168418208333332,0.9234595416666666,-3.514049583333333
1413393889945760500,-0.20036379812894903,0.18919369091618532,-0.1996656664281513,11.473780499999998,0.21247741666666667,-4.208687291666666
1413393889950760500,-0.1626646862858715,0.268082573106329,-0.22200588085367873,9.144701125,-1.6589582916666665,-2.852100708333333
1413393889955760500,-0.0991347015132779,0.2331759880664424,-0.22689280275926282,11.563674791666667,-1.0378704583333334,-3.4813607499999994
1413393889960760500,-0.04956735075663895,0.25761059759436306,-0.22968532956245377,11.146892166666666,-0.5802267916666666,-3.979865458333333
1413393889965760500,-0.07120943348136866,0.24434609527920614,-0.22479840765686968,9.013945791666666,1.3075533333333333,-3.8409379166666664
1413393889970760500,-0.124965574442794,0.20525072003453312,-0.2234021442552742,8.915879291666666,1.5527195833333332,-2.655967708333333
1413393889975760500,-0.17174039839624203,0.26668630970473356,-0.17732545200262387,11.759807791666667,0.17978858333333333,-3.77556025
1413393889980760500,-0.20106192982974677,0.1424188669627373,-0.19757127132575814,9.80665,-0.10623870833333333,-4.233203916666667
1413393889985760500,-0.13334315485236678,0.2827433388230814,-0.15219271077390556,9.855683249999998,-1.5772362083333331,-2.69682875
1413393889990760500,-0.08517206749732328,0.17523105690023066,-0.14521139376592823,11.890563124999998,-1.0296982499999998,-4.298581583333333
1413393889995760500,-0.012566370614359173,0.3309144261781249,-0.10262536001726656,9.275456458333332,-0.5965712083333333,-2.852100708333333
1413393890000760500,-0.032114058236695664,0.23806290997202653,-0.0942477796076938,12.241968083333333,0.6864655000000001,-3.857282333333333
1413393890005760500,-0.04328416544945937,0.3344050846821135,-0.08307767239493008,9.1201845,0.7191543333333333,-2.941995
1413393890010760500,-0.0991347015132779,0.28623399732707,-0.06981317007977318,10.329671333333332,1.0623870833333333,-4.584608875
1413393890015760500,-0.10890854532444616,0.2841396022246769,-0.046076692252650306,8.801468374999999,-0.3023717083333333,-2.966511625
1413393890020760500,-0.09564404300928926,0.289026524130261,0.003490658503988659,10.019127416666667,-0.5557101666666666,-3.742871416666666
1413393890025760500,-0.04817108735504349,0.17941984710501704,0.06771877497737998,8.711574083333332,-0.392266,-2.0757409166666667
1413393890030760500,0.012566370614359173,0.31555552876057474,0.09285151620609833,10.264293666666665,-0.6537766666666667,-3.67749375
1413393890035760500,0.032812189937493394,0.16615534478986016,0.13264502315156904,9.937405333333334,0.3840937916666667,-3.3996386666666667
1413393890040760500,0.02722713633111154,0.3218387140677544,0.12845623294678266,9.831166624999998,0.0980665,-3.178989041666666
1413393890045760500,-0.0006981317007977319,0.15847589608108512,0.17243853009703977,9.487933875,1.2340034583333332,-3.6121160833333334
1413393890050760500,-0.016057029118347832,0.27646015351590175,0.17941984710501704,9.724927916666667,-0.0980665,-2.476179125
1413393890055760500,-0.03630284844148206,0.1445132620651305,0.18430676901060122,9.635033625,0.07354987499999999,-4.16782625
1413393890060760500,-0.0013962634015954637,0.24783675378319478,0.17872171540421936,9.136528916666666,-0.7109821249999999,-2.631451083333333
1413393890065760500,0.030019663134302467,0.1466076571675237,0.1996656664281513,10.484943291666665,-0.8417374583333332,-3.4813607499999994
1413393890070760500,0.0635299847725936,0.22549653935766736,0.18291050560900574,8.801468374999999,-0.06537766666666667,-3.3751220416666667
1413393890075760500,0.08098327729253688,0.1780235837034216,0.25132741228718347,10.166227166666665,0.3759215833333333,-3.530394
1413393890080760500,0.0635299847725936,0.1996656664281513,0.2869321290278678,8.948568125,0.5883989999999999,-3.342433208333333
1413393890085760500,0.031415926535897934,0.24155356847601517,0.3239331091701475,9.079323458333333,0.220649625,-3.342433208333333
1413393890090760500,0.031415926535897934,0.1710422666954443,0.33161255787892263,9.013945791666666,0.016344416666666667,-2.6396232916666666
1413393890095760500,0.046076692252650306,0.2366666465704311,0.30927234345339516,9.912888708333332,-0.7763597916666666,-3.358777625
1413393890100760500,0.06702064327658225,0.18709929581379212,0.2848377339254746,8.744262916666667,-0.2533384583333333,-2.7622064166666664
1413393890105760500,0.06771877497737998,0.24853488548399255,0.2583087292951608,9.291800875,-0.06537766666666667,-2.7703786249999998
1413393890110760500,0.05864306286700947,0.19128808601857852,0.2583087292951608,8.033280791666666,0.367749375,-3.3832942499999996
1413393890115760500,0.039793506945470715,0.2722713633111154,0.2590068609959585,8.97308475,0.48216029166666663,-2.8847895416666667
1413393890120760500,0.03630284844148206,0.19477874452256716,0.3008947630438224,7.060788,0.08172208333333333,-3.4241552916666667
1413393890125760500,0.04537856055185257,0.2569124658935653,0.3162536604613725,8.711574083333332,-0.44129925,-2.4108014583333333
1413393890130760500,0.05585053606381855,0.18709929581379212,0.3344050846821135,6.42335575,-0.17161637500000002,-2.8602729166666667
1413393890135760500,0.07609635538695278,0.23736477827122882,0.2897246558310587,8.646196416666667,-0.40861041666666664,-2.631451083333333
1413393890140760500,0.07260569688296412,0.14800392056911915,0.30019663134302466,7.126165666666666,0.057205458333333334,-2.5170401666666664
1413393890145760500,0.05515240436302082,0.21572269554649914,0.2778564169174973,9.659550249999999,0.29419949999999995,-3.3260887916666664
1413393890150760500,0.0439822971502571,0.18779742751458986,0.278554548618295,6.3743225,0.7191543333333333,-2.1002575416666667
1413393890155760500,0.027925268031909273,0.2115339053417127,0.278554548618295,8.270274833333334,-0.122583125,-3.3506054166666663
1413393890160760500,0.02722713633111154,0.17662732030182612,0.28204520712228365,6.398839124999999,0.18796079166666665,-1.2830367083333332
1413393890165760500,0.05445427266222308,0.19198621771937624,0.28832839242946323,9.389867375,-1.0215260416666667,-3.415983083333333
1413393890170760500,0.06632251157578452,0.16615534478986016,0.28553586562627226,5.295591,0.3105439166666667,-1.1522813749999998
1413393890175760500,0.08726646259971647,0.12426744274199628,0.317649923862968,8.915879291666666,-0.980665,-3.6693215416666662
1413393890180760500,0.06771877497737998,0.1647590813882647,0.2918190509334519,5.606134916666666,0.8008764166666666,-1.12776475
1413393890185760500,0.06632251157578452,0.0614355896702004,0.3050835532486088,9.757616749999999,-0.318716125,-4.086104166666667
1413393890190760500,0.028623399732707,0.1424188669627373,0.2869321290278678,5.238385541666666,1.2503478749999999,-1.0051816249999999
1413393890195760500,0.047472955654245766,0.09494591130849153,0.30857421175259747,10.051816249999998,-1.3974476249999999,-4.135137416666667
1413393890200760500,0.03769911184307752,0.19408061282176942,0.24015730507441974,5.450862958333333,0.7273265416666667,-0.8907707083333333
1413393890205760500,0.08517206749732328,0.07260569688296412,0.317649923862968,8.940395916666665,-1.2585200833333332,-3.4650163333333333
1413393890210760500,0.06911503837897544,0.22479840765686968,0.2282890661608583,6.701210833333333,0.7600153749999999,-1.6426138750000001
1413393890215760500,0.0991347015132779,0.08656833089891874,0.3497639820996636,7.951558708333333,-0.23699404166666665,-3.0482337083333335
1413393890220760500,0.03839724354387525,0.21711895894809458,0.2408554367752175,7.804458958333332,1.0215260416666667,-2.181979625
1413393890225760500,0.04677482395344803,0.09843656981248018,0.31904618726456346,6.0801229999999995,0.17161637500000002,-2.549729
1413393890230760500,-0.012566370614359173,0.1780235837034216,0.20874137853852182,8.77695175,0.6292600416666666,-2.0920853333333334
1413393890235760500,0.028623399732707,0.1054178868204575,0.2743657584135086,7.150682291666666,-1.2666922916666667,-2.7213453750000003
1413393890240760500,0.020943951023931952,0.13753194505715316,0.18011797880581482,8.229413791666666,-0.06537766666666667,-1.9286411666666665
1413393890245760500,0.08656833089891874,0.07260569688296412,0.2757620218151041,6.300772625,-0.45764366666666667,-1.9204689583333332
1413393890250760500,0.06073745796940267,0.15917402778188286,0.21362830044410594,8.695229666666666,0.392266,-2.852100708333333
1413393890255760500,0.0747000919853573,0.11030480872604163,0.30857421175259747,5.941195458333333,0.5230213333333333,-2.3862848333333333
1413393890260760500,0.02722713633111154,0.153588974175501,0.25202554398798116,8.907707083333333,0.032688833333333334,-3.358777625
1413393890265760500,0.03420845333908886,0.13473941825396224,0.3043854215478111,5.646995958333333,0.980665,-1.6507860833333332
1413393890270760500,0.019547687622336492,0.12426744274199628,0.26668630970473356,9.618689208333333,-1.1931424166666666,-3.2525389166666665
1413393890275760500,0.05026548245743669,0.13264502315156904,0.2631956512007449,5.3936575,0.3023717083333333,-1.2748645
1413393890280760500,0.07609635538695278,0.04817108735504349,0.26529004630313807,8.597163166666666,-1.2421756666666668,-3.0482337083333335
1413393890285760500,0.08028514559173915,0.1165879940332212,0.2282890661608583,5.475379583333333,0.809048625,-1.6671305
1413393890290760500,0.08517206749732328,-0.006981317007977318,0.2555162024919699,8.588990958333333,-0.29419949999999995,-2.982856041666666
1413393890295760500,0.03420845333908886,0.08307767239493008,0.24434609527920614,6.807449541666666,1.61809725,-1.9695022083333333
1413393890300760500,0.003490658503988659,-0.02024581932313422,0.22479840765686968,8.082314041666667,-0.26151066666666667,-2.8357562916666668
1413393890305760500,-0.02234021442552742,0.06632251157578452,0.20804324683772407,7.3304708750000005,1.0215260416666667,-2.5088679583333335
1413393890310760500,0.02024581932313422,0.02234021442552742,0.22060961745208327,7.5102594583333335,-1.6426138750000001,-2.2473572916666664
1413393890315760500,0.020943951023931952,0.03769911184307752,0.17872171540421936,7.2487487916666655,0.008172208333333333,-2.655967708333333
1413393890320760500,0.09005898940290741,0.07190756518216637,0.2366666465704311,7.3549875,-0.612915625,-2.3045627499999997
1413393890325760500,0.05515240436302082,0.05305800926062762,0.1780235837034216,7.3549875,0.3759215833333333,-2.7948952499999997
1413393890330760500,0.06981317007977318,0.07819075048934597,0.2617993877991494,7.461226208333334,1.1849702083333333,-2.6641399166666666
1413393890335760500,0.0013962634015954637,0.047472955654245766,0.17174039839624203,7.085304625,0.0980665,-1.61809725
1413393890340760500,0.021642082724729686,0.050963614158234416,0.2694788365079245,7.387676333333332,-0.24516625,-2.7458620000000002
1413393890345760500,-0.005585053606381855,0.032812189937493394,0.17174039839624203,5.9820565,-0.5230213333333333,-2.0430520833333334
1413393890350760500,0.04956735075663895,0.01815142422074103,0.2617993877991494,7.788114541666666,0.21247741666666667,-2.7131731666666665
1413393890355760500,0.02722713633111154,0.041189770347066175,0.13962634015954636,7.085304625,-1.0296982499999998,-2.3862848333333333
1413393890360760500,0.06771877497737998,0.019547687622336492,0.26249751949994715,6.856482791666667,1.2830367083333332,-2.5415567916666664
1413393890365760500,0.012566370614359173,0.05515240436302082,0.15079644737231007,8.564474333333333,-0.42495483333333334,-2.655967708333333
1413393890370760500,0.024434609527920613,0.05864306286700947,0.2611012560983517,7.305954249999999,1.1359369583333332,-2.3290793749999996
1413393890375760500,-0.0027925268031909274,0.06702064327658225,0.15498523757709648,7.289609833333333,-1.0296982499999998,-1.838746875
1413393890380760500,0.02652900463031381,0.0439822971502571,0.24853488548399255,6.8891716249999995,0.53936575,-2.1247741666666666
1413393890385760500,0.03490658503988659,0.04956735075663895,0.17453292519943295,7.444881791666666,-1.054214875,-2.4925235416666665
1413393890390760500,0.05026548245743669,0.006283185307179587,0.21432643214490363,7.044443583333333,0.5230213333333333,-2.59876225
1413393890395760500,0.06073745796940267,0.046076692252650306,0.19477874452256716,7.992419749999999,-0.6537766666666667,-2.435318083333333
1413393890400760500,0.03700098014227979,0.03420845333908886,0.2331759880664424,7.755425708333333,1.054214875,-3.2852277500000002
1413393890405760500,0.03490658503988659,0.08028514559173915,0.1884955592153876,7.84532,0.122583125,-1.8060580416666667
1413393890410760500,0.0027925268031909274,0.0767944870877505,0.20106192982974677,8.580818749999999,0.42495483333333334,-3.4078108749999996
1413393890415760500,0.011868238913561441,0.14521139376592823,0.2115339053417127,7.281437625,-0.008172208333333333,-1.9449855833333332
1413393890420760500,0.009075712110370514,0.07819075048934597,0.19058995431778078,8.229413791666666,-0.4903325,-3.7346992083333332
1413393890425760500,0.04049163864626844,0.19198621771937624,0.22689280275926282,7.453054,-0.22882183333333334,-1.1441091666666665
1413393890430760500,0.039793506945470715,0.07400196028455958,0.17243853009703977,7.673703624999999,-0.5720545833333333,-3.211677875
