#timestamp [ns],w_RS_S_x [rad s^-1],w_RS_S_y [rad s^-1],w_RS_S_z [rad s^-1],a_RS_S_x [m s^-2],a_RS_S_y [m s^-2],a_RS_S_z [m s^-2]
1413393885975760500,0.050963614158234416,0.041887902047863905,0.06841690667817772,9.438900625,-0.4004382083333333,-2.729517583333333
1413393885980760500,0.05375614096142535,0.03630284844148206,0.07051130178057091,9.398039583333333,0.032688833333333334,-3.195333458333333
1413393885985760500,0.03839724354387525,0.04258603374866164,0.04677482395344803,9.561483749999999,0.2533384583333333,-3.015544875
1413393885990760500,0.028623399732707,0.047472955654245766,0.07120943348136866,9.283628666666665,0.269682875,-3.0890947499999997
1413393885995760500,0.0027925268031909274,0.06562437987498679,0.06213372137099814,9.610517,0.4985047083333333,-3.0400614999999998
1413393886000760500,-0.025132741228718346,0.03839724354387525,0.08377580409572781,9.161045541666667,0.7681875833333334,-3.2280222916666665
1413393886005760500,-0.05235987755982988,0.04817108735504349,0.08936085770210968,9.283628666666665,0.3350605416666666,-3.0809225416666663
1413393886010760500,-0.05585053606381855,0.03839724354387525,0.08098327729253688,9.054806833333332,-0.35140495833333335,-2.7867230416666664
1413393886015760500,-0.04049163864626844,0.009075712110370514,0.0747000919853573,9.259112041666667,-0.5720545833333333,-2.754034208333333
1413393886020760500,-0.013264502315156905,0.00767944870877505,0.08656833089891874,9.357178541666666,-0.6701210833333332,-2.7376897916666665
1413393886025760500,0.023038346126325153,0.010471975511965976,0.07819075048934597,9.520622708333333,-0.612915625,-2.9093061666666666
1413393886030760500,0.0439822971502571,0.032114058236695664,0.08307767239493008,9.586000375,-0.3759215833333333,-2.941995
1413393886035760500,0.04049163864626844,0.028623399732707,0.07819075048934597,9.250939833333334,0.18796079166666665,-2.811239666666667
1413393886040760500,0.021642082724729686,0.02652900463031381,0.07190756518216637,9.259112041666667,0.416782625,-3.023717083333333
1413393886045760500,-0.005585053606381855,0.04677482395344803,0.06911503837897544,9.373522958333332,0.367749375,-3.0400614999999998
1413393886050760500,-0.023736477827122883,0.03420845333908886,0.06771877497737998,9.144701125,0.057205458333333334,-2.982856041666666
1413393886055760500,-0.03490658503988659,0.01884955592153876,0.06981317007977318,9.07115125,0.10623870833333333,-2.7376897916666665
1413393886060760500,-0.03490658503988659,0.013962634015954637,0.08237954069413235,9.1201845,-0.2533384583333333,-2.9093061666666666
1413393886065760500,-0.021642082724729686,0.009075712110370514,0.08028514559173915,9.242767624999999,-0.4004382083333333,-2.999200458333333
1413393886070760500,-0.008377580409572781,0.006981317007977318,0.08726646259971647,9.536967125,-0.392266,-2.9583394166666666
1413393886075760500,0.00767944870877505,0.02234021442552742,0.08307767239493008,9.406211791666665,-0.3105439166666667,-2.974683833333333
1413393886080760500,0.017453292519943295,0.02234021442552742,0.07260569688296412,9.349006333333334,-0.3023717083333333,-3.015544875
1413393886085760500,0.025132741228718346,0.02722713633111154,0.06562437987498679,9.520622708333333,-0.17978858333333333,-2.974683833333333
1413393886090760500,0.02652900463031381,0.02234021442552742,0.08098327729253688,9.291800875,0.17161637500000002,-2.9338227916666666
1413393886095760500,0.009773843811168246,0.017453292519943295,0.08517206749732328,9.234595416666666,0.35957716666666667,-2.8766173333333334
1413393886100760500,-0.013264502315156905,0.02024581932313422,0.09564404300928926,8.989429166666666,0.3840937916666667,-2.8684451249999996
1413393886105760500,-0.033510321638291124,0.008377580409572781,0.09215338450530061,9.635033625,0.08989429166666667,-3.1299557916666663
1413393886110760500,-0.04537856055185257,0.009075712110370514,0.08237954069413235,9.5124505,-0.20430520833333332,-3.0645781249999997
1413393886115760500,-0.02722713633111154,0.016755160819145562,0.07330382858376185,9.398039583333333,-0.661948875,-2.8766173333333334
1413393886120760500,0.00215824693441391,0.024216942489147186,0.06305909901857376,9.474337577819824,-0.5676385760307312,-3.0386879444122314
1413393886125760500,0.027516931295394897,0.02630854770541191,0.0731063038110733,9.3171968460083,-0.0921706110239029,-2.940556526184082
1413393886130760500,0.04197324067354202,0.021390274167060852,0.08783264458179474,9.162298202514648,-0.0901949480175972,-2.7837493419647217
1413393886135760500,0.03346238285303116,0.012214384973049164,0.0761609748005867,9.514420509338379,0.20977413654327393,-3.09438157081604
1413393886140760500,0.0031781233847141266,0.029751263558864594,0.07882355898618698,9.292808532714844,0.4972139596939087,-2.9723925590515137
1413393886145760500,-0.020686112344264984,0.013057280331850052,0.08041352778673172,9.57047176361084,0.31950831413269043,-3.2408571243286133
1413393886150760500,-0.033349670469760895,0.025037597864866257,0.07147496938705444,9.457110404968262,-0.20692236721515656,-3.065769672393799
1413393886155760500,-0.022612139582633972,0.03552345931529999,0.07438632100820541,9.41554069519043,-0.2092124968767166,-3.094187021255493
1413393886160760500,-0.012788962572813034,0.041683025658130646,0.07948306202888489,9.22836971282959,-0.03393055498600006,-2.8828601837158203
1413393886165760500,-0.003027878701686859,0.027587175369262695,0.07578466832637787,9.229008674621582,-0.19702358543872833,-2.8237597942352295
1413393886170760500,0.0033064261078834534,0.01638983190059662,0.07052867859601974,9.254199028015137,-0.41276898980140686,-2.9888689517974854
1413393886175760500,0.013430442661046982,0.022806648164987564,0.07750669866800308,9.44931411743164,0.004442669916898012,-3.3414077758789062
1413393886180760500,0.009080380201339722,0.041786886751651764,0.08560992777347565,9.155049324035645,0.03416037559509277,-2.853440999984741
1413393886185760500,0.0012226812541484833,0.019333384931087494,0.08832458406686783,9.449125289916992,-0.11500393599271774,-2.955023765563965
1413393886190760500,0.0060580819845199585,0.035403527319431305,0.08187691122293472,9.505464553833008,-0.21582575142383575,-2.9084959030151367
1413393886195760500,0.010292164981365204,0.04374522715806961,0.08401365578174591,9.292194366455078,0.1620214879512787,-2.8880345821380615
1413393886200760500,-0.002502400428056717,0.034499943256378174,0.08190254122018814,9.171648979187012,0.22208841145038605,-2.8893234729766846
1413393886205760500,-0.018055597320199013,0.017054032534360886,0.06715346872806549,9.400665283203125,-0.04288838058710098,-2.873443841934204
1413393886210760500,-0.02064528502523899,0.017327066510915756,0.06523710489273071,9.285660743713379,-0.18419015407562256,-2.995636463165283
1413393886215760500,-0.01339336670935154,0.02508990466594696,0.07099422812461853,9.384018898010254,-0.23113830387592316,-3.055349826812744
1413393886220760500,-0.014871485531330109,0.03194854408502579,0.07719647884368896,9.155828475952148,-0.22130754590034485,-2.8179736137390137
1413393886225760500,0.0006395727396011353,0.022088799625635147,0.08682364225387573,9.383861541748047,-0.2719959318637848,-2.9714579582214355
1413393886230760500,0.01678100973367691,0.024281829595565796,0.08476816862821579,9.252747535705566,-0.22346808016300201,-2.8588294982910156
1413393886235760500,0.02797073870897293,0.023361586034297943,0.085354283452034,9.342228889465332,0.05550780147314072,-2.90545392036438
1413393886240760500,0.01933892071247101,0.025430545210838318,0.08036523312330246,9.204229354858398,0.24524176120758057,-3.004420280456543
1413393886245760500,0.0024562031030654907,0.01797265186905861,0.0846819058060646,9.481032371520996,0.2029874622821808,-3.030055284500122
1413393886250760500,-0.014396069571375847,0.026578672230243683,0.08144371211528778,9.122218132019043,0.03809232637286186,-3.013073682785034
1413393886255760500,-0.017785727977752686,0.014402374625205994,0.0960809588432312,9.44015884399414,0.18490856885910034,-2.9484386444091797
1413393886260760500,-0.022705629467964172,0.02619181200861931,0.09598018229007721,9.163171768188477,0.015516010113060474,-2.8976826667785645
1413393886265760500,-0.014327315613627434,0.004594516009092331,0.09651961177587509,9.293782234191895,-0.4033496677875519,-2.7687699794769287
1413393886270760500,-0.00017259269952774048,0.009559161961078644,0.07332822680473328,9.4414701461792,-0.42984408140182495,-2.947870969772339
1413393886275760500,0.01251734048128128,0.010287150740623474,0.06357559561729431,9.513920783996582,-0.31216248869895935,-3.0559167861938477
1413393886280760500,0.014600846916437149,0.02149192988872528,0.05189772695302963,9.424003601074219,-0.11430183053016663,-3.0477182865142822
1413393886285760500,0.019481785595417023,0.005412302911281586,0.059733252972364426,9.342477798461914,-0.0096175791695714,-2.982135772705078
1413393886290760500,0.008284680545330048,0.029143191874027252,0.05977494642138481,9.399229049682617,0.21908004581928253,-3.078030824661255
1413393886295760500,-0.011447682976722717,0.015120144933462143,0.08700753003358841,9.340943336486816,0.5308675765991211,-2.9963645935058594
1413393886300760500,-0.02562900260090828,0.033291518688201904,0.09392264485359192,9.220085144042969,0.11464840918779373,-2.8976502418518066
1413393886305760500,-0.02628898061811924,0.019398018717765808,0.09015447646379471,9.148119926452637,-0.2569033205509186,-2.9063589572906494
1413393886310760500,-0.014865722507238388,0.02637689933180809,0.08597129583358765,9.393004417419434,-0.4288615584373474,-3.135744094848633
1413393886315760500,-0.0007968097925186157,0.021438434720039368,0.09183021634817123,9.26935863494873,-0.2872972786426544,-3.0892086029052734
1413393886320760500,0.013882782310247421,0.028996426612138748,0.08062712103128433,9.359437942504883,-0.40973320603370667,-2.917811632156372
1413393886325760500,0.03004390001296997,0.020693764090538025,0.08821699023246765,9.261445999145508,-0.27322059869766235,-2.9813249111175537
1413393886330760500,0.030729971826076508,0.031174607574939728,0.08542494475841522,9.325730323791504,0.17798633873462677,-2.9807307720184326
1413393886335760500,0.016572631895542145,0.02411743625998497,0.10280556976795197,9.243624687194824,0.4423191249370575,-2.9630236625671387
1413393886340760500,-0.013790320605039597,0.031876206398010254,0.08590352535247803,9.220723152160645,0.0489581860601902,-3.09476375579834
1413393886345760500,-0.028475329279899597,0.014414235949516296,0.07119694352149963,9.44155502319336,-0.18387196958065033,-3.1700515747070312
1413393886350760500,-0.028293948620557785,0.028425320982933044,0.06242822855710983,9.546843528747559,-0.21456021070480347,-3.2028512954711914
1413393886355760500,-0.015670504420995712,0.025741219520568848,0.06329537183046341,9.285305976867676,-0.3761238753795624,-2.8277318477630615
1413393886360760500,-0.0008554272353649139,0.020733337849378586,0.061819158494472504,9.351614952087402,-0.42781463265419006,-2.9715020656585693
1413393886365760500,0.020999159663915634,0.027669519186019897,0.07727857679128647,9.432048797607422,-0.1756320744752884,-2.867542266845703
1413393886370760500,0.021037861704826355,0.03819723427295685,0.08626260608434677,9.275920867919922,0.2769215703010559,-3.011202812194824
1413393886375760500,0.008942797780036926,0.03326592594385147,0.08734123408794403,9.138333320617676,0.3757522404193878,-2.8010151386260986
1413393886380760500,-0.005176976323127747,0.024065975099802017,0.09216473251581192,9.449247360229492,0.03015683777630329,-2.913379430770874
1413393886385760500,-0.0107166338711977,0.02695148065686226,0.08896102011203766,9.407246589660645,-0.04502473026514053,-2.93165922164917
1413393886390760500,-0.010045260190963745,0.03824077546596527,0.08838225901126862,9.431902885437012,-0.16495662927627563,-2.955287218093872
1413393886395760500,-0.008800935000181198,0.02774076908826828,0.08554655313491821,9.090373992919922,-0.18914596736431122,-2.832838296890259
1413393886400760500,0.007404692471027374,0.020626164972782135,0.08469348400831223,9.49852466583252,-0.3954222500324249,-2.9796924591064453
1413393886405760500,0.01663794368505478,0.023507528007030487,0.0783652812242508,9.260467529296875,-0.011936922557651997,-2.8986318111419678
1413393886410760500,0.008213318884372711,0.02062569186091423,0.07476470619440079,9.30965518951416,0.20400470495224,-2.9953954219818115
1413393886415760500,-0.008732445538043976,0.008704550564289093,0.07631956785917282,9.376076698303223,0.04855706915259361,-2.9245240688323975
1413393886420760500,-0.012059740722179413,0.010296571999788284,0.06870025396347046,9.505635261535645,-0.08498901128768921,-3.152111530303955
1413393886425760500,-0.01141529530286789,0.017464160919189453,0.059638917446136475,9.29349422454834,-0.2881859838962555,-2.8442063331604004
1413393886430760500,-0.00575004518032074,0.020800549536943436,0.05892861634492874,9.367929458618164,-0.18039707839488983,-3.117933750152588
1413393886435760500,0.008858606219291687,0.01857566088438034,0.07586284726858139,9.359269142150879,-0.2790261507034302,-2.8119540214538574
1413393886440760500,0.013860329985618591,0.015834368765354156,0.08347390592098236,9.439878463745117,0.013602424412965775,-2.9865946769714355
1413393886445760500,0.006729729473590851,0.022849533706903458,0.0875823125243187,9.203348159790039,0.19442954659461975,-2.7772114276885986
1413393886450760500,-0.0038116425275802612,0.015761423856019974,0.08889371901750565,9.36740779876709,0.10528060793876648,-3.0353517532348633
1413393886455760500,-0.012811915948987007,0.015125364065170288,0.09231265634298325,9.399747848510742,-0.05971387401223183,-3.121664047241211
1413393886460760500,-0.014840751886367798,0.021533388644456863,0.08808968961238861,9.448077201843262,-0.1091698557138443,-3.03904390335083
1413393886465760500,-0.010776042938232422,0.026423048228025436,0.08409150689840317,9.171802520751953,-0.3525592088699341,-2.899595260620117
1413393886470760500,0.008195355534553528,0.027643457055091858,0.08841719478368759,9.367973327636719,-0.41129475831985474,-2.8742446899414062
1413393886475760500,0.019416335970163345,0.017838269472122192,0.09178967773914337,9.22852897644043,-0.23935402929782867,-2.8899855613708496
1413393886480760500,0.02222422882914543,0.01503867655992508,0.08307856321334839,9.448407173156738,0.05615861713886261,-3.029442310333252
1413393886485760500,0.011606700718402863,0.023481525480747223,0.07332699000835419,9.301766395568848,0.20350117981433868,-2.907705068588257
1413393886490760500,-0.0009274855256080627,0.015124127268791199,0.07351894676685333,9.391156196594238,0.2920704782009125,-3.102104663848877
1413393886495760500,-0.01637120544910431,0.015906982123851776,0.0771554559469223,9.366911888122559,0.10453639179468155,-3.104612350463867
1413393886500760500,-0.024106629192829132,0.02149353176355362,0.07224036753177643,9.54642391204834,-0.19848273694515228,-3.1206653118133545
1413393886505760500,-0.019849050790071487,0.04243449866771698,0.07582379877567291,9.39922046661377,-0.199279323220253,-2.826751947402954
1413393886510760500,-0.006438873708248138,0.029093824326992035,0.08209934085607529,9.30201244354248,-0.24701741337776184,-2.9376862049102783
1413393886515760500,0.011838190257549286,0.036737099289894104,0.08676115423440933,9.359330177307129,-0.23938371241092682,-2.9238836765289307
1413393886520760500,0.01882614567875862,0.03192174434661865,0.08809305727481842,9.195767402648926,-0.07637249678373337,-3.053359031677246
1413393886525760500,0.013878732919692993,0.03247937560081482,0.08333581686019897,9.37513256072998,0.1293395757675171,-2.9087088108062744
1413393886530760500,-0.0002070888876914978,0.01918734982609749,0.07631883770227432,9.383503913879395,0.15471020340919495,-3.1020565032958984
1413393886535760500,-0.004455454647541046,0.03754038363695145,0.07558004558086395,9.317974090576172,-0.018245045095682144,-2.8842623233795166
1413393886540760500,-0.01287318766117096,0.03139718621969223,0.07494840025901794,9.106853485107422,-0.04300395026803017,-3.1008377075195312
1413393886545760500,-0.01004626415669918,0.043685026466846466,0.08209154009819031,9.441208839416504,-0.09942887723445892,-2.9089243412017822
1413393886550760500,-0.010847523808479309,0.02340654283761978,0.08208741247653961,9.147028923034668,-0.20554889738559723,-2.9293699264526367
1413393886555760500,-0.0024545975029468536,0.03327636420726776,0.08192959427833557,9.228827476501465,-0.29720884561538696,-2.5729482173919678
1413393886560760500,0.0025743208825588226,0.002525903284549713,0.07835415750741959,9.091226577758789,-0.11679086834192276,-2.9273641109466553
1413393886565760500,0.009031325578689575,0.02409173548221588,0.07346119731664658,9.59570026397705,-0.017507098615169525,-2.925734281539917
1413393886570760500,-0.0044026486575603485,0.015322506427764893,0.0722246766090393,9.309350967407227,-0.07466554641723633,-3.0047898292541504
1413393886575760500,0.003288581967353821,0.025052640587091446,0.0652812048792839,9.407841682434082,-0.20686008036136627,-2.8195581436157227
1413393886580760500,-0.0023182258009910583,0.014444366097450256,0.06733039021492004,9.18808364868164,0.04711400344967842,-2.9695029258728027
1413393886585760500,-0.0007773563265800476,0.041564032435417175,0.08831404894590378,9.610904693603516,0.17130209505558014,-3.1114606857299805
1413393886590760500,-0.008815500885248184,0.03481128811836243,0.08556404709815979,9.064522743225098,-0.12387114018201828,-2.7437357902526855
1413393886595760500,-0.003128398209810257,0.012968525290489197,0.09237343072891235,9.302648544311523,-0.26578566431999207,-2.839988946914673
1413393886600760500,0.0011819787323474884,0.009497243911027908,0.08258405327796936,9.237906455993652,-0.21493473649024963,-3.020918130874634
1413393886605760500,0.005490418523550034,0.018613576889038086,0.09583017975091934,9.578333854675293,-0.000695133931003511,-3.120595932006836
1413393886610760500,-0.0030788779258728027,0.030595004558563232,0.08194781839847565,9.317729949951172,-0.18946829438209534,-2.967114210128784
1413393886615760500,0.005378700792789459,0.013043105602264404,0.07841067016124725,9.383513450622559,-0.22450192272663116,-2.9001262187957764
1413393886620760500,0.008973050862550735,0.020781051367521286,0.07713500410318375,9.212311744689941,-0.010194777511060238,-3.0940279960632324
1413393886625760500,0.007577940821647644,0.031145498156547546,0.09244553744792938,9.390984535217285,0.15547750890254974,-3.1287174224853516
1413393886630760500,-0.010180892422795296,0.030387450009584427,0.08114512264728546,9.122587203979492,0.047953441739082336,-2.948646068572998
1413393886635760500,-0.00802326574921608,0.006726689636707306,0.08469004929065704,9.18053150177002,-0.07723689079284668,-2.9067184925079346
1413393886640760500,-0.0051104240119457245,0.015329442918300629,0.08206433057785034,9.17277717590332,-0.16576752066612244,-3.029134750366211
1413393886645760500,-0.004321865737438202,0.013803217560052872,0.08189249038696289,9.473286628723145,-0.0015049782814458013,-3.1617088317871094
1413393886650760500,-0.014992261305451393,0.027627673000097275,0.06645657867193222,9.464850425720215,-0.14847198128700256,-2.967237710952759
1413393886655760500,0.0055001601576805115,0.02144588530063629,0.07855591177940369,9.350322723388672,-0.17509964108467102,-2.8914270401000977
1413393886660760500,0.009021643549203873,0.03416935354471207,0.07166612148284912,9.318487167358398,-0.19052429497241974,-3.0293548107147217
1413393886665760500,0.006900258362293243,0.026950310915708542,0.07972954213619232,9.407194137573242,0.1704040765762329,-3.1198105812072754
1413393886670760500,-0.00311959907412529,0.02888588234782219,0.07557326555252075,9.244318962097168,7.64000797062181e-05,-2.9570388793945312
1413393886675760500,-0.0009145550429821014,0.017173882573843002,0.08196517825126648,9.465456008911133,-0.1909991353750229,-3.005584955215454
1413393886680760500,-0.0037373490631580353,0.023686252534389496,0.08129789680242538,9.245156288146973,-0.18272021412849426,-3.0134642124176025
1413393886685760500,-0.005866173654794693,0.020032178610563278,0.0811644196510315,9.570712089538574,-0.017087960615754128,-3.038109064102173
1413393886690760500,-0.009390812367200851,0.029748085886240005,0.07919760048389435,9.399194717407227,-0.1392870545387268,-2.908032178878784
1413393886695760500,0.006894238293170929,0.03258693218231201,0.08060827851295471,9.42353630065918,-0.18334409594535828,-2.9475953578948975
1413393886700760500,0.00893312692642212,0.03189455717802048,0.0805049017071724,9.277578353881836,-0.11686395853757858,-2.980382204055786
1413393886705760500,0.004743240773677826,0.03669916093349457,0.07764231413602829,9.45646858215332,0.17067496478557587,-3.0618717670440674
1413393886710760500,-0.0017094686627388,0.03046567738056183,0.07920283079147339,9.113929748535156,0.03211880475282669,-2.710892677307129
1413393886715760500,-0.0008894689381122589,0.014329686760902405,0.08125649392604828,9.588116645812988,-0.16695626080036163,-3.0439648628234863
1413393886720760500,-0.0015663094818592072,0.02561948448419571,0.08335050940513611,9.220162391662598,0.053854476660490036,-2.973273992538452
1413393886725760500,-0.007262200117111206,0.03057131916284561,0.07562229782342911,9.432345390319824,-0.008512293919920921,-2.9794957637786865
1413393886730760500,0.001168183982372284,0.023572668433189392,0.07917846739292145,9.196433067321777,-0.1487456113100052,-2.8912124633789062
1413393886735760500,0.004066649824380875,0.026913315057754517,0.07425636798143387,9.538360595703125,-0.04519344121217728,-3.020504951477051
1413393886740760500,0.012472309172153473,0.02976035326719284,0.08543649315834045,9.228078842163086,0.06388207525014877,-2.9886789321899414
1413393886745760500,0.0018316060304641724,0.031161442399024963,0.07427799701690674,9.375432014465332,0.06452174484729767,-2.9561684131622314
1413393886750760500,-0.0016720518469810486,0.012956805527210236,0.08339771628379822,9.114530563354492,0.08727618306875229,-2.7428762912750244
1413393886755760500,-0.0016301646828651428,0.012316636741161346,0.08058082312345505,9.44079875946045,-0.08399641513824463,-2.9050452709198
1413393886760760500,-0.0036953166127204895,0.015960201621055603,0.08957048505544662,9.285605430603027,-0.08364348113536835,-3.1361918449401855
1413393886765760500,-0.010777022689580917,0.02422575280070305,0.07913188636302948,9.481593132019043,-0.17310361564159393,-3.0566763877868652
1413393886770760500,-0.003050386905670166,0.011640790849924088,0.08126073330640793,9.310446739196777,-0.2874041199684143,-3.047247886657715
1413393886775760500,0.004787895828485489,0.025654293596744537,0.0777578055858612,9.456503868103027,-0.10860912501811981,-2.9656219482421875
1413393886780760500,0.015313077718019485,0.014415476471185684,0.08749991655349731,9.284960746765137,0.0318501777946949,-3.012314558029175
1413393886785760500,0.004679054021835327,0.02828057110309601,0.07279607653617859,9.480999946594238,0.06474863737821579,-3.0061652660369873
1413393886790760500,-0.0030747652053833008,0.0074835531413555145,0.07916347682476044,9.130349159240723,0.12885400652885437,-2.9474685192108154
1413393886795760500,-0.008002206683158875,0.01732742413878441,0.07782729715108871,9.449466705322266,-0.23021253943443298,-2.9975130558013916
1413393886800760500,-0.007188476622104645,0.020135462284088135,0.08820103853940964,9.294034004211426,-0.1412932425737381,-3.1935930252075195
1413393886805760500,-0.008619870990514755,0.027659814804792404,0.08124137669801712,9.50558853149414,-0.1730865240097046,-3.0163486003875732
1413393886810760500,-0.0029992982745170593,0.013738326728343964,0.08339588344097137,9.212199211120605,-0.1075434759259224,-2.9886913299560547
1413393886815760500,0.0012264028191566467,0.03470469266176224,0.07423338294029236,9.489825248718262,-0.20670877397060394,-2.9982495307922363
1413393886820760500,0.005402594804763794,0.02776799350976944,0.07974836975336075,9.130690574645996,-0.12491003423929214,-3.028914213180542
1413393886825760500,0.008259128779172897,0.03459282964468002,0.07772104442119598,9.505926132202148,-0.033725835382938385,-3.022594690322876
1413393886830760500,0.0033027827739715576,0.022115658968687057,0.08278072625398636,9.147137641906738,-0.025527775287628174,-3.004993438720703
1413393886835760500,-0.0002057291567325592,0.025602072477340698,0.08201654255390167,9.41616153717041,-0.026725031435489655,-2.9403021335601807
1413393886840760500,-0.010144570842385292,0.025645170360803604,0.0846753641963005,9.115002632141113,-0.14902721345424652,-3.053380012512207
1413393886845760500,-0.007940523326396942,0.030426565557718277,0.08815852552652359,9.334871292114258,-0.1162453442811966,-3.039170980453491
1413393886850760500,-0.0058326274156570435,0.027761191129684448,0.08474838733673096,9.351319313049316,-0.1813969761133194,-2.9892075061798096
1413393886855760500,0.0019436068832874298,0.0277470164000988,0.08547832071781158,9.244575500488281,-0.07572273164987564,-2.923564910888672
1413393886860760500,0.005398005247116089,0.031151749193668365,0.07636022567749023,9.164149284362793,-0.18173767626285553,-3.0126307010650635
1413393886865760500,0.009629182517528534,0.022716287523508072,0.07557494938373566,9.269908905029297,-0.018821991980075836,-2.932121992111206
1413393886870760500,0.007489658892154694,0.019332729279994965,0.07001689076423645,9.253162384033203,-0.08298730850219727,-3.0618631839752197
1413393886875760500,0.0032572969794273376,0.01730474829673767,0.07429210841655731,9.147157669067383,0.0797715112566948,-2.9488234519958496
1413393886880760500,-0.007278988137841225,0.024968832731246948,0.07785140722990036,9.384319305419922,-0.03443695232272148,-3.037325143814087
1413393886885760500,-0.009386565536260605,0.021444842219352722,0.07850233465433121,9.326325416564941,-0.11685904860496521,-2.9656143188476562
1413393886890760500,-0.007872166112065315,0.024171359837055206,0.07485164701938629,9.684859275817871,-0.1496625691652298,-3.209953546524048
1413393886895760500,-0.004366055130958557,0.029154930263757706,0.08054982870817184,9.21107292175293,0.07967852056026459,-2.908989191055298
1413393886900760500,-0.001607052981853485,0.026984237134456635,0.07285904884338379,9.456932067871094,-0.19709627330303192,-3.0042710304260254
1413393886905760500,0.004004336893558502,0.02836545556783676,0.0742727741599083,9.342425346374512,-0.17534945905208588,-2.8593196868896484
1413393886910760500,0.016740411520004272,0.022094227373600006,0.08060479164123535,9.464194297790527,-0.1412031650543213,-3.077350378036499
1413393886915760500,0.009570114314556122,0.024276427924633026,0.07711625099182129,9.057232856750488,0.05657109245657921,-2.826451063156128
1413393886920760500,0.00045567750930786133,0.02136184275150299,0.08394423127174377,9.465752601623535,0.04781397432088852,-3.109639883041382
1413393886925760500,-0.006662033498287201,0.02419951930642128,0.081943079829216,9.228361129760742,-0.09252029657363892,-2.884443521499634
1413393886930760500,-0.004405692219734192,0.017889663577079773,0.09173621237277985,9.505149841308594,-0.01897466368973255,-2.971018075942993
1413393886935760500,-0.006544344127178192,0.02635713666677475,0.08758924901485443,9.065621376037598,0.05621051415801048,-2.939537525177002
1413393886940760500,-0.006615925580263138,0.02070505917072296,0.0818743109703064,9.400799751281738,-0.29513704776763916,-3.004835367202759
1413393886945760500,0.0032800063490867615,0.016545813530683517,0.08197371661663055,9.06595516204834,-0.26536571979522705,-2.9565649032592773
1413393886950760500,0.011082962155342102,0.017210502177476883,0.07492196559906006,9.416534423828125,-0.10832230001688004,-2.980884552001953
1413393886955760500,0.006765913218259811,0.018687672913074493,0.07771456241607666,9.171987533569336,-0.008101937361061573,-2.8987743854522705
1413393886960760500,0.0018436126410961151,0.0137161985039711,0.07568895816802979,9.595858573913574,-0.16530859470367432,-3.103926181793213
1413393886965760500,0.00044361501932144165,0.02008703723549843,0.07503741979598999,9.073318481445312,-0.09300410002470016,-2.8595950603485107
1413393886970760500,-0.0007955990731716156,0.011646360158920288,0.09101397544145584,9.505547523498535,0.12965811789035797,-3.2897047996520996
1413393886975760500,-0.012883780524134636,0.03894336521625519,0.08475515991449356,9.358548164367676,0.07331953197717667,-2.9432032108306885
1413393886980760500,-0.012941252440214157,0.022170692682266235,0.08611491322517395,9.244089126586914,-0.19049935042858124,-2.9055778980255127
1413393886985760500,-0.004434026777744293,0.02629658207297325,0.07144925743341446,9.376474380493164,-0.4041863977909088,-2.9329371452331543
1413393886990760500,0.013269808143377304,0.02351706102490425,0.0790875256061554,9.228731155395508,-0.11637859791517258,-3.0532073974609375
1413393886995760500,0.013871073722839355,0.02411586418747902,0.08410514146089554,9.431976318359375,0.007975415326654911,-2.9903616905212402
1413393887000760500,0.0025192461907863617,0.017184391617774963,0.07497461140155792,9.367022514343262,-0.026538318023085594,-2.9812707901000977
1413393887005760500,0.0032581277191638947,0.023546703159809113,0.07773999869823456,9.309860229492188,-0.10979529470205307,-3.0383028984069824
1413393887010760500,0.0012395605444908142,0.020098261535167694,0.08895589411258698,9.19565486907959,0.24314922094345093,-3.020984411239624
1413393887015760500,-0.01282893680036068,0.028307795524597168,0.09093082696199417,9.652191162109375,0.11460136622190475,-3.005751371383667
1413393887020760500,-0.017141085118055344,0.031164079904556274,0.08329132944345474,9.268343925476074,-0.12529295682907104,-2.9069597721099854
1413393887025760500,-0.0044219233095645905,0.017229732125997543,0.07569826394319534,9.392269134521484,-0.41279515624046326,-3.0051491260528564
1413393887030760500,0.011108603328466415,0.03125756233930588,0.0715010017156601,9.188642501831055,-0.20659266412258148,-2.948216438293457
1413393887035760500,0.014526978135108948,0.019265219569206238,0.08329551666975021,9.366813659667969,-0.016385722905397415,-2.9556334018707275
1413393887040760500,0.0067138671875,0.02839897945523262,0.07355291396379471,9.440645217895508,-0.16498039662837982,-2.997865676879883
1413393887045760500,0.008213568478822708,0.020069777965545654,0.0820593386888504,9.203863143920898,-0.028110500425100327,-2.9645702838897705
1413393887050760500,0.0026242733001708984,0.027021363377571106,0.0819927528500557,9.13110065460205,0.25207531452178955,-2.9876043796539307
1413393887055760500,-0.017108505591750145,0.020670387893915176,0.0859546959400177,9.440773010253906,0.18060541152954102,-3.01304030418396
1413393887060760500,-0.020605137571692467,0.03397318720817566,0.07975906133651733,9.35859489440918,-0.15772585570812225,-3.0624985694885254
1413393887065760500,-0.006497025489807129,0.018679112195968628,0.08209073543548584,9.22881031036377,-0.30654576420783997,-2.892045497894287
1413393887070760500,0.0061680227518081665,0.022153131663799286,0.07579582929611206,9.1890869140625,-0.24668070673942566,-2.922452211380005
1413393887075760500,0.014481987804174423,0.010892786085605621,0.08121315389871597,9.196304321289062,-0.14767146110534668,-2.931591033935547
1413393887080760500,0.008870124816894531,0.021364234387874603,0.07555331289768219,9.522209167480469,-0.1412370353937149,-3.0466794967651367
1413393887085760500,0.0117209292948246,0.013117827475070953,0.07564696669578552,9.187469482421875,-0.07625692337751389,-2.9739983081817627
1413393887090760500,0.006104998290538788,0.02146938443183899,0.07985807955265045,9.261412620544434,0.15393684804439545,-3.013070583343506
1413393887095760500,-0.009416153654456139,0.00818181037902832,0.08475401997566223,9.220466613769531,0.20426057279109955,-2.972236394882202
1413393887100760500,-0.025572091341018677,0.023464452475309372,0.07845309376716614,9.554277420043945,-0.1161026731133461,-3.013582468032837
1413393887105760500,-0.014995360746979713,0.019352011382579803,0.08480412513017654,9.374954223632812,-0.3877946734428406,-2.9412484169006348
1413393887110760500,0.002662103623151779,0.031276971101760864,0.08197867125272751,9.473472595214844,-0.40286511182785034,-3.005667209625244
1413393887115760500,0.009587913751602173,0.018738970160484314,0.08403860032558441,9.098041534423828,-0.22120711207389832,-2.8338682651519775
1413393887120760500,0.015224605798721313,0.021297838538885117,0.07765286415815353,9.603650093078613,-0.19767028093338013,-2.996629476547241
1413393887125760500,0.016607526689767838,0.01715519279241562,0.07494258135557175,9.195038795471191,-0.06824874877929688,-2.875277519226074
1413393887130760500,0.013193611055612564,0.022757936269044876,0.08192751556634903,9.40756607055664,0.17801091074943542,-3.1265974044799805
1413393887135760500,-0.0052194297313690186,0.030614420771598816,0.08124399185180664,9.204330444335938,0.2613978981971741,-2.9408299922943115
1413393887140760500,-0.025547649711370468,0.022859033197164536,0.08194305747747421,9.513318061828613,0.15339554846286774,-2.987197160720825
1413393887145760500,-0.022692371159791946,0.03258752077817917,0.08135361969470978,9.301674842834473,-0.21580718457698822,-2.8992292881011963
1413393887150760500,-0.006468635052442551,0.01852455735206604,0.0826486274600029,9.26977252960205,-0.3303188383579254,-3.0368285179138184
1413393887155760500,0.0005011074244976044,0.03609909117221832,0.07630980014801025,9.139937400817871,-0.2634570300579071,-2.899751663208008
1413393887160760500,0.01381923258304596,0.02007110044360161,0.07773484289646149,9.376007080078125,-0.29582056403160095,-2.9068379402160645
1413393887165760500,0.01807907596230507,0.029837273061275482,0.06799107789993286,9.367383003234863,-0.20731602609157562,-3.022167444229126
1413393887170760500,0.018130794167518616,0.019310303032398224,0.08193320035934448,9.19565200805664,0.21833840012550354,-3.095339298248291
1413393887175760500,-0.004455745220184326,0.03811076283454895,0.07914677262306213,9.3018798828125,0.4007853865623474,-2.948429584503174
1413393887180760500,-0.02485494688153267,0.02491920441389084,0.08544113487005234,9.326026916503906,0.12986020743846893,-3.0205934047698975
1413393887185760500,-0.028275977820158005,0.027701910585165024,0.07566984742879868,9.448671340942383,-0.24059371650218964,-3.1041412353515625
1413393887190760500,-0.016345366835594177,0.012346535921096802,0.0826568529009819,9.204310417175293,-0.31329092383384705,-2.8918089866638184
1413393887195760500,-0.0008351132273674011,0.03605445474386215,0.07421144843101501,9.571894645690918,-0.3440638482570648,-3.0215938091278076
1413393887200760500,0.015916921198368073,0.022899862378835678,0.08270149677991867,9.08964729309082,-0.4023098647594452,-2.9001529216766357
1413393887205760500,0.024357609450817108,0.018552325665950775,0.07218808680772781,9.636415481567383,-0.2977604269981384,-2.9324257373809814
1413393887210760500,0.025061331689357758,0.014406207948923111,0.07348702102899551,9.235814094543457,0.20257680118083954,-2.8988871574401855
1413393887215760500,0.013156399130821228,0.025496475398540497,0.08322548121213913,9.553224563598633,0.40100613236427307,-3.1186635494232178
1413393887220760500,-0.01998339220881462,0.028419241309165955,0.0833505243062973,9.27690315246582,0.2684954106807709,-3.014038562774658
1413393887225760500,-0.026259513571858406,0.028493031859397888,0.08059459179639816,9.350448608398438,-0.01179568748921156,-2.9146578311920166
1413393887230760500,-0.019944781437516212,0.01455085352063179,0.08909501880407333,9.196179389953613,-0.22332949936389923,-2.7915256023406982
1413393887235760500,-0.002941034734249115,0.020607274025678635,0.08965273201465607,9.522855758666992,-0.36942604184150696,-3.093388319015503
1413393887240760500,0.013789050281047821,0.032535895705223083,0.08466355502605438,9.138951301574707,-0.37047913670539856,-2.8680660724639893
1413393887245760500,0.020753607153892517,0.02357010543346405,0.0741453468799591,9.400527000427246,-0.33002182841300964,-2.7679171562194824
1413393887250760500,0.02712574601173401,0.01454460620880127,0.07427387684583664,9.147431373596191,-0.14913222193717957,-2.8814632892608643
1413393887255760500,0.016652092337608337,0.01016174629330635,0.07771477848291397,9.26876163482666,0.3505174517631531,-3.1511402130126953
1413393887260760500,-0.006551928818225861,0.03248952329158783,0.08472228050231934,9.203658103942871,0.4824291169643402,-2.8915092945098877
1413393887265760500,-0.03048482909798622,0.018627412617206573,0.07642991095781326,9.465034484863281,0.1209617480635643,-2.9795491695404053
1413393887270760500,-0.029792148619890213,0.02016039937734604,0.07853630185127258,9.277830123901367,-0.3305830955505371,-2.9240713119506836
1413393887275760500,-0.016329238191246986,0.011771701276302338,0.07069525122642517,9.253795623779297,-0.34569549560546875,-3.036733388900757
1413393887280760500,0.0019515976309776306,0.03396020829677582,0.07488836348056793,9.343518257141113,-0.36830151081085205,-2.8843741416931152
1413393887285760500,0.011059306561946869,0.01431272178888321,0.0750894695520401,9.456859588623047,-0.3701612651348114,-3.0543386936187744
1413393887290760500,0.023714706301689148,0.024921007454395294,0.0708661749958992,9.51343059539795,-0.25699007511138916,-2.9263908863067627
1413393887295760500,0.022294368594884872,0.010398507118225098,0.07280023396015167,9.121952056884766,0.16216911375522614,-2.987722158432007
1413393887300760500,0.010432861745357513,0.03455556184053421,0.08740241825580597,9.58637523651123,0.49877455830574036,-3.0385634899139404
1413393887305760500,-0.022091474384069443,0.023447971791028976,0.08965510129928589,9.210784912109375,0.2854539752006531,-2.987811326980591
1413393887310760500,-0.030500663444399834,0.01860347017645836,0.0875726044178009,9.554275512695312,-0.15899811685085297,-2.98974347114563
1413393887315760500,-0.02130565233528614,0.025781184434890747,0.08479635417461395,9.123250961303711,-0.305772989988327,-2.9639177322387695
1413393887320760500,-0.008545052260160446,0.022019386291503906,0.09310322999954224,9.644957542419434,-0.3116116523742676,-3.136331796646118
1413393887325760500,0.008874297142028809,0.023472711443901062,0.07980550825595856,9.114249229431152,-0.434700608253479,-2.843562126159668
1413393887330760500,0.026503607630729675,0.01718604564666748,0.07900629192590714,9.579442977905273,-0.3800874948501587,-2.997232437133789
1413393887335760500,0.02931034564971924,0.03624197095632553,0.06801262497901917,9.147127151489258,-0.03498271852731705,-2.8995585441589355
1413393887340760500,0.017375580966472626,0.019913848489522934,0.08959785848855972,9.479804992675781,0.5312983393669128,-3.011500358581543
1413393887345760500,-0.015040110796689987,0.03875851631164551,0.07909003645181656,9.391152381896973,0.31110405921936035,-3.079080820083618
1413393887350760500,-0.031146999448537827,0.027088835835456848,0.07278833538293839,9.244441032409668,0.09456992894411087,-2.9969093799591064
1413393887355760500,-0.025489982217550278,0.03131372481584549,0.08142329752445221,9.099316596984863,-0.28074657917022705,-3.045318603515625
1413393887360760500,-0.013480529189109802,0.02065960317850113,0.07923358678817749,9.303289413452148,-0.2302718311548233,-3.0301053524017334
1413393887365760500,0.0032757967710494995,0.04030512273311615,0.0804816335439682,9.220829010009766,-0.44257286190986633,-2.8338587284088135
1413393887370760500,0.013064108788967133,0.018696457147598267,0.07783780246973038,9.327201843261719,-0.43701425194740295,-2.8663313388824463
1413393887375760500,0.03145120292901993,0.027624454349279404,0.0729198008775711,9.269954681396484,-0.15001678466796875,-2.8747398853302
1413393887380760500,0.018781214952468872,0.008738666772842407,0.07549251616001129,9.129955291748047,0.43295925855636597,-3.011569023132324
1413393887385760500,-0.0001510530710220337,0.03250733017921448,0.08878621459007263,9.496549606323242,0.5072473883628845,-2.9895012378692627
1413393887390760500,-0.031208712607622147,0.015902992337942123,0.07925404608249664,9.34991455078125,0.15271452069282532,-3.0620734691619873
1413393887395760500,-0.03038117289543152,0.020054660737514496,0.08205144852399826,9.38320255279541,-0.07736284285783768,-3.006115198135376
1413393887400760500,-0.02483854815363884,0.0061234161257743835,0.07705998420715332,9.35986328125,-0.3854196071624756,-2.947993755340576
1413393887405760500,-0.004309855401515961,0.021324463188648224,0.08393329381942749,9.68494987487793,-0.3206765949726105,-3.071100950241089
1413393887410760500,0.005367554724216461,0.01867511495947838,0.07852593064308167,9.219449043273926,-0.46848195791244507,-2.8348710536956787
1413393887415760500,0.02722710371017456,0.01515255868434906,0.072831891477108,9.563246726989746,-0.41994383931159973,-2.980970621109009
1413393887420760500,0.030734434723854065,0.022227197885513306,0.07004481554031372,9.268921852111816,0.02280016429722309,-2.981583595275879
1413393887425760500,0.01881687343120575,0.0066205523908138275,0.09024444967508316,9.528304100036621,0.47467654943466187,-3.176321506500244
1413393887430760500,-0.006602860987186432,0.037399500608444214,0.08470112830400467,9.358129501342773,0.3107740581035614,-2.998729944229126
1413393887435760500,-0.03056853637099266,0.017330050468444824,0.08266213536262512,9.309971809387207,-0.003386442083865404,-3.053380012512207
1413393887440760500,-0.0269338209182024,0.027855582535266876,0.08204631507396698,9.229327201843262,-0.1416124701499939,-3.029782295227051
1413393887445760500,-0.012165091931819916,0.013739056885242462,0.08964399248361588,9.286580085754395,-0.3845249116420746,-3.07015323638916
1413393887450760500,0.0068417564034461975,0.03669598698616028,0.0853545293211937,9.384270668029785,-0.5092747211456299,-2.9662513732910156
1413393887455760500,0.02148672565817833,0.015139855444431305,0.0819721668958664,9.18021297454834,-0.4615767300128937,-2.8422532081604004
1413393887460760500,0.03562193363904953,0.024862468242645264,0.07568235695362091,9.408707618713379,-0.18176542222499847,-2.997089385986328
1413393887465760500,0.021512657403945923,0.017994895577430725,0.07902654260396957,9.032527923583984,0.32654380798339844,-3.0130882263183594
1413393887470760500,-0.0016250871121883392,0.024114172905683517,0.0831298828125,9.38251781463623,0.5962245464324951,-2.9883882999420166
1413393887475760500,-0.027001619338989258,0.024181842803955078,0.07922618836164474,9.244990348815918,0.14586050808429718,-2.988483428955078
1413393887480760500,-0.03672438859939575,0.023602783679962158,0.07090899348258972,9.318646430969238,-0.11837569624185562,-3.0703577995300293
1413393887485760500,-0.02406383864581585,0.015254728496074677,0.07921667397022247,9.262192726135254,-0.30445703864097595,-2.973093032836914
1413393887490760500,-0.0050672441720962524,0.029042597860097885,0.07911908626556396,9.538862228393555,-0.3772507607936859,-2.9483330249786377
1413393887495760500,0.01386868953704834,0.024906814098358154,0.07704824209213257,9.285243034362793,-0.5180180072784424,-2.93239426612854
1413393887500760500,0.031432144343853,0.025621667504310608,0.07286891341209412,9.481368064880371,-0.3472059965133667,-2.9653496742248535
1413393887505760500,0.0300234854221344,0.02211785316467285,0.07281635701656342,9.309484481811523,0.11340764164924622,-3.013563394546509
1413393887510760500,0.013877686113119125,0.017077580094337463,0.07969046384096146,9.446830749511719,0.5315178036689758,-3.021416664123535
1413393887515760500,-0.012200258672237396,0.03182113170623779,0.08892447501420975,9.431014060974121,0.38331568241119385,-2.972050905227661
1413393887520760500,-0.034650109708309174,0.026374466717243195,0.07712454348802567,9.439936637878418,0.13558843731880188,-3.1924493312835693
1413393887525760500,-0.026953700929880142,0.02850712090730667,0.08623041957616806,9.359057426452637,-0.27218249440193176,-2.9089837074279785
1413393887530760500,-0.017038898542523384,0.022840406745672226,0.07769405096769333,9.351397514343262,-0.3614303767681122,-3.1177401542663574
1413393887535760500,0.006116822361946106,0.03814816474914551,0.08115118741989136,9.22891616821289,-0.4761801064014435,-2.819399833679199
1413393887540760500,0.024389423429965973,0.021352536976337433,0.08131016045808792,9.359752655029297,-0.428215354681015,-2.9954588413238525
1413393887545760500,0.03635949641466141,0.029047545045614243,0.07640048861503601,9.39157485961914,-0.09259835630655289,-2.8439953327178955
1413393887550760500,0.018747419118881226,0.013751670718193054,0.08322804421186447,9.023774147033691,0.5635440349578857,-3.0508947372436523
1413393887555760500,-0.009315598756074905,0.03529900312423706,0.09161889553070068,9.562429428100586,0.580941379070282,-3.0636346340179443
1413393887560760500,-0.041005849838256836,0.027061019092798233,0.08472075313329697,9.187122344970703,0.2265954166650772,-3.077792167663574
1413393887565760500,-0.03252335265278816,0.03401828557252884,0.08267147839069366,9.530540466308594,-0.4367922842502594,-2.974539279937744
1413393887570760500,-0.01850595511496067,0.022232122719287872,0.06870816648006439,9.205171585083008,-0.5501231551170349,-2.8083584308624268
1413393887575760500,0.007551398128271103,0.028335124254226685,0.07422996312379837,9.270127296447754,-0.5726344585418701,-2.9876341819763184
1413393887580760500,0.022285573184490204,0.01993606984615326,0.06940232217311859,9.294721603393555,-0.28816699981689453,-3.063560724258423
1413393887585760500,0.028058625757694244,0.008078951388597488,0.07488611340522766,9.529509544372559,0.30797481536865234,-3.4068517684936523
1413393887590760500,0.003369629383087158,0.037575215101242065,0.07006140053272247,9.577611923217773,0.4246971309185028,-3.099647283554077
1413393887595760500,-0.027547072619199753,0.028504371643066406,0.06640419363975525,9.618264198303223,0.40754175186157227,-3.1355347633361816
1413393887600760500,-0.03455144912004471,0.04089105874300003,0.059357546269893646,10.01144790649414,-0.5169578790664673,-3.384014368057251
1413393887605760500,-0.008580707013607025,0.019917823374271393,0.06737367063760757,9.503949165344238,-0.6498006582260132,-2.820923089981079
1413393887610760500,0.016109660267829895,0.05073504149913788,0.08360268920660019,9.350135803222656,-0.2874230146408081,-3.1573469638824463
1413393887615760500,0.03341943025588989,0.05710834264755249,0.12426860630512238,8.943195343017578,0.017079303041100502,-2.826380491256714
1413393887620760500,0.023399770259857178,0.03528758883476257,0.15276773273944855,8.99235725402832,-0.035180460661649704,-2.9442334175109863
1413393887625760500,0.023477889597415924,0.05836664140224457,0.1424274444580078,9.433259963989258,-0.2497122585773468,-2.9506022930145264
1413393887630760500,0.016450241208076477,0.03181593120098114,0.11769399046897888,8.87828540802002,-0.058590367436409,-2.7912440299987793
1413393887635760500,0.0012228749692440033,0.02384079620242119,0.10802055895328522,9.13986587524414,0.4823693335056305,-3.0511887073516846
1413393887640760500,-0.03971925750374794,0.05071837455034256,0.08126388490200043,9.074736595153809,0.2043832391500473,-2.669542074203491
1413393887645760500,-0.05172908678650856,0.03364678472280502,0.052779167890548706,9.18033504486084,-0.4949188530445099,-2.952441453933716
1413393887650760500,-0.0200510211288929,0.03143054246902466,0.02356038987636566,9.02745532989502,-1.0834786891937256,-2.7129275798797607
1413393887655760500,0.016091957688331604,0.010837465524673462,0.03182009235024452,8.644180297851562,-0.30370032787323,-2.640857458114624
1413393887660760500,0.03166763484477997,0.048585087060928345,0.049724116921424866,9.46782112121582,-0.03823031112551689,-3.0200347900390625
1413393887665760500,0.011600382626056671,0.03574065864086151,0.05477960407733917,8.519121170043945,0.17712508141994476,-2.628046751022339
1413393887670760500,0.013173259794712067,-0.0010555852204561234,0.06820505112409592,9.4988374710083,0.02792840451002121,-3.208075523376465
1413393887675760500,-0.00014488399028778076,0.03257352113723755,0.06959076970815659,9.391072273254395,0.4559811055660248,-2.7716732025146484
1413393887680760500,-0.008555449545383453,0.003960929811000824,0.13374662399291992,9.167648315429688,0.5491878390312195,-3.1144816875457764
1413393887685760500,-0.03901674970984459,0.03314467519521713,0.10935413837432861,9.546566009521484,-0.1745232492685318,-2.8379201889038086
1413393887690760500,-0.019306261092424393,-0.01561090350151062,0.10838602483272552,9.398902893066406,-0.6367665529251099,-2.9714670181274414
1413393887695760500,0.00047673657536506653,0.003925509750843048,0.07190926373004913,10.18921947479248,-0.4060119390487671,-3.066514730453491
1413393887700760500,0.01044236496090889,-0.007985137403011322,0.1074511930346489,9.518571853637695,0.23790092766284943,-3.0874273777008057
1413393887705760500,-0.007312191650271416,0.04223768413066864,0.06696155667304993,9.98612117767334,-0.49905094504356384,-3.295238971710205
1413393887710760500,0.012347735464572906,0.007861252874135971,0.06873144954442978,8.92446231842041,-0.3187492787837982,-2.27260160446167
1413393887715760500,0.02669135481119156,0.00668691098690033,0.05273580923676491,10.354270935058594,-0.4429943263530731,-3.424952983856201
1413393887720760500,0.02169492468237877,0.03525958210229874,0.06636543571949005,8.890435218811035,0.8277316689491272,-2.828972578048706
1413393887725760500,0.0018009915947914124,0.03104838728904724,0.09497062116861343,9.529919624328613,0.45207780599594116,-3.2939066886901855
1413393887730760500,-0.021619094535708427,0.07696636766195297,0.07811501622200012,8.708520889282227,-0.046184200793504715,-2.461197853088379
1413393887735760500,-0.010108357295393944,-0.0007741823792457581,0.09561152756214142,9.017365455627441,0.010682777501642704,-2.9954733848571777
1413393887740760500,-0.013567609712481499,0.0443471297621727,0.07563796639442444,9.378376960754395,-0.22759555280208588,-3.2850193977355957
1413393887745760500,-0.008619546890258789,0.025390625,0.10824357718229294,8.675210952758789,-0.09889581054449081,-2.9159324169158936
1413393887750760500,-0.014313507825136185,0.059100836515426636,0.08490274846553802,9.044550895690918,-0.6755495071411133,-2.891723394393921
1413393887755760500,0.001198258250951767,0.014828462153673172,0.07933425903320312,8.578680038452148,-0.24952632188796997,-2.635687828063965
1413393887760760500,0.02098684012889862,-0.005278073251247406,0.05519697070121765,9.752344131469727,-0.4565701186656952,-3.3964130878448486
1413393887765760500,0.020269453525543213,0.014162670820951462,0.06271760910749435,9.09734058380127,0.3431842029094696,-2.9538609981536865
1413393887770760500,0.006206192076206207,0.019783522933721542,0.07620204240083694,9.848226547241211,0.06562597304582596,-3.5610039234161377
1413393887775760500,-0.016674887388944626,0.04709998518228531,0.04310281202197075,8.583741188049316,0.1199524775147438,-2.347686767578125
1413393887780760500,-0.010164692997932434,-0.021586734801530838,0.07587685436010361,9.489523887634277,-0.14051593840122223,-2.988673210144043
1413393887785760500,-0.01777089387178421,0.010680682957172394,0.04913463816046715,10.060381889343262,-0.24674344062805176,-3.2884256839752197
1413393887790760500,-0.002199403941631317,0.0035911500453948975,0.09857718646526337,9.313887596130371,0.11218755692243576,-2.8100461959838867
1413393887795760500,-0.012824347242712975,0.04587666690349579,0.08982574939727783,9.987235069274902,-0.27261608839035034,-3.0969865322113037
1413393887800760500,-0.013643279671669006,0.01649503782391548,0.08354855328798294,8.80328369140625,-0.24076451361179352,-2.7196500301361084
1413393887805760500,0.013867471367120743,0.0031989365816116333,0.0901726484298706,10.255249977111816,-0.641083300113678,-3.281733989715576
1413393887810760500,0.022420566529035568,0.033012643456459045,0.09924835711717606,9.005793571472168,0.05535809323191643,-2.804170846939087
1413393887815760500,0.022514156997203827,0.03424776345491409,0.11110851168632507,9.732694625854492,0.35134178400039673,-3.2060036659240723
1413393887820760500,-0.006149843335151672,0.05308540165424347,0.08700161427259445,9.08285903930664,-0.042015787214040756,-2.6471633911132812
1413393887825760500,-0.006692025810480118,0.012697998434305191,0.08395686000585556,9.236201286315918,-0.029470836743712425,-3.007296085357666
1413393887830760500,0.0004417411983013153,0.02824382483959198,0.07475781440734863,9.645661354064941,-0.25488799810409546,-3.146547317504883
1413393887835760500,0.0011380985379219055,0.03651754558086395,0.08036801218986511,8.625205993652344,0.16355332732200623,-2.8471474647521973
1413393887840760500,-0.007958484813570976,0.030340474098920822,0.08984702825546265,9.173455238342285,0.22660550475120544,-2.9139933586120605
1413393887845760500,-0.020760193467140198,0.03233528882265091,0.06700003892183304,8.7909517288208,-0.16649244725704193,-2.684718370437622
1413393887850760500,-0.010737977921962738,-0.008470732718706131,0.07139871269464493,9.041979789733887,-0.16800124943256378,-3.0349395275115967
1413393887855760500,0.006979219615459442,0.01200946420431137,0.07403317838907242,9.337369918823242,-0.24628597497940063,-3.131237268447876
1413393887860760500,0.011117469519376755,0.003132309764623642,0.07708410173654556,8.788825988769531,0.05684798210859299,-2.7356719970703125
1413393887865760500,0.008351821452379227,0.012460481375455856,0.07019500434398651,9.775747299194336,0.10358308255672455,-3.0782299041748047
1413393887870760500,-0.0038997195661067963,0.004425048828125,0.06327822804450989,8.950401306152344,0.030429359525442123,-2.760977268218994
1413393887875760500,-0.00869082286953926,-0.012175500392913818,0.07770439982414246,9.578210830688477,0.006206153891980648,-3.2815327644348145
1413393887880760500,-0.007910162210464478,0.028923891484737396,0.0874522477388382,9.652957916259766,-0.13980574905872345,-3.1415927410125732
1413393887885760500,-0.005139831453561783,0.009661167860031128,0.08333788812160492,9.161188125610352,-0.30355843901634216,-3.0136430263519287
1413393887890760500,-0.004350043833255768,0.014481045305728912,0.0770663246512413,10.019347190856934,-0.10183049738407135,-2.9836959838867188
1413393887895760500,-0.0030813664197921753,0.018811635673046112,0.07633018493652344,9.413908958435059,-0.1316671520471573,-2.882253408432007
1413393887900760500,-0.010761765763163567,0.015018600970506668,0.07332064211368561,9.7155122756958,-0.11589685082435608,-3.1528587341308594
1413393887905760500,-0.0036970749497413635,0.030324697494506836,0.08404282480478287,9.693242073059082,-0.345244824886322,-3.0414373874664307
1413393887910760500,0.013206534087657928,0.023555882275104523,0.09066937863826752,9.145048141479492,-0.36133286356925964,-2.9232101440429688
1413393887915760500,0.014688313007354736,0.022883333265781403,0.07283178716897964,9.60373592376709,0.07206152379512787,-2.9966251850128174
1413393887920760500,0.004569090902805328,0.024909432977437973,0.0781869888305664,9.040789604187012,0.10650216788053513,-2.7989470958709717
1413393887925760500,-0.008773289620876312,0.012046225368976593,0.08461802452802658,9.546697616577148,0.06304431706666946,-3.1505966186523438
1413393887930760500,-0.009966453537344933,0.04936094582080841,0.09535995870828629,9.669578552246094,0.0371210016310215,-3.1381208896636963
1413393887935760500,-0.003789301961660385,0.0399380698800087,0.10114459693431854,8.518477439880371,-0.19718678295612335,-2.888622283935547
1413393887940760500,0.0018789730966091156,0.022018130868673325,0.08752411603927612,9.46819019317627,-0.28046366572380066,-2.898813009262085
1413393887945760500,0.010347161442041397,0.049964189529418945,0.08171603828668594,9.04995059967041,-0.08509426563978195,-2.839359760284424
1413393887950760500,0.006662376224994659,0.005260728299617767,0.08598437905311584,8.722707748413086,0.04747866466641426,-2.822662115097046
1413393887955760500,-0.0072501059621572495,0.02615600824356079,0.07137058675289154,9.656545639038086,0.0959419459104538,-3.21018123626709
1413393887960760500,-0.005830258131027222,0.03981637954711914,0.08009744435548782,8.97571086883545,0.03859357908368111,-2.998832941055298
1413393887965760500,0.004013609141111374,0.002052459865808487,0.07942724227905273,8.9596586227417,-0.2142632156610489,-2.81687068939209
1413393887970760500,0.0006370395421981812,0.021973732858896255,0.05510244145989418,9.524102210998535,0.14419735968112946,-2.9393422603607178
1413393887975760500,-0.00034195929765701294,0.008014187216758728,0.06918996572494507,8.835570335388184,0.15483775734901428,-2.716832160949707
1413393887980760500,-0.014292236417531967,0.004564210772514343,0.06315534561872482,9.987513542175293,0.03848451375961304,-3.2010996341705322
1413393887985760500,-0.018447358161211014,0.04747194051742554,0.066072478890419,9.64329719543457,-0.09408075362443924,-2.854318618774414
1413393887990760500,-0.010111184790730476,0.005510564893484116,0.0822100043296814,9.332301139831543,-0.5002517104148865,-2.832242965698242
1413393887995760500,0.001247357577085495,0.029058605432510376,0.07984200119972229,10.011966705322266,-0.598851203918457,-2.9913885593414307
1413393888000760500,0.011965952813625336,0.038115471601486206,0.07408201694488525,9.192461013793945,0.13676002621650696,-2.9709551334381104
1413393888005760500,0.01736169308423996,0.0037378184497356415,0.0873744785785675,9.267651557922363,0.20583876967430115,-2.9229042530059814
1413393888010760500,0.008171327412128448,0.016435734927654266,0.09033332020044327,9.841014862060547,0.07127875089645386,-3.128336191177368
1413393888015760500,-0.010840712115168571,0.03062313050031662,0.08622416853904724,9.364826202392578,0.09445646405220032,-3.078974723815918
1413393888020760500,-0.009460579603910446,0.00471159815788269,0.10156886279582977,9.465008735656738,-0.2613111734390259,-2.94860577583313
1413393888025760500,0.0011519119143486023,0.02269037812948227,0.08890923112630844,9.44179630279541,-0.5653212070465088,-2.9812729358673096
1413393888030760500,0.002522476017475128,0.012302674353122711,0.07055579870939255,9.007503509521484,-0.1351269781589508,-2.6934003829956055
1413393888035760500,0.01099485531449318,0.0019049905240535736,0.08316854387521744,9.327167510986328,0.16319401562213898,-3.0344998836517334
1413393888040760500,-0.0010045282542705536,0.01858477294445038,0.08146566152572632,9.22922420501709,0.17891693115234375,-2.9168646335601807
1413393888045760500,-0.013651538640260696,0.011749759316444397,0.07300377637147903,9.074809074401855,-0.04421747848391533,-3.011990785598755
1413393888050760500,-0.013521773740649223,0.02519351616501808,0.07915070652961731,9.46689224243164,-0.10089099407196045,-3.01542329788208
1413393888055760500,-0.0007934793829917908,0.035539790987968445,0.07713679224252701,8.968151092529297,-0.3112154006958008,-2.9062716960906982
1413393888060760500,0.010453831404447556,0.014305725693702698,0.06926189363002777,9.26220417022705,-0.19867461919784546,-2.890626907348633
1413393888065760500,0.012400388717651367,0.019966907799243927,0.07836101204156876,9.13957691192627,0.09588650614023209,-2.8894073963165283
1413393888070760500,0.008818205446004868,0.010836556553840637,0.0856565609574318,9.317988395690918,0.1297162026166916,-3.0452568531036377
1413393888075760500,-0.0086671132594347,0.013724785298109055,0.07715419679880142,9.619976997375488,0.18565808236598969,-3.2193028926849365
1413393888080760500,-0.02265654318034649,0.036282606422901154,0.07966075837612152,9.512785911560059,0.06310006231069565,-3.1384902000427246
1413393888085760500,-0.01350562833249569,0.027155056595802307,0.081206776201725,9.171012878417969,-0.3611792027950287,-3.0719056129455566
1413393888090760500,0.002793446183204651,0.02409856766462326,0.07564137876033783,9.571388244628906,-0.2978922724723816,-3.0070691108703613
1413393888095760500,0.01390976831316948,0.021232247352600098,0.07700075209140778,9.137507438659668,-0.07488065212965012,-2.922696828842163
1413393888100760500,0.015188608318567276,0.01563815027475357,0.08196479827165604,9.578781127929688,0.024121373891830444,-3.1281633377075195
1413393888105760500,0.00536259263753891,0.020073067396879196,0.0784798115491867,9.595184326171875,0.12820100784301758,-3.1384167671203613
1413393888110760500,-0.014177542179822922,0.04256539046764374,0.0670272558927536,9.683307647705078,0.26732903718948364,-3.226933479309082
1413393888115760500,-0.01710725761950016,0.04962626099586487,0.08056358993053436,9.194955825805664,-0.15563766658306122,-2.794644594192505
1413393888120760500,-0.004388537257909775,0.023366764187812805,0.08918513357639313,9.432476997375488,-0.4526730477809906,-2.8481814861297607
1413393888125760500,0.008308067917823792,0.030170291662216187,0.08761633932590485,9.122234344482422,-0.19095084071159363,-2.815857410430908
1413393888130760500,0.013112980872392654,0.01703955978155136,0.09094859659671783,9.456818580627441,0.04100840911269188,-2.9786736965179443
1413393888135760500,0.011606790125370026,0.024244103580713272,0.08607878535985947,9.433049201965332,-0.025416340678930283,-3.0716233253479004
1413393888140760500,-0.014272840693593025,0.02784530073404312,0.07261601090431213,9.562358856201172,0.273971825838089,-3.1690220832824707
1413393888145760500,-0.023412782698869705,0.05245558172464371,0.07138548791408539,9.203855514526367,-0.04128590598702431,-2.8339436054229736
1413393888150760500,-0.008603060618042946,0.035475969314575195,0.07945586740970612,8.976478576660156,-0.4754461944103241,-2.8390653133392334
1413393888155760500,0.010454673320055008,0.01685209944844246,0.08154887706041336,9.07522201538086,-0.42049866914749146,-2.816251039505005
1413393888160760500,0.019462216645479202,0.021920911967754364,0.07837355136871338,9.07455062866211,0.015506892465054989,-2.789647340774536
1413393888165760500,0.01436903327703476,0.016652323305606842,0.08032737672328949,9.368523597717285,0.008895623497664928,-3.1271989345550537
1413393888170760500,0.0010636486113071442,0.011064834892749786,0.0706503838300705,9.228840827941895,0.3560536801815033,-2.908987283706665
1413393888175760500,-0.02057918906211853,0.025713879615068436,0.07207382470369339,9.546032905578613,0.30878838896751404,-3.061098098754883
1413393888180760500,-0.03402195870876312,0.040557317435741425,0.07522682845592499,9.089385986328125,-0.28680890798568726,-2.769897222518921
1413393888185760500,-0.012106064707040787,0.004500672221183777,0.09070568531751633,9.2371187210083,-0.7395588755607605,-2.873196601867676
1413393888190760500,0.01692618802189827,0.012646444141864777,0.08546537160873413,9.506275177001953,-0.2080838531255722,-2.989586591720581
1413393888195760500,0.02227994054555893,0.012377489358186722,0.09078472852706909,9.333258628845215,0.05047428235411644,-2.939656972885132
1413393888200760500,0.010140176862478256,-0.0015154499560594559,0.0732918381690979,9.700963020324707,0.112472303211689,-3.1047122478485107
1413393888205760500,-0.006540980190038681,0.0032335668802261353,0.06140729412436485,9.757017135620117,0.33065593242645264,-3.228034257888794
1413393888210760500,-0.021870285272598267,0.0412118136882782,0.06312580406665802,9.519622802734375,0.10559005290269852,-3.0884616374969482
1413393888215760500,-0.019163494929671288,0.02099992334842682,0.0851907879114151,8.97533130645752,-0.3685039281845093,-2.939918041229248
1413393888220760500,0.0005440898239612579,0.007116168737411499,0.08502151072025299,9.466432571411133,-0.5598968863487244,-2.9322049617767334
1413393888225760500,0.018875420093536377,0.019809268414974213,0.09582412242889404,9.325947761535645,-0.15764132142066956,-2.995966672897339
1413393888230760500,0.01729920133948326,0.016686800867319107,0.08723341673612595,9.456454277038574,0.1309586614370346,-3.2266221046447754
1413393888235760500,0.005228489637374878,0.012361768633127213,0.07598868012428284,9.473600387573242,0.2598129212856293,-3.0820441246032715
1413393888240760500,-0.016342971473932266,0.014409184455871582,0.07058720290660858,9.741266250610352,0.24199385941028595,-3.2918081283569336
1413393888245760500,-0.026885434985160828,0.05255108326673508,0.07884561270475388,9.02332592010498,-0.230275958776474,-2.8440210819244385
1413393888250760500,-0.004347551614046097,0.029830384999513626,0.09291622042655945,9.099223136901855,-0.6071352362632751,-2.8721587657928467
1413393888255760500,0.02026023343205452,0.018200956284999847,0.09810373187065125,9.173017501831055,-0.32982417941093445,-2.7761294841766357
1413393888260760500,0.02786991000175476,0.02272731438279152,0.08855699747800827,9.310272216796875,-0.02465714141726494,-2.9943532943725586
1413393888265760500,0.015735439956188202,0.02294209599494934,0.07802629470825195,9.375815391540527,0.244111567735672,-3.1373131275177
1413393888270760500,-0.013063615188002586,0.017893746495246887,0.048089999705553055,9.481986045837402,0.24277259409427643,-3.1048245429992676
1413393888275760500,-0.021926430985331535,0.03691001236438751,0.054741133004426956,9.350217819213867,0.17789654433727264,-3.0544023513793945
1413393888280760500,-0.021940577775239944,0.04906219244003296,0.06300747394561768,8.999886512756348,-0.23016171157360077,-2.669265031814575
1413393888285760500,-0.006479673087596893,0.021334391087293625,0.09088608622550964,8.993182182312012,-0.5178878307342529,-2.67464280128479
1413393888290760500,0.009860523045063019,0.00899096205830574,0.09875165671110153,9.46546459197998,0.200698122382164,-3.0272934436798096
1413393888295760500,0.004695475101470947,0.019984383136034012,0.08642622083425522,9.243997573852539,0.27869459986686707,-2.9152042865753174
1413393888300760500,-0.01225365325808525,0.011879127472639084,0.07023269683122635,9.620622634887695,-0.10007372498512268,-3.3167970180511475
1413393888305760500,-0.009999791160225868,0.015863358974456787,0.07765848189592361,9.635838508605957,-0.10396071523427963,-3.026862859725952
1413393888310760500,0.004106156527996063,0.0411129891872406,0.07101695984601974,9.70814037322998,-0.7032632827758789,-3.0216519832611084
1413393888315760500,0.03429654985666275,0.04464510828256607,0.09990920126438141,9.169520378112793,-0.557286262512207,-2.736966371536255
1413393888320760500,0.053093574941158295,0.006312336772680283,0.11435267329216003,9.35858154296875,-0.10025309771299362,-2.969540596008301
1413393888325760500,0.021397974342107773,0.030054554343223572,0.09325685352087021,9.756685256958008,0.6864974498748779,-3.2095887660980225
1413393888330760500,-0.03360213339328766,0.023020274937152863,0.06422780454158783,9.274163246154785,0.8912177681922913,-3.1360199451446533
1413393888335760500,-0.05165943130850792,0.023762110620737076,0.06355404108762741,9.384110450744629,0.14483611285686493,-3.1126227378845215
1413393888340760500,-0.055618979036808014,0.04184693843126297,0.04888700693845749,9.36054515838623,-0.48718497157096863,-2.7040088176727295
1413393888345760500,-0.017432276159524918,0.008269380778074265,0.07981762290000916,8.951075553894043,-0.7550525069236755,-2.8790781497955322
1413393888350760500,0.03950268775224686,0.015564005821943283,0.11539189517498016,9.319290161132812,-0.4019465148448944,-2.900090456008911
1413393888355760500,0.04704870283603668,0.009135894477367401,0.10911497473716736,9.334700584411621,0.2757495045661926,-3.1101608276367188
1413393888360760500,0.015061069279909134,0.022858187556266785,0.08522676676511765,9.53718376159668,0.4395277798175812,-3.105691432952881
1413393888365760500,-0.010327652096748352,0.028084799647331238,0.0707426518201828,9.652708053588867,-0.05102315545082092,-3.227506160736084
1413393888370760500,-0.011385593563318253,0.0467156320810318,0.05055142566561699,9.546031951904297,-0.3054788112640381,-2.8692429065704346
1413393888375760500,0.012689795345067978,0.03958548605442047,0.08186797052621841,8.925882339477539,-0.025059571489691734,-2.715023994445801
1413393888380760500,0.006872907280921936,0.03376586735248566,0.08109403401613235,9.269911766052246,0.3685261905193329,-3.1976511478424072
1413393888385760500,-0.03346654772758484,0.050673916935920715,0.06937317550182343,9.204204559326172,0.4398234486579895,-3.0791847705841064
1413393888390760500,-0.05450800433754921,0.02925301343202591,0.07170221209526062,9.351073265075684,0.16012850403785706,-3.1523377895355225
1413393888395760500,-0.050265707075595856,0.043273285031318665,0.05985332280397415,9.320114135742188,-0.8684554100036621,-2.6498324871063232
1413393888400760500,-0.004045359790325165,0.029949672520160675,0.07656698673963547,8.633970260620117,-0.8618747591972351,-2.6168599128723145
1413393888405760500,0.04809087514877319,-0.002588484436273575,0.09167791903018951,9.27942180633545,-0.686944305896759,-2.931810140609741
1413393888410760500,0.053372159600257874,-0.0019632671028375626,0.07592479139566422,9.293447494506836,0.0735129714012146,-2.948753595352173
1413393888415760500,0.037404127418994904,0.0010174773633480072,0.07180742174386978,9.594075202941895,0.2528676986694336,-3.055676221847534
1413393888420760500,0.005625903606414795,0.002680014818906784,0.08429531008005142,9.635196685791016,0.5050144791603088,-2.933210849761963
1413393888425760500,-0.01586369425058365,0.016716662794351578,0.09588238596916199,9.340285301208496,0.45763954520225525,-2.830888271331787
1413393888430760500,-0.045868128538131714,0.004786863923072815,0.08636433631181717,9.079899787902832,0.5137976408004761,-2.9438374042510986
1413393888435760500,-0.06276030838489532,0.008106101304292679,0.0758143737912178,9.767608642578125,-0.35375598073005676,-3.119786500930786
1413393888440760500,-0.05293675512075424,0.01800868660211563,0.05050737410783768,9.154787063598633,-0.6114783883094788,-2.8589799404144287
1413393888445760500,0.007705368101596832,0.013109073042869568,0.0887945368885994,9.6050386428833,-0.9024622440338135,-2.981776714324951
1413393888450760500,0.044427454471588135,0.037784136831760406,0.09047073870897293,9.261341094970703,-0.1164703294634819,-2.9571194648742676
1413393888455760500,0.056938350200653076,0.029829829931259155,0.10731562972068787,9.242860794067383,0.2043466567993164,-3.0373754501342773
1413393888460760500,0.024982169270515442,0.043667182326316833,0.059443630278110504,9.20435905456543,0.15338239073753357,-3.088449478149414
1413393888465760500,0.011675022542476654,0.014148738235235214,0.08134030550718307,9.407316207885742,0.3729076087474823,-3.1447625160217285
1413393888470760500,0.0038963109254837036,0.028159160166978836,0.08811713010072708,9.448351860046387,0.18839804828166962,-3.0301454067230225
1413393888475760500,-0.02152903378009796,0.027872484177350998,0.09196872264146805,8.641448974609375,0.4905294179916382,-2.87934947013855
1413393888480760500,-0.04822852462530136,0.006103552877902985,0.08942380547523499,9.37766170501709,-0.0183149091899395,-3.102228879928589
1413393888485760500,-0.05805695429444313,0.007498979568481445,0.05620560050010681,9.238200187683105,-0.5187729597091675,-3.1051368713378906
1413393888490760500,-0.002890918403863907,-0.0024274438619613647,0.08147545158863068,9.570707321166992,-0.6665877103805542,-2.878477096557617
1413393888495760500,0.02401117980480194,0.011474967002868652,0.07954050600528717,9.98824405670166,-0.5896506905555725,-3.3263533115386963
1413393888500760500,0.03164278715848923,0.05238623172044754,0.0772794559597969,8.883732795715332,0.048271626234054565,-2.6320438385009766
1413393888505760500,0.01461419090628624,0.02229899913072586,0.06969182938337326,9.660737037658691,-0.08238528668880463,-3.2063071727752686
1413393888510760500,0.009711124002933502,0.041678354144096375,0.07695110142230988,9.610806465148926,-0.042815785855054855,-3.140882730484009
1413393888515760500,0.029379069805145264,0.02878766506910324,0.1110217422246933,9.567363739013672,0.2113337516784668,-3.0368194580078125
1413393888520760500,0.003992825746536255,0.08982434123754501,0.10283239185810089,9.269405364990234,0.46750515699386597,-3.192218780517578
1413393888525760500,-0.029351700097322464,0.05453784018754959,0.099619060754776,8.73148250579834,0.25283047556877136,-2.5862157344818115
1413393888530760500,-0.05314011871814728,0.02975992113351822,0.06091070547699928,9.466984748840332,-0.26619696617126465,-3.399855613708496
1413393888535760500,-0.02272113785147667,0.05625995993614197,0.07043901085853577,9.196136474609375,-0.5111367106437683,-2.765881061553955
1413393888540760500,0.014731884002685547,0.02669256180524826,0.08480735868215561,9.115352630615234,-0.6473789215087891,-2.9853267669677734
1413393888545760500,0.02802237868309021,0.04226559400558472,0.07682576030492783,8.611482620239258,-0.2145574688911438,-2.5406365394592285
1413393888550760500,0.018588200211524963,-0.007004782557487488,0.053515419363975525,8.660045623779297,-0.18128225207328796,-2.549027919769287
1413393888555760500,0.019516054540872574,-0.012172877788543701,0.05568229407072067,9.90656852722168,0.14424382150173187,-3.340604543685913
1413393888560760500,0.017451852560043335,0.024733610451221466,0.07244865596294403,9.511162757873535,0.6037591695785522,-3.1647863388061523
1413393888565760500,-0.001030799001455307,0.032533057034015656,0.10946469753980637,9.153556823730469,0.43398231267929077,-2.645272731781006
1413393888570760500,-0.03558022528886795,0.042908065021038055,0.08251126110553741,9.099695205688477,-0.02717818319797516,-2.657625913619995
1413393888575760500,-0.03127572685480118,-0.005667166784405708,0.07227005064487457,9.447896957397461,-0.3809944987297058,-2.9121804237365723
1413393888580760500,-0.005075328052043915,0.023789308965206146,0.08091126382350922,9.822466850280762,-0.468302845954895,-3.1448774337768555
1413393888585760500,0.009694434702396393,0.01836094632744789,0.10825883597135544,9.593774795532227,-0.059563882648944855,-2.7885682582855225
1413393888590760500,0.00896700844168663,0.030648812651634216,0.09745431691408157,9.643821716308594,-0.17352671921253204,-3.0043537616729736
1413393888595760500,-0.0017925277352333069,0.0268234983086586,0.06329496949911118,9.439172744750977,-0.5266813635826111,-2.631179094314575
1413393888600760500,0.014671031385660172,0.025648154318332672,0.048792846500873566,9.642837524414062,-0.37924137711524963,-3.1498472690582275
1413393888605760500,0.029296651482582092,0.010302729904651642,0.06688002496957779,9.66696548461914,0.00014828860003035516,-2.633314371109009
1413393888610760500,0.010875135660171509,0.025135822594165802,0.0777476355433464,9.618803977966309,-0.0069074551574885845,-2.755138397216797
1413393888615760500,-0.011729765683412552,0.05534954369068146,0.07139189541339874,9.073182106018066,0.08660559356212616,-2.570176362991333
1413393888620760500,-0.017240585759282112,0.013454876840114594,0.08732754737138748,9.172808647155762,0.03899778053164482,-3.1380529403686523
1413393888625760500,-0.006350673735141754,0.02328595146536827,0.11389803886413574,9.554673194885254,0.26872313022613525,-3.3427681922912598
1413393888630760500,-0.017763204872608185,0.025358088314533234,0.11500342190265656,9.317658424377441,-0.0911603644490242,-3.10536789894104
1413393888635760500,-0.0198565311729908,0.03825363516807556,0.08107706904411316,9.107872009277344,-0.3072044551372528,-2.9404191970825195
1413393888640760500,0.016742214560508728,-0.00018251687288284302,0.08156385272741318,8.994588851928711,-0.5520403981208801,-2.750985860824585
1413393888645760500,0.03590896725654602,0.008076328784227371,0.08623284101486206,9.579492568969727,0.062329575419425964,-3.150460720062256
1413393888650760500,0.01022518053650856,0.030670005828142166,0.07533185929059982,9.292643547058105,0.24555301666259766,-2.9914581775665283
1413393888655760500,-0.016545340418815613,0.0620298832654953,0.05098366364836693,9.392925262451172,-0.01842106319963932,-3.242781639099121
1413393888660760500,0.003191925585269928,0.0026072897017002106,0.06980843096971512,8.406052589416504,-0.03732218220829964,-2.3855319023132324
1413393888665760500,0.013452574610710144,0.024787593632936478,0.09812363982200623,9.767338752746582,0.39849573373794556,-3.1456961631774902
1413393888670760500,-0.018685154616832733,0.07053131610155106,0.06830697506666183,9.382993698120117,-0.1938227117061615,-3.083156108856201
1413393888675760500,-0.0224835816770792,0.022875841706991196,0.07995305955410004,8.608048439025879,-0.6260820031166077,-2.5226778984069824
1413393888680760500,0.025286033749580383,0.01557949185371399,0.09641116112470627,9.501709938049316,-0.3972730338573456,-3.0613625049591064
1413393888685760500,0.007752366364002228,0.015256229788064957,0.09723017364740372,9.234526634216309,0.5652278065681458,-3.1352269649505615
1413393888690760500,-0.03207823634147644,0.04038732498884201,0.05343828350305557,9.634639739990234,-0.20928211510181427,-3.202579975128174
1413393888695760500,-0.009593281894922256,-0.01792057603597641,0.05834309384226799,8.593435287475586,-0.571171224117279,-2.445207357406616
1413393888700760500,0.027013354003429413,0.023313090205192566,0.06480027735233307,9.858131408691406,-0.12764084339141846,-2.9759814739227295
1413393888705760500,0.007755391299724579,0.017089642584323883,0.07471678406000137,9.527716636657715,0.5190744400024414,-3.3975670337677
1413393888710760500,-0.02829519286751747,0.0271092988550663,0.053956013172864914,9.087749481201172,-0.3007054328918457,-2.5270822048187256
1413393888715760500,0.014453593641519547,-0.002842601388692856,0.09066061675548553,9.752899169921875,-0.8427774310112,-2.898622989654541
1413393888720760500,0.03548209369182587,0.011701546609401703,0.11422687768936157,9.412964820861816,0.6487745046615601,-3.4214751720428467
1413393888725760500,-0.009527092799544334,0.06298813223838806,0.08345126360654831,9.991744041442871,0.26836684346199036,-2.9837958812713623
1413393888730760500,-0.029583044350147247,0.030522219836711884,0.09014193713665009,9.18749713897705,-0.7057938575744629,-3.022716999053955
1413393888735760500,0.013434052467346191,0.04437796026468277,0.10353419929742813,8.85248851776123,0.07692469656467438,-2.4896388053894043
1413393888740760500,0.004553698003292084,0.05705203115940094,0.10211290419101715,10.485991477966309,0.23148810863494873,-3.660038471221924
1413393888745760500,-0.023342274129390717,0.04878959804773331,0.05575548857450485,8.401274681091309,-0.413326233625412,-2.390577793121338
1413393888750760500,0.004514176398515701,0.013417750597000122,0.06167260557413101,8.742119789123535,-0.3363301753997803,-2.662081718444824
1413393888755760500,0.03787156939506531,0.04076553136110306,0.10887663811445236,10.46470832824707,0.36367151141166687,-3.6440587043762207
1413393888760760500,-0.009657306596636772,0.08081677556037903,0.059496164321899414,8.424211502075195,-0.052341967821121216,-2.556950330734253
1413393888765760500,-0.014994509518146515,-0.009369038045406342,0.033943284302949905,8.922075271606445,-0.5275181531906128,-2.594006299972534
1413393888770760500,0.01652393490076065,0.011612776666879654,0.09777442365884781,9.819549560546875,0.5326557755470276,-3.6331889629364014
1413393888775760500,-0.007101088762283325,0.07845830172300339,0.07055480778217316,8.499613761901855,-0.2728549540042877,-2.7861249446868896
1413393888780760500,-0.03883964940905571,0.017760630697011948,0.02261357381939888,8.73451042175293,-0.5919542908668518,-2.5378189086914062
1413393888785760500,0.01063334196805954,0.010491456836462021,0.1052180603146553,9.892291069030762,0.40135714411735535,-3.4784202575683594
1413393888790760500,0.012795019894838333,0.07198241353034973,0.1117611899971962,8.948221206665039,-0.2894088923931122,-2.778386116027832
1413393888795760500,-0.005593739449977875,0.010762285441160202,0.0625452920794487,8.81319808959961,-0.7878968715667725,-2.3759074211120605
1413393888800760500,0.018512826412916183,-0.034522656351327896,0.09510838985443115,8.945263862609863,0.5231509208679199,-2.9935905933380127
1413393888805760500,0.01358681172132492,0.009842857718467712,0.11684979498386383,9.82163143157959,0.5450793504714966,-3.2493200302124023
1413393888810760500,-0.025856588035821915,0.013954434543848038,0.062342312186956406,9.56902027130127,-0.8585381507873535,-2.7503371238708496
1413393888815760500,-0.016871025785803795,-0.027965374290943146,0.04897373542189598,8.70683765411377,-0.23314079642295837,-2.8088033199310303
1413393888820760500,0.009455099701881409,0.010320104658603668,0.09293505549430847,10.339284896850586,0.4347236752510071,-3.4693689346313477
1413393888825760500,-0.009288761764764786,0.03590238839387894,0.10030398517847061,9.704253196716309,-0.37925875186920166,-2.6667680740356445
1413393888830760500,-0.011231468990445137,-0.009003505110740662,0.04762174189090729,8.507623672485352,-0.3862062990665436,-2.8628897666931152
1413393888835760500,0.031667448580265045,-0.0038599520921707153,0.1158989816904068,10.284181594848633,0.31264612078666687,-3.284970998764038
1413393888840760500,0.004312530159950256,0.05818423628807068,0.10864628106355667,9.804388999938965,-0.1170499324798584,-3.348487615585327
1413393888845760500,-0.011922482401132584,0.023069120943546295,0.06116535887122154,7.984745979309082,-0.07773611694574356,-2.4259531497955322
1413393888850760500,0.01747611165046692,0.010305702686309814,0.1107645183801651,9.861764907836914,0.40238144993782043,-3.3267199993133545
1413393888855760500,-0.0005296245217323303,0.06523682177066803,0.09188809990882874,9.765680313110352,0.04208296164870262,-3.2128305435180664
1413393888860760500,-0.02675296738743782,0.037617072463035583,0.014041125774383545,7.731874942779541,-0.2074638158082962,-2.3227169513702393
1413393888865760500,-0.001627407968044281,-0.01840340346097946,0.07908283919095993,9.985157012939453,0.4928825795650482,-3.32912015914917
1413393888870760500,-0.006833974272012711,0.04269512742757797,0.08544468879699707,9.660778045654297,0.09980563819408417,-3.1959123611450195
1413393888875760500,-0.02429404854774475,0.050364717841148376,0.031960200518369675,8.539122581481934,-0.4697103500366211,-2.367000102996826
1413393888880760500,0.004715640097856522,-0.014308067038655281,0.08569788932800293,9.444973945617676,0.14023610949516296,-3.125493288040161
1413393888885760500,0.024689041078090668,0.02143612876534462,0.11733124405145645,9.800082206726074,-0.2915315330028534,-3.179105043411255
1413393888890760500,-0.0012023597955703735,0.0493311807513237,0.061114829033613205,8.685591697692871,-0.6635391712188721,-2.2120485305786133
1413393888895760500,0.006118696182966232,0.005335148423910141,0.08593320101499557,10.27375316619873,0.3775376081466675,-3.557821273803711
1413393888900760500,0.004818126559257507,0.03627178072929382,0.11881881952285767,9.72420597076416,0.1187746524810791,-3.1912639141082764
1413393888905760500,-0.036898672580718994,0.06031647324562073,0.044517964124679565,9.470529556274414,-0.7841675877571106,-3.0860512256622314
1413393888910760500,-0.029758060351014137,0.030259378254413605,0.035521961748600006,9.408496856689453,0.03331944718956947,-3.107518434524536
1413393888915760500,0.006985064595937729,0.01236029714345932,0.10540667176246643,9.07295036315918,-0.07710382342338562,-2.9033305644989014
1413393888920760500,-0.005903612822294235,0.0462755486369133,0.057530831545591354,9.923333168029785,-1.297351598739624,-3.0307350158691406
1413393888925760500,0.00048325955867767334,0.02978801727294922,0.03492608293890953,8.959319114685059,0.1369127780199051,-3.3177402019500732
1413393888930760500,0.03846018761396408,0.016257397830486298,0.13735505938529968,8.715174674987793,0.5190278887748718,-2.6938321590423584
1413393888935760500,0.01081617921590805,0.02592085301876068,0.09735480695962906,10.080010414123535,-0.8630098104476929,-2.7845349311828613
1413393888940760500,-0.008732764050364494,0.03634856641292572,0.059997573494911194,9.444483757019043,0.2725117802619934,-2.9568023681640625
1413393888945760500,0.03621843457221985,0.007859792560338974,0.15316008031368256,9.479100227355957,0.07477482408285141,-2.8652098178863525
1413393888950760500,-0.013613574206829071,0.021786309778690338,0.083506740629673,9.573820114135742,-0.33220621943473816,-3.1850478649139404
1413393888955760500,-0.028338246047496796,0.04837385565042496,0.06435468792915344,9.004983901977539,0.8229857087135315,-2.841093063354492
1413393888960760500,0.003802310675382614,0.002566210925579071,0.15512646734714508,10.060166358947754,-0.21224236488342285,-3.2636566162109375
1413393888965760500,-0.029607951641082764,0.06728830933570862,0.0692281574010849,9.824380874633789,-0.796474277973175,-3.3609018325805664
1413393888970760500,-0.016128364950418472,0.08607710897922516,0.06677579134702682,8.6641845703125,0.30969640612602234,-2.5952560901641846
1413393888975760500,0.03756203502416611,0.045273974537849426,0.13201755285263062,9.565051078796387,-0.6733788847923279,-2.5845773220062256
1413393888980760500,0.01462198793888092,0.05528324097394943,0.05356435477733612,9.212444305419922,-0.80552077293396,-2.929280996322632
1413393888985760500,0.022322796285152435,0.04837651550769806,0.05574597790837288,8.957404136657715,0.49835169315338135,-2.6270813941955566
1413393888990760500,0.039620235562324524,0.024028081446886063,0.10145799815654755,10.03884220123291,0.02388126216828823,-3.2656731605529785
1413393888995760500,-0.005038373172283173,0.08159571141004562,0.02622298151254654,8.92639446258545,0.5455756187438965,-3.1310231685638428
1413393889000760500,-0.017285801470279694,0.037665896117687225,0.09803655743598938,8.436847686767578,0.68886798620224,-2.484330892562866
1413393889005760500,-0.03263688459992409,0.035353563725948334,0.07135739177465439,9.991117477416992,0.03407233580946922,-3.58064866065979
1413393889010760500,-0.054237619042396545,0.07518492639064789,0.04436960816383362,7.995668411254883,0.11794396489858627,-2.696607828140259
1413393889015760500,-0.0184567142277956,-0.013771619647741318,0.09910643100738525,8.75915813446045,-0.3963554799556732,-2.443474531173706
1413393889020760500,-0.014857646077871323,0.024260617792606354,0.07546645402908325,9.528815269470215,-0.6966296434402466,-3.3401317596435547
1413393889025760500,0.0013459287583827972,0.008584097027778625,0.079381063580513,8.214526176452637,-0.2341780662536621,-2.3856751918792725
1413393889030760500,0.03497655689716339,-0.039549920707941055,0.10240375250577927,10.137042045593262,-0.7026296854019165,-2.973237991333008
1413393889035760500,0.028533905744552612,0.05085840821266174,0.04860646650195122,9.709251403808594,-0.4430418014526367,-2.9233651161193848
1413393889040760500,0.0389995351433754,-0.012130003422498703,0.07474764436483383,8.978249549865723,0.3247414231300354,-2.257850408554077
1413393889045760500,0.01017250120639801,-0.011673439294099808,0.05872132629156113,11.041836738586426,0.17472074925899506,-3.7799835205078125
1413393889050760500,-0.029982715845108032,0.11624880135059357,0.02318878471851349,8.619954109191895,0.24485081434249878,-2.7340211868286133
1413393889055760500,-0.025073617696762085,0.00899047777056694,0.06985053420066833,9.455728530883789,-0.08532295376062393,-2.7936978340148926
1413393889060760500,-0.031676147133111954,0.0822109580039978,0.06325855851173401,10.161238670349121,-0.058667995035648346,-3.316448450088501
1413393889065760500,-0.02204807475209236,0.04106304049491882,0.10319690406322479,8.079513549804688,0.013937310315668583,-1.945708990097046
1413393889070760500,-0.0051725879311561584,-0.03364771977066994,0.11640636622905731,9.877266883850098,-0.7227090001106262,-3.030806064605713
1413393889075760500,0.011266544461250305,0.05126504600048065,0.1047540083527565,9.17329216003418,-0.529267430305481,-3.231748342514038
1413393889080760500,0.039275601506233215,-0.0058560483157634735,0.1300758570432663,8.768660545349121,-0.1658545732498169,-2.8492863178253174
1413393889085760500,0.03210804611444473,-0.007806750014424324,0.10539011657238007,10.34926700592041,-0.024387676268815994,-3.1074891090393066
1413393889090760500,0.029861055314540863,0.04594581574201584,0.09922659397125244,8.74439525604248,0.07094936817884445,-2.768314838409424
1413393889095760500,0.024918891489505768,-0.013417813926935196,0.09747491776943207,9.961860656738281,0.10223131626844406,-3.1094634532928467
1413393889100760500,-0.006711915135383606,0.014956139028072357,0.06280919164419174,10.052010536193848,0.44023221731185913,-3.1798179149627686
1413393889105760500,-0.020041823387145996,0.023487336933612823,0.06899894773960114,9.817643165588379,0.5707607865333557,-2.91532301902771
1413393889110760500,-0.04327705502510071,0.03424935042858124,0.05192795395851135,10.320685386657715,-0.021008271723985672,-2.8902933597564697
1413393889115760500,-0.01387035846710205,0.08205860108137131,0.1003740131855011,9.250946998596191,-0.20266005396842957,-3.5018129348754883
1413393889120760500,-0.00013564899563789368,0.10595729947090149,0.11392708122730255,9.382122039794922,-0.7389501929283142,-2.8141605854034424
1413393889125760500,0.009711947292089462,0.0948406308889389,0.10713055729866028,8.552958488464355,-0.5170488357543945,-2.851959228515625
1413393889130760500,0.042944230139255524,0.08526825904846191,0.12227125465869904,8.512904167175293,0.2840469479560852,-3.0359315872192383
1413393889135760500,0.020036984235048294,0.008531179279088974,0.10416528582572937,9.395047187805176,0.09772052615880966,-2.3345069885253906
1413393889140760500,0.00032220780849456787,0.012161947786808014,0.09268130362033844,8.45523738861084,0.3569740355014801,-3.5210962295532227
1413393889145760500,-0.023828228935599327,-0.005635872483253479,0.07305895537137985,8.767208099365234,-0.02535419911146164,-2.4822609424591064
1413393889150760500,-0.03180338069796562,-0.036388199776411057,0.04293662682175636,9.233111381530762,-0.10550862550735474,-3.3478622436523438
1413393889155760500,0.004119165241718292,-0.025310751050710678,0.07294463366270065,9.46415901184082,-0.3284711539745331,-3.1294565200805664
1413393889160760500,-0.00805753655731678,-0.020733142271637917,0.03493199497461319,10.07646656036377,-0.03695576637983322,-2.858959436416626
1413393889165760500,0.019111033529043198,0.04031674563884735,0.07815486937761307,9.534679412841797,0.9376152157783508,-3.200502634048462
1413393889170760500,-0.00039236247539520264,0.06305739283561707,0.06422948837280273,9.503480911254883,-0.024694418534636497,-2.468837022781372
1413393889175760500,-0.001459762454032898,0.04422725737094879,0.0979585349559784,8.541719436645508,0.7850290536880493,-3.027646780014038
1413393889180760500,-0.0021810270845890045,0.10190413892269135,0.10772985965013504,10.575969696044922,-0.5083814263343811,-3.6142187118530273
1413393889185760500,-0.016093673184514046,0.0518195778131485,0.07662941515445709,8.193695068359375,-0.5690100789070129,-1.4371318817138672
1413393889190760500,0.03594769537448883,-0.005856312811374664,0.12592178583145142,9.572633743286133,-0.5845072269439697,-3.8733837604522705
1413393889195760500,0.019471261650323868,0.04868900030851364,0.0574980191886425,9.48304271697998,-0.9643596410751343,-2.3427066802978516
1413393889200760500,0.02032102644443512,-0.08810988068580627,0.09264184534549713,7.764411926269531,0.652290403842926,-2.954092025756836
1413393889205760500,-0.007898621261119843,0.017190854996442795,0.05256030336022377,11.240638732910156,-0.4163808822631836,-2.978456974029541
1413393889210760500,-0.0397566482424736,-0.013317596167325974,0.04764911159873009,8.13925552368164,0.7170795202255249,-2.191870927810669
1413393889215760500,-0.005033034831285477,0.035113103687763214,0.08754375576972961,12.25279712677002,-0.8922204971313477,-4.126535415649414
1413393889220760500,-0.020831206813454628,0.053269945085048676,0.05017015337944031,8.87108325958252,-0.10400678962469101,-1.6292269229888916
1413393889225760500,0.030068017542362213,0.023814234882593155,0.10614079236984253,10.813289642333984,-0.09123312681913376,-4.858391761779785
1413393889230760500,0.001484513282775879,0.15895827114582062,0.019135329872369766,9.454734802246094,-0.4843291938304901,-2.325623035430908
1413393889235760500,0.018016837537288666,0.018849797546863556,0.11025211960077286,8.302820205688477,0.8348111510276794,-3.432253360748291
1413393889240760500,-0.0055986568331718445,0.15066929161548615,0.046647995710372925,9.667247772216797,-1.0779613256454468,-2.9195163249969482
1413393889245760500,0.002327360212802887,-0.010801918804645538,0.09981153905391693,6.413385391235352,0.8422784805297852,-1.616782546043396
1413393889250760500,0.012410257011651993,0.03291912376880646,0.10036361217498779,10.583070755004883,-0.8004732131958008,-3.3524677753448486
1413393889255760500,0.008606761693954468,-0.031645238399505615,0.10376021265983582,7.1963324546813965,0.5511751770973206,-1.2932149171829224
1413393889260760500,0.03776116669178009,-0.08113346993923187,0.1444312334060669,10.185376167297363,-0.8040178418159485,-4.504060745239258
1413393889265760500,0.00697740912437439,0.0240665003657341,0.0740402340888977,7.7696213722229,0.5659410953521729,-1.4777016639709473
1413393889270760500,0.023114431649446487,-0.05316000431776047,0.11568289995193481,10.573017120361328,0.09929398447275162,-4.568794250488281
1413393889275760500,-0.049253158271312714,0.06514415144920349,-0.0017012283205986023,9.047093391418457,0.01104874536395073,-2.0985159873962402
1413393889280760500,-0.0068932510912418365,-0.021675849333405495,0.11181308329105377,9.283082008361816,0.4693956971168518,-3.432384967803955
1413393889285760500,-0.023688364773988724,0.0831214115023613,0.021137945353984833,9.573899269104004,-1.0877989530563354,-2.5871329307556152
1413393889290760500,0.026601798832416534,-0.025765128433704376,0.09956438839435577,7.667600154876709,0.11797844618558884,-2.3417928218841553
1413393889295760500,0.04237794131040573,0.024106565862894058,0.037246257066726685,9.713226318359375,-0.8338984251022339,-2.8528425693511963
1413393889300760500,0.04888596385717392,-0.05533837154507637,0.08349594473838806,8.615424156188965,0.7915410399436951,-2.5932843685150146
1413393889305760500,0.014981023967266083,-0.031090766191482544,0.04250173643231392,9.675621032714844,0.2778054177761078,-3.37358021736145
1413393889310760500,-0.007735271006822586,-0.053464677184820175,0.10185572504997253,8.34744644165039,0.5862010717391968,-2.33829927444458
1413393889315760500,-0.027767371386289597,-0.05912899971008301,0.08684802800416946,9.963804244995117,-0.46763163805007935,-3.2542600631713867
1413393889320760500,-0.033149782568216324,-0.04137149453163147,0.07840149849653244,10.335963249206543,-0.4464281499385834,-3.568713426589966
1413393889325760500,-0.00866207666695118,-0.036271173506975174,0.08579283952713013,8.505732536315918,0.04130364954471588,-2.580051898956299
1413393889330760500,0.005448285490274429,-0.016185805201530457,0.07253038883209229,9.87719440460205,-0.8830921649932861,-3.8213279247283936
1413393889335760500,0.003304827958345413,-0.012481430545449257,0.07278825342655182,7.98636531829834,0.7779747247695923,-1.9676090478897095
1413393889340760500,0.006921879947185516,-0.096696637570858,0.11501199007034302,10.107946395874023,-0.05571018159389496,-4.039462566375732
1413393889345760500,-0.014742929488420486,0.000506475567817688,0.09487172961235046,9.2440185546875,0.4404769539833069,-2.810739278793335
1413393889350760500,-0.007776549085974693,-0.06421171128749847,0.11883437633514404,9.14578914642334,-0.5186853408813477,-3.538975238800049
1413393889355760500,-0.014243114739656448,-0.04852302744984627,0.08436048030853271,9.84162425994873,-0.07751796394586563,-2.6679654121398926
1413393889360760500,0.008476577699184418,-0.04768044501543045,0.09405095875263214,10.195632934570312,-0.18749366700649261,-3.677732229232788
1413393889365760500,-0.015578627586364746,0.009011678397655487,0.041573502123355865,9.686361312866211,-0.4949069917201996,-2.0296852588653564
1413393889370760500,0.01650264486670494,-0.04126472398638725,0.09961147606372833,8.380382537841797,0.1600826531648636,-3.448079824447632
1413393889375760500,-0.01190187968313694,-0.026876769959926605,0.07361716777086258,8.359369277954102,-0.25263741612434387,-2.4572341442108154
1413393889380760500,0.00438082218170166,-0.06859404593706131,0.1475433111190796,9.538651466369629,0.8323835730552673,-3.9174554347991943
1413393889385760500,-0.027855781838297844,-0.020953088998794556,0.11960627138614655,9.64429759979248,-0.6531084179878235,-3.177414894104004
1413393889390760500,0.002955775707960129,-0.03601735085248947,0.1513054370880127,10.034708976745605,0.22147305309772491,-3.2657508850097656
1413393889395760500,-0.0011994428932666779,0.004384130239486694,0.09645133465528488,8.748632431030273,-1.2740809917449951,-2.9852473735809326
1413393889400760500,0.020228281617164612,-0.0668971985578537,0.08973819017410278,8.998549461364746,0.3642829358577728,-3.508655071258545
1413393889405760500,0.008575238287448883,-0.036319147795438766,0.053505733609199524,9.16372013092041,-0.25870874524116516,-2.683051347732544
1413393889410760500,0.00542222335934639,-0.09018848836421967,0.09275113046169281,9.977075576782227,0.3062938153743744,-3.606952428817749
1413393889415760500,-0.016443436965346336,0.016300205141305923,0.0970306396484375,9.350850105285645,0.07123887538909912,-3.0069828033447266
1413393889420760500,-0.010876107960939407,-0.02795691415667534,0.14429503679275513,8.99275016784668,-0.05092160776257515,-2.9285802841186523
1413393889425760500,-0.00225028395652771,0.028743024915456772,0.14746823906898499,9.212299346923828,-0.36786139011383057,-2.8859384059906006
1413393889430760500,0.01614939421415329,0.008614931255578995,0.1420488953590393,9.870615005493164,-0.38948479294776917,-3.674119234085083
1413393889435760500,-0.014387542381882668,0.04006633162498474,0.055280912667512894,8.60730266571045,0.2285967767238617,-3.320564031600952
1413393889440760500,-0.0449078269302845,-0.03233581408858299,0.025802064687013626,8.548282623291016,-0.0082243662327528,-2.996760845184326
1413393889445760500,-0.05705063417553902,-0.02245357632637024,0.02041805535554886,8.824784278869629,0.4875725507736206,-2.6907074451446533
1413393889450760500,-0.05594928562641144,-0.070944644510746,0.02858126163482666,8.35733413696289,-1.2027060985565186,-2.2489309310913086
1413393889455760500,-0.04970548301935196,-0.12826678156852722,0.05171571299433708,8.872590065002441,0.24735619127750397,-2.819983959197998
1413393889460760500,-0.008037295192480087,-0.15761540830135345,0.09311071038246155,8.76640796661377,-0.7575299143791199,-1.5360164642333984
1413393889465760500,-0.018665404990315437,-0.15602709352970123,0.08900488168001175,10.550091743469238,-0.10973082482814789,-4.466809272766113
1413393889470760500,0.008279874920845032,-0.09878545999526978,0.12481765449047089,9.329198837280273,0.09375807642936707,-2.496896505355835
1413393889475760500,-0.028921285644173622,-0.12113512307405472,0.11608321964740753,9.761846542358398,0.33524879813194275,-4.579004764556885
1413393889480760500,-0.005582459270954132,-0.019877780228853226,0.15683242678642273,9.176730155944824,0.36749017238616943,-2.5198161602020264
1413393889485760500,-0.03868171572685242,-0.08074826002120972,0.13316205143928528,10.351106643676758,-0.5197006464004517,-4.419424533843994
1413393889490760500,0.004679199308156967,0.03534383326768875,0.10992081463336945,10.357193946838379,-0.4152649939060211,-2.7086939811706543
1413393889495760500,0.017197176814079285,-0.06209143251180649,0.11218993365764618,8.294288635253906,-0.6962438821792603,-3.9064829349517822
1413393889500760500,0.02846299111843109,0.006140574812889099,0.09206920862197876,9.646453857421875,0.21828776597976685,-2.6458232402801514
1413393889505760500,0.0025551728904247284,-0.12919363379478455,0.10481198132038116,7.6361188888549805,0.5639699697494507,-3.023878574371338
1413393889510760500,-0.016371428966522217,-0.10064730793237686,0.12841738760471344,11.260873794555664,0.7973442673683167,-3.6403067111968994
1413393889515760500,-0.05498156696557999,-0.1832645982503891,0.08870062977075577,7.078920841217041,0.03950211778283119,-1.9737224578857422
1413393889520760500,-0.023288797587156296,-0.22942222654819489,0.13699012994766235,10.671443939208984,-0.6671218872070312,-3.7982780933380127
1413393889525760500,-0.023374538868665695,-0.25335365533828735,0.04273848980665207,6.908265113830566,-0.6138157844543457,-2.0338284969329834
1413393889530760500,0.011976853013038635,-0.3513472080230713,0.08364683389663696,10.45548152923584,-0.3048558831214905,-4.205695152282715
1413393889535760500,-0.01316957175731659,-0.27877897024154663,0.017379961907863617,8.257058143615723,0.9083760976791382,-2.0096399784088135
1413393889540760500,-0.027557924389839172,-0.3371674418449402,0.06220502033829689,11.90737247467041,0.6470840573310852,-4.85510778427124
1413393889545760500,-0.08789455890655518,-0.19331637024879456,-0.013949505984783173,8.434181213378906,0.39655736088752747,-1.2775710821151733
1413393889550760500,-0.06607642024755478,-0.2856958508491516,0.12138155102729797,12.104116439819336,-0.3744724988937378,-3.7082676887512207
1413393889555760500,-0.04295847937464714,-0.08172900974750519,0.058228231966495514,9.638069152832031,-1.0643712282180786,-2.345188617706299
1413393889560760500,0.008914966136217117,-0.20319406688213348,0.1698123812675476,10.7637300491333,-0.22473447024822235,-3.8023993968963623
1413393889565760500,0.008172072470188141,-0.08434734493494034,0.08188842236995697,8.762396812438965,0.002064375439658761,-3.077152967453003
1413393889570760500,-0.010764997452497482,-0.2056610882282257,0.14712873101234436,10.001324653625488,0.8020008206367493,-3.8416941165924072
1413393889575760500,-0.06664333492517471,-0.17173483967781067,0.05631097033619881,8.118293762207031,0.6564188003540039,-3.699155807495117
1413393889580760500,-0.09133495390415192,-0.28156769275665283,0.09530426561832428,10.299765586853027,0.3764794170856476,-4.423890590667725
1413393889585760500,-0.09724888205528259,-0.21007047593593597,0.02233795076608658,7.219175338745117,-0.3256676197052002,-3.065829277038574
1413393889590760500,-0.05445719510316849,-0.34973055124282837,0.04712672531604767,10.04466724395752,-0.8878881931304932,-4.217203617095947
1413393889595760500,-0.03784991055727005,-0.29300910234451294,0.004798240959644318,9.443622589111328,0.05490008369088173,-3.2493979930877686
1413393889600760500,-0.03361784666776657,-0.3282332420349121,0.004869155585765839,10.603906631469727,0.46871596574783325,-4.9287285804748535
1413393889605760500,-0.06767399609088898,-0.22484807670116425,-0.0201667919754982,9.913455963134766,1.3409852981567383,-2.7023632526397705
1413393889610760500,-0.11729264259338379,-0.2979200482368469,0.014349937438964844,10.703166007995605,0.36602890491485596,-4.559033393859863
1413393889615760500,-0.11067536473274231,-0.16222083568572998,0.040394850075244904,9.713587760925293,0.018711058422923088,-2.601257085800171
1413393889620760500,-0.090873584151268,-0.2518548369407654,0.048337340354919434,9.946796417236328,-1.2206085920333862,-3.9604976177215576
1413393889625760500,-0.026156723499298096,-0.21195150911808014,0.0647260770201683,9.457159996032715,-0.3868265748023987,-2.882902145385742
1413393889630760500,-0.015365976840257645,-0.2477332204580307,0.0523325651884079,10.592203140258789,-0.4725582003593445,-4.282698154449463
1413393889635760500,-0.020062241703271866,-0.22607822716236115,0.04094432294368744,8.522126197814941,0.989552915096283,-2.3824691772460938
1413393889640760500,-0.08831723034381866,-0.3059297800064087,0.00020635873079299927,11.451881408691406,0.731971263885498,-4.35870885848999
1413393889645760500,-0.10492466390132904,-0.25774192810058594,0.025712817907333374,8.446569442749023,1.1860562562942505,-2.110653877258301
1413393889650760500,-0.16583721339702606,-0.2461598515510559,-0.07509128004312515,12.480135917663574,-0.5727277994155884,-4.502465724945068
1413393889655760500,-0.1324707269668579,-0.30153214931488037,-0.08212483674287796,8.965265274047852,-0.373269647359848,-3.343245029449463
1413393889660760500,-0.1263355016708374,-0.17721304297447205,-0.16349488496780396,11.853255271911621,-0.8385480046272278,-3.556401252746582
1413393889665760500,-0.07183815538883209,-0.20773395895957947,-0.11130348592996597,10.601061820983887,-0.3867715001106262,-3.6013383865356445
1413393889670760500,-0.09305903315544128,-0.12868750095367432,-0.1585274338722229,9.754988670349121,0.549885094165802,-4.666711330413818
1413393889675760500,-0.08190883696079254,-0.16177187860012054,-0.07938108593225479,10.415103912353516,0.6118823885917664,-2.7565269470214844
1413393889680760500,-0.11873254179954529,-0.10823680460453033,-0.06962091475725174,11.271940231323242,0.8198843002319336,-5.4892988204956055
1413393889685760500,-0.14224949479103088,-0.11291486769914627,-0.08414659649133682,9.795204162597656,0.07045821100473404,-2.749922037124634
1413393889690760500,-0.13367530703544617,-0.11235078424215317,-0.07222137600183487,10.905899047851562,-0.32996097207069397,-3.799013614654541
1413393889695760500,-0.12075955420732498,-0.14459747076034546,-0.08219783753156662,10.150639533996582,-0.3604789078235626,-4.892327785491943
1413393889700760500,-0.0778220072388649,-0.07640242576599121,-0.010472320020198822,8.475785255432129,-0.3675825893878937,-2.307542085647583
1413393889705760500,-0.06100426986813545,-0.18686896562576294,0.010703645646572113,11.235739707946777,-0.5747016072273254,-4.142827033996582
1413393889710760500,-0.009073195978999138,-0.17649614810943604,0.08153945207595825,8.116793632507324,0.34174615144729614,-2.9024250507354736
1413393889715760500,-0.03444300591945648,-0.2662310004234314,0.052899718284606934,10.988003730773926,0.06739386916160583,-4.321439743041992
1413393889720760500,-0.04582958668470383,-0.2523820400238037,0.03182058408856392,10.59426498413086,1.0375792980194092,-2.93466854095459
1413393889725760500,-0.11916637420654297,-0.289306104183197,-0.05569695681333542,12.91307544708252,0.331779807806015,-5.835541248321533
1413393889730760500,-0.15769734978675842,-0.24319162964820862,-0.14142224192619324,8.563883781433105,0.8919553160667419,-3.526566743850708
1413393889735760500,-0.1800043284893036,-0.22676515579223633,-0.20047929883003235,10.69685173034668,-0.6317583322525024,-3.789052724838257
1413393889740760500,-0.14954325556755066,-0.21254058182239532,-0.21123486757278442,13.129494667053223,-0.23453016579151154,-3.6918418407440186
1413393889745760500,-0.1213732361793518,-0.08420797437429428,-0.222635418176651,11.97196102142334,-0.9656887650489807,-3.138496160507202
1413393889750760500,-0.10967310518026352,-0.1283944845199585,-0.1816137731075287,11.848026275634766,0.3656291663646698,-4.971166610717773
1413393889755760500,-0.11005908995866776,-0.09681245684623718,-0.10366658121347427,9.312210083007812,1.058984398841858,-3.919806718826294
1413393889760760500,-0.1365687996149063,-0.045623861253261566,-0.1018916442990303,10.670525550842285,0.10321526229381561,-2.707360029220581
1413393889765760500,-0.11825533211231232,-0.11649979650974274,0.010303705930709839,11.713861465454102,0.1903497874736786,-4.813490867614746
1413393889770760500,-0.10942282527685165,-0.10351302474737167,-0.007327549159526825,9.357996940612793,-0.7093338370323181,-4.315955638885498
1413393889775760500,-0.05305502563714981,-0.09654124081134796,0.022814065217971802,10.649577140808105,-0.7030948400497437,-2.7334704399108887
1413393889780760500,-0.04373069480061531,-0.12774570286273956,-0.05044732242822647,10.890867233276367,-0.462961345911026,-3.1467125415802
1413393889785760500,-0.021452851593494415,-0.10255451500415802,-0.05797981470823288,12.992325782775879,0.4315708875656128,-4.502581596374512
1413393889790760500,-0.06793691217899323,-0.06938907504081726,-0.11253071576356888,9.721980094909668,0.591434895992279,-3.263951301574707
1413393889795760500,-0.0988457053899765,-0.10802704840898514,-0.09940934926271439,12.205465316772461,0.49597200751304626,-4.405889987945557
1413393889800760500,-0.1410808563232422,-0.10013124346733093,-0.11225716024637222,9.839622497558594,0.9316272735595703,-3.968214750289917
1413393889805760500,-0.15018516778945923,-0.07260216772556305,-0.12352351099252701,9.661565780639648,-0.45668140053749084,-3.480712890625
1413393889810760500,-0.13658496737480164,-0.1969366818666458,-0.10088884085416794,9.77666187286377,-0.22771555185317993,-3.5296757221221924
1413393889815760500,-0.11578289419412613,-0.17254792153835297,-0.1906675100326538,11.092146873474121,-0.9466050863265991,-3.6496143341064453
1413393889820760500,-0.057730186730623245,-0.16612668335437775,-0.140274316072464,12.203690528869629,0.013589390553534031,-4.522592067718506
1413393889825760500,-0.08964980393648148,-0.16998665034770966,-0.2026609480381012,9.866218566894531,0.3615231513977051,-4.122244358062744
1413393889830760500,-0.09290015697479248,-0.09186576306819916,-0.16562560200691223,12.336790084838867,0.8957208395004272,-3.514798402786255
1413393889835760500,-0.14541985094547272,-0.046636998653411865,-0.1734587550163269,11.486942291259766,0.6265441179275513,-3.6175172328948975
1413393889840760500,-0.1548207402229309,-0.029940828680992126,-0.1555170714855194,12.554981231689453,-0.23159146308898926,-4.98597526550293
1413393889845760500,-0.1492973119020462,-0.02341948077082634,-0.13912075757980347,8.259270668029785,-0.13068759441375732,-3.259636878967285
1413393889850760500,-0.08360841870307922,0.04567774385213852,-0.13832363486289978,12.09985637664795,-1.4058629274368286,-2.8120200634002686
1413393889855760500,-0.0326165109872818,-0.09776028245687485,-0.10377670079469681,12.774972915649414,-0.3985588848590851,-4.752594947814941
1413393889860760500,-0.028618106618523598,0.008321601897478104,-0.17845478653907776,8.96227741241455,0.5275188684463501,-4.2918548583984375
1413393889865760500,-0.06909622997045517,-0.02651512622833252,-0.14473623037338257,10.838371276855469,1.5909825563430786,-4.042969226837158
1413393889870760500,-0.16864123940467834,-0.009938463568687439,-0.2103336751461029,10.736055374145508,1.084861159324646,-2.96762752532959
1413393889875760500,-0.2046090066432953,-0.02469310164451599,-0.20566263794898987,12.737040519714355,0.41020116209983826,-4.548967361450195
1413393889880760500,-0.20183327794075012,0.009388197213411331,-0.23070618510246277,9.143445014953613,-0.7272239327430725,-4.1676812171936035
1413393889885760500,-0.12719853222370148,-0.005263349041342735,-0.2166289985179901,10.892095565795898,-1.6005992889404297,-3.882889986038208
1413393889890760500,-0.07203508913516998,0.0173097662627697,-0.21947869658470154,11.054024696350098,-0.5991019010543823,-2.680067777633667
1413393889895760500,-0.05423097312450409,0.0590868815779686,-0.22518318891525269,12.731563568115234,0.02177400328218937,-3.807549238204956
1413393889900760500,-0.10093790292739868,0.06162646412849426,-0.2091013789176941,10.46925163269043,1.791581630706787,-4.463930130004883
1413393889905760500,-0.1651572585105896,0.16235704720020294,-0.21287068724632263,10.979839324951172,1.048256516456604,-3.4061496257781982
1413393889910760500,-0.18841657042503357,0.15549339354038239,-0.1650218963623047,11.827396392822266,-0.1187330037355423,-4.1541748046875
1413393889915760500,-0.17982709407806396,0.207872673869133,-0.19863799214363098,9.373147964477539,-1.1394332647323608,-2.8650307655334473
1413393889920760500,-0.06697485595941544,0.17500369250774384,-0.16888055205345154,11.479310989379883,-1.819876790046692,-2.9979355335235596
1413393889925760500,-0.03682481124997139,0.10872127115726471,-0.18982914090156555,10.239060401916504,-0.3435640037059784,-3.729372024536133
1413393889930760500,-0.028620414435863495,0.16348490118980408,-0.18365195393562317,10.347825050354004,0.7233913540840149,-4.398107528686523
1413393889935760500,-0.10320752114057541,0.1067529022693634,-0.18903931975364685,10.350580215454102,1.813703179359436,-3.3081417083740234
1413393889940760500,-0.16423346102237701,0.22446273267269135,-0.17415058612823486,12.168905258178711,0.9202208518981934,-3.510382652282715
1413393889945760500,-0.20048761367797852,0.18952713906764984,-0.20033353567123413,11.471824645996094,0.20783251523971558,-4.207395076751709
1413393889950760500,-0.1624118536710739,0.2681390047073364,-0.22203329205513,9.150900840759277,-1.6577785015106201,-2.8509037494659424
1413393889955760500,-0.09853239357471466,0.2324838489294052,-0.22778025269508362,11.573065757751465,-1.0492159128189087,-3.4699602127075195
1413393889960760500,-0.048791222274303436,0.2570704221725464,-0.23003315925598145,11.147283554077148,-0.5807123184204102,-3.9756245613098145
1413393889965760500,-0.07067985832691193,0.24442370235919952,-0.22556278109550476,9.018716812133789,1.3092048168182373,-3.841651439666748
1413393889970760500,-0.12512223422527313,0.2056763619184494,-0.22365382313728333,8.932629585266113,1.5535266399383545,-2.6537508964538574
1413393889975760500,-0.17186427116394043,0.2666699290275574,-0.1776265799999237,11.76872730255127,0.17563997209072113,-3.7656145095825195
1413393889980760500,-0.20069456100463867,0.14228570461273193,-0.19819065928459167,9.806053161621094,-0.10970915853977203,-4.236648082733154
1413393889985760500,-0.13260680437088013,0.2823371887207031,-0.15237227082252502,9.862287521362305,-1.5755864381790161,-2.699759006500244
1413393889990760500,-0.08439815044403076,0.17461161315441132,-0.14548549056053162,11.901398658752441,-1.033844232559204,-4.291780948638916
1413393889995760500,-0.011317498981952667,0.331317663192749,-0.10243026167154312,9.271129608154297,-0.5968194007873535,-2.85477614402771
1413393890000760500,-0.031742606312036514,0.23798124492168427,-0.09517029672861099,12.241619110107422,0.6862319111824036,-3.849384069442749
1413393890005760500,-0.0425214059650898,0.3344334363937378,-0.0836554542183876,9.123594284057617,0.7241865396499634,-2.9462571144104004
1413393890010760500,-0.09856211394071579,0.286016583442688,-0.07087159901857376,10.329429626464844,1.060482382774353,-4.574589252471924
1413393890015760500,-0.10840193927288055,0.28384286165237427,-0.046143777668476105,8.810770988464355,-0.29984617233276367,-2.974154472351074
1413393890020760500,-0.09491182118654251,0.28871065378189087,0.003348730504512787,10.022968292236328,-0.5607509613037109,-3.728527784347534
1413393890025760500,-0.047620899975299835,0.17900879681110382,0.06839699298143387,8.7155122756958,-0.39546164870262146,-2.077974319458008
1413393890030760500,0.013645648956298828,0.3150988221168518,0.09277060627937317,10.269477844238281,-0.6541261076927185,-3.656765937805176
1413393890035760500,0.03387574106454849,0.16530536115169525,0.13201898336410522,9.938024520874023,0.37857919931411743,-3.4094841480255127
1413393890040760500,0.028191469609737396,0.32133591175079346,0.12776978313922882,9.829750061035156,0.09615451097488403,-3.1716063022613525
1413393890045760500,0.00012398511171340942,0.15770815312862396,0.17184197902679443,9.486576080322266,1.2302368879318237,-3.609884023666382
1413393890050760500,-0.01550176739692688,0.27578336000442505,0.17957568168640137,9.72307014465332,-0.10028032213449478,-2.4740865230560303
1413393890055760500,-0.03573523089289665,0.14384357631206512,0.18412339687347412,9.634628295898438,0.06707572937011719,-4.154510498046875
1413393890060760500,-0.0009891614317893982,0.24756400287151337,0.17846189439296722,9.13761043548584,-0.7134290933609009,-2.6401305198669434
1413393890065760500,0.030564114451408386,0.1464214324951172,0.19885185360908508,10.48778247833252,-0.8435266017913818,-3.469479560852051
1413393890070760500,0.0644427165389061,0.2249663919210434,0.18218186497688293,8.802139282226562,-0.06800501048564911,-3.377747058868408
1413393890075760500,0.08206264674663544,0.17734329402446747,0.25125420093536377,10.165176391601562,0.3739071488380432,-3.5262346267700195
1413393890080760500,0.064323790371418,0.19864408671855927,0.28754931688308716,8.948653221130371,0.5869011878967285,-3.3437447547912598
1413393890085760500,0.03202199935913086,0.2409438043832779,0.3240712285041809,9.07891845703125,0.2157270759344101,-3.339390516281128
1413393890090760500,0.03191429376602173,0.1704472005367279,0.33121809363365173,9.016217231750488,0.013736202381551266,-2.637615919113159
1413393890095760500,0.04668503254652023,0.23611710965633392,0.3082551658153534,9.913355827331543,-0.7784454226493835,-3.35032057762146
1413393890100760500,0.06770340353250504,0.18639087677001953,0.2840462327003479,8.743974685668945,-0.2579157054424286,-2.7635505199432373
1413393890105760500,0.06826351583003998,0.248005673289299,0.2577727138996124,9.292740821838379,-0.06718236953020096,-2.7613062858581543
1413393890110760500,0.05891811102628708,0.19038915634155273,0.2581586241722107,8.03886604309082,0.36583295464515686,-3.3774609565734863
1413393890115760500,0.040498778223991394,0.27155137062072754,0.2591484487056732,8.975077629089355,0.47849875688552856,-2.8832900524139404
1413393890120760500,0.03659527003765106,0.1935773491859436,0.30059581995010376,7.067669868469238,0.07955239713191986,-3.4129083156585693
1413393890125760500,0.046200573444366455,0.2562434673309326,0.31594812870025635,8.716724395751953,-0.44505470991134644,-2.4132156372070312
1413393890130760500,0.05647030472755432,0.1855999380350113,0.3337792456150055,6.4318013191223145,-0.1744328737258911,-2.840942144393921
1413393890135760500,0.07690642774105072,0.2368609756231308,0.2890080511569977,8.652363777160645,-0.40851980447769165,-2.6309804916381836
1413393890140760500,0.07295224070549011,0.14696012437343597,0.29981306195259094,7.135246753692627,0.05405415594577789,-2.5049619674682617
1413393890145760500,0.05586332082748413,0.21480105817317963,0.27760761976242065,9.660937309265137,0.2910183370113373,-3.325624465942383
1413393890150760500,0.04415004700422287,0.18698860704898834,0.278484970331192,6.380108833312988,0.7175917625427246,-2.0929477214813232
1413393890155760500,0.02839018404483795,0.21079525351524353,0.2783871591091156,8.27771282196045,-0.12416496127843857,-3.339787006378174
1413393890160760500,0.027670033276081085,0.17606453597545624,0.2820485234260559,6.403341293334961,0.18243592977523804,-1.2762588262557983
1413393890165760500,0.0551631897687912,0.19120196998119354,0.28737562894821167,9.392473220825195,-1.0227162837982178,-3.3983914852142334
1413393890170760500,0.06660346686840057,0.16489748656749725,0.28466856479644775,5.300509452819824,0.3079589307308197,-1.153022289276123
1413393890175760500,0.08803623914718628,0.12305860221385956,0.3173661530017853,8.925314903259277,-0.9800894856452942,-3.650285243988037
1413393890180760500,0.06767333298921585,0.1635463386774063,0.29157212376594543,5.613185882568359,0.7953805327415466,-1.1330146789550781
1413393890185760500,0.06699375808238983,0.06079244613647461,0.3043515384197235,9.75782299041748,-0.31750595569610596,-4.066503047943115
1413393890190760500,0.027722686529159546,0.14035506546497345,0.2859695553779602,5.245613098144531,1.2445385456085205,-1.02055823802948
1413393890195760500,0.04801467806100845,0.09405229985713959,0.30802857875823975,10.058225631713867,-1.3957479000091553,-4.115688323974609
1413393890200760500,0.03751125931739807,0.19339528679847717,0.2391628623008728,5.4523539543151855,0.7169337272644043,-0.9013858437538147
1413393890205760500,0.08600373566150665,0.07195882499217987,0.31728997826576233,8.942967414855957,-1.2543232440948486,-3.439305067062378
1413393890210760500,0.06966143101453781,0.22402767837047577,0.22805845737457275,6.70626974105835,0.7535529732704163,-1.650333046913147
1413393890215760500,0.09979042410850525,0.08576078712940216,0.34939146041870117,7.952837944030762,-0.2371133714914322,-3.028524875640869
1413393890220760500,0.03874094784259796,0.2163122445344925,0.24046722054481506,7.8094587326049805,1.014721155166626,-2.1891932487487793
1413393890225760500,0.04692894220352173,0.0973968505859375,0.3185351490974426,6.083303451538086,0.17359048128128052,-2.534602165222168
1413393890230760500,-0.012332431972026825,0.17756478488445282,0.20814329385757446,8.781991004943848,0.6217470169067383,-2.0949065685272217
1413393890235760500,0.029099471867084503,0.10475815832614899,0.27381059527397156,7.150994300842285,-1.2664610147476196,-2.7114458084106445
1413393890240760500,0.021467432379722595,0.13677211105823517,0.17991536855697632,8.229376792907715,-0.07652261108160019,-1.931115746498108
1413393890245760500,0.08747375011444092,0.07185754179954529,0.2762109637260437,6.306654930114746,-0.452796995639801,-1.9034013748168945
1413393890250760500,0.061520010232925415,0.1587379276752472,0.21347910165786743,8.699098587036133,0.39002010226249695,-2.847780227661133
1413393890255760500,0.07504743337631226,0.10928814113140106,0.30813848972320557,5.944016456604004,0.5211999416351318,-2.3831193447113037
1413393890260760500,0.027621686458587646,0.15304382145404816,0.25130990147590637,8.913290977478027,0.03018057905137539,-3.357191324234009
1413393890265760500,0.034304916858673096,0.13343548774719238,0.3036908805370331,5.654340744018555,0.9782761931419373,-1.649917483329773
1413393890270760500,0.019867610186338425,0.12365896999835968,0.2661281228065491,9.622560501098633,-1.1915067434310913,-3.242879867553711
1413393890275760500,0.05054949223995209,0.1315172165632248,0.26277637481689453,5.3953471183776855,0.29647642374038696,-1.2749089002609253
