#timestamp [ns],w_RS_S_x [rad s^-1],w_RS_S_y [rad s^-1],w_RS_S_z [rad s^-1],a_RS_S_x [m s^-2],a_RS_S_y [m s^-2],a_RS_S_z [m s^-2]
1413393885975760500,0.050963614158234416,0.041887902047863905,0.06841690667817772,9.438900625,-0.4004382083333333,-2.729517583333333
1413393885980760500,0.05375614096142535,0.03630284844148206,0.07051130178057091,9.398039583333333,0.032688833333333334,-3.195333458333333
1413393885985760500,0.03839724354387525,0.04258603374866164,0.04677482395344803,9.561483749999999,0.2533384583333333,-3.015544875
1413393885990760500,0.028623399732707,0.047472955654245766,0.07120943348136866,9.283628666666665,0.269682875,-3.0890947499999997
1413393885995760500,0.0027925268031909274,0.06562437987498679,0.06213372137099814,9.610517,0.4985047083333333,-3.0400614999999998
1413393886000760500,-0.025132741228718346,0.03839724354387525,0.08377580409572781,9.161045541666667,0.7681875833333334,-3.2280222916666665
1413393886005760500,-0.05235987755982988,0.04817108735504349,0.08936085770210968,9.283628666666665,0.3350605416666666,-3.0809225416666663
1413393886010760500,-0.05585053606381855,0.03839724354387525,0.08098327729253688,9.054806833333332,-0.35140495833333335,-2.7867230416666664
1413393886015760500,-0.04049163864626844,0.009075712110370514,0.0747000919853573,9.259112041666667,-0.5720545833333333,-2.754034208333333
1413393886020760500,-0.013264502315156905,0.00767944870877505,0.08656833089891874,9.357178541666666,-0.6701210833333332,-2.7376897916666665
1413393886025760500,0.023038346126325153,0.010471975511965976,0.07819075048934597,9.520622708333333,-0.612915625,-2.9093061666666666
1413393886030760500,0.0439822971502571,0.032114058236695664,0.08307767239493008,9.586000375,-0.3759215833333333,-2.941995
1413393886035760500,0.04049163864626844,0.028623399732707,0.07819075048934597,9.250939833333334,0.18796079166666665,-2.811239666666667
1413393886040760500,0.021642082724729686,0.02652900463031381,0.07190756518216637,9.259112041666667,0.416782625,-3.023717083333333
1413393886045760500,-0.005585053606381855,0.04677482395344803,0.06911503837897544,9.373522958333332,0.367749375,-3.0400614999999998
1413393886050760500,-0.023736477827122883,0.03420845333908886,0.06771877497737998,9.144701125,0.057205458333333334,-2.982856041666666
1413393886055760500,-0.03490658503988659,0.01884955592153876,0.06981317007977318,9.07115125,0.10623870833333333,-2.7376897916666665
1413393886060760500,-0.03490658503988659,0.013962634015954637,0.08237954069413235,9.1201845,-0.2533384583333333,-2.9093061666666666
1413393886065760500,-0.021642082724729686,0.009075712110370514,0.08028514559173915,9.242767624999999,-0.4004382083333333,-2.999200458333333
1413393886070760500,-0.008377580409572781,0.006981317007977318,0.08726646259971647,9.536967125,-0.392266,-2.9583394166666666
1413393886075760500,0.00767944870877505,0.02234021442552742,0.08307767239493008,9.406211791666665,-0.3105439166666667,-2.974683833333333
1413393886080760500,0.017453292519943295,0.02234021442552742,0.07260569688296412,9.349006333333334,-0.3023717083333333,-3.015544875
1413393886085760500,0.025132741228718346,0.02722713633111154,0.06562437987498679,9.520622708333333,-0.17978858333333333,-2.974683833333333
1413393886090760500,0.02652900463031381,0.02234021442552742,0.08098327729253688,9.291800875,0.17161637500000002,-2.9338227916666666
1413393886095760500,0.009773843811168246,0.017453292519943295,0.08517206749732328,9.234595416666666,0.35957716666666667,-2.8766173333333334
1413393886100760500,-0.013264502315156905,0.02024581932313422,0.09564404300928926,8.989429166666666,0.3840937916666667,-2.8684451249999996
1413393886105760500,-0.033510321638291124,0.008377580409572781,0.09215338450530061,9.635033625,0.08989429166666667,-3.1299557916666663
1413393886110760500,-0.04537856055185257,0.009075712110370514,0.08237954069413235,9.5124505,-0.20430520833333332,-3.0645781249999997
1413393886115760500,-0.02722713633111154,0.016755160819145562,0.07330382858376185,9.398039583333333,-0.661948875,-2.8766173333333334
1413393886120760500,0.0017814487218856812,0.0245334655046463,0.06328044831752777,9.472208976745605,-0.5617049932479858,-3.041015863418579
1413393886125760500,0.026992492377758026,0.026743248105049133,0.07326875627040863,9.31484603881836,-0.08889171481132507,-2.9412384033203125
1413393886130760500,0.04185541719198227,0.021913066506385803,0.08795186132192612,9.160057067871094,-0.08885031193494797,-2.7857370376586914
1413393886135760500,0.03339845687150955,0.012822434306144714,0.07686585932970047,9.511173248291016,0.2137802392244339,-3.0968375205993652
1413393886140760500,0.0033191367983818054,0.02991671860218048,0.07986239343881607,9.291583061218262,0.49973011016845703,-2.9748013019561768
1413393886145760500,-0.020368456840515137,0.01326240599155426,0.08117163181304932,9.56997013092041,0.32036107778549194,-3.244837522506714
1413393886150760500,-0.03297415375709534,0.02525751292705536,0.07165892422199249,9.455806732177734,-0.20158785581588745,-3.065617322921753
1413393886155760500,-0.022522374987602234,0.03571249544620514,0.07447746396064758,9.415221214294434,-0.20200900733470917,-3.098071813583374
1413393886160760500,-0.012796394526958466,0.04196174442768097,0.07966014742851257,9.226556777954102,-0.031448882073163986,-2.8844194412231445
1413393886165760500,-0.00281311571598053,0.028101846575737,0.07606031000614166,9.225617408752441,-0.19466851651668549,-2.8272955417633057
1413393886170760500,0.0034537985920906067,0.017028972506523132,0.07114095985889435,9.25030517578125,-0.40661123394966125,-2.9916915893554688
1413393886175760500,0.013152100145816803,0.023153796792030334,0.07837454974651337,9.44666576385498,0.009868581779301167,-3.3422253131866455
1413393886180760500,0.0089145228266716,0.04165591299533844,0.08587878942489624,9.15355396270752,0.03414250165224075,-2.8514671325683594
1413393886185760500,0.0013746246695518494,0.01968209445476532,0.0884963870048523,9.447172164916992,-0.11285217851400375,-2.957942485809326
1413393886190760500,0.006237499415874481,0.035980358719825745,0.0823879987001419,9.503877639770508,-0.21039412915706635,-2.9091837406158447
1413393886195760500,0.010218948125839233,0.044098421931266785,0.0846070647239685,9.291961669921875,0.165134996175766,-2.892580270767212
1413393886200760500,-0.0023226886987686157,0.0348714143037796,0.08238144218921661,9.169011116027832,0.22195573151111603,-2.8922362327575684
1413393886205760500,-0.017449766397476196,0.01761956512928009,0.06756022572517395,9.396771430969238,-0.03888319060206413,-2.8770816326141357
1413393886210760500,-0.020290382206439972,0.017641738057136536,0.06564516574144363,9.28296947479248,-0.17754553258419037,-2.9996609687805176
1413393886215760500,-0.013448387384414673,0.025098249316215515,0.07129816710948944,9.381964683532715,-0.22687508165836334,-3.056345224380493
1413393886220760500,-0.014825195074081421,0.03198142349720001,0.07738607376813889,9.153401374816895,-0.21935081481933594,-2.819096803665161
1413393886225760500,0.0007236897945404053,0.022624418139457703,0.08721406757831573,9.381453514099121,-0.26838648319244385,-2.9746768474578857
1413393886230760500,0.01660487800836563,0.024837777018547058,0.08523478358983994,9.250207901000977,-0.21888695657253265,-2.8602120876312256
1413393886235760500,0.027727395296096802,0.023881718516349792,0.08593058586120605,9.340221405029297,0.05883648246526718,-2.9090943336486816
1413393886240760500,0.01932264119386673,0.025774314999580383,0.08096073567867279,9.201562881469727,0.24686378240585327,-3.006842851638794
1413393886245760500,0.002747662365436554,0.0182621031999588,0.08510781079530716,9.479096412658691,0.20581363141536713,-3.0322625637054443
1413393886250760500,-0.014034077525138855,0.026623979210853577,0.0816187709569931,9.120217323303223,0.04289482161402702,-3.0157172679901123
1413393886255760500,-0.017621085047721863,0.014840707182884216,0.09634698927402496,9.438631057739258,0.1888938546180725,-2.9504311084747314
1413393886260760500,-0.02255120873451233,0.026579782366752625,0.09634829312562943,9.161144256591797,0.017826123163104057,-2.9010305404663086
1413393886265760500,-0.01396586000919342,0.005085453391075134,0.09687941521406174,9.291693687438965,-0.3983779847621918,-2.7714879512786865
1413393886270760500,-0.00015566498041152954,0.01001538336277008,0.07389859110116959,9.438340187072754,-0.4226512610912323,-2.951296091079712
1413393886275760500,0.0123591348528862,0.010617807507514954,0.06427428126335144,9.511561393737793,-0.30820903182029724,-3.0571534633636475
1413393886280760500,0.01449110358953476,0.02169366180896759,0.05234290659427643,9.422262191772461,-0.11253178119659424,-3.0483083724975586
1413393886285760500,0.01945433020591736,0.005796507000923157,0.05997932329773903,9.339523315429688,-0.006495767738670111,-2.9824211597442627
1413393886290760500,0.00818413496017456,0.02947540581226349,0.06011734902858734,9.397224426269531,0.22226713597774506,-3.0802154541015625
1413393886295760500,-0.011340215802192688,0.015418633818626404,0.08752428740262985,9.340110778808594,0.531640887260437,-2.999138832092285
1413393886300760500,-0.025123558938503265,0.03346984088420868,0.0943809300661087,9.218629837036133,0.11597045511007309,-2.9009833335876465
1413393886305760500,-0.02590831369161606,0.019638821482658386,0.09060681611299515,9.145529747009277,-0.25069791078567505,-2.910163640975952
1413393886310760500,-0.014869138598442078,0.026731565594673157,0.08650987595319748,9.390103340148926,-0.42270001769065857,-3.1392548084259033
1413393886315760500,-0.0008938536047935486,0.021773889660835266,0.0920751541852951,9.267232894897461,-0.2846493422985077,-3.089641571044922
1413393886320760500,0.013894744217395782,0.02939637005329132,0.08066268265247345,9.357386589050293,-0.40723997354507446,-2.9179532527923584
1413393886325760500,0.029931165277957916,0.021130815148353577,0.08854831755161285,9.258970260620117,-0.268100768327713,-2.982790470123291
1413393886330760500,0.030510328710079193,0.0315689891576767,0.08607465028762817,9.323765754699707,0.18075735867023468,-2.981934070587158
1413393886335760500,0.01657160371541977,0.0245082825422287,0.10345995426177979,9.242340087890625,0.4420696198940277,-2.965921401977539
1413393886340760500,-0.013309609144926071,0.03213484585285187,0.08655629307031631,9.218314170837402,0.051348064094781876,-3.0972089767456055
1413393886345760500,-0.02796947956085205,0.014797911047935486,0.07194457203149796,9.439170837402344,-0.17691905796527863,-3.1722028255462646
1413393886350760500,-0.028172984719276428,0.028723999857902527,0.06294010579586029,9.54536247253418,-0.21026036143302917,-3.2045230865478516
1413393886355760500,-0.015558980405330658,0.02581869065761566,0.06335276365280151,9.283985137939453,-0.3740846514701843,-2.828005790710449
1413393886360760500,-0.0008483082056045532,0.02106057107448578,0.06187273561954498,9.348827362060547,-0.423433393239975,-2.974865198135376
1413393886365760500,0.02091563493013382,0.028156831860542297,0.07757379859685898,9.429595947265625,-0.1703798472881317,-2.8679921627044678
1413393886370760500,0.02078542858362198,0.038458243012428284,0.08683233708143234,9.275094985961914,0.2786470949649811,-3.0143039226531982
1413393886375760500,0.00898519903421402,0.03352145850658417,0.08804722130298615,9.13640308380127,0.37717562913894653,-2.8021509647369385
1413393886380760500,-0.00490974634885788,0.0246439129114151,0.09282246232032776,9.44686222076416,0.03472896292805672,-2.9173922538757324
1413393886385760500,-0.01058117300271988,0.02742604911327362,0.08927842974662781,9.406150817871094,-0.03875512257218361,-2.933928966522217
1413393886390760500,-0.009963519871234894,0.03837691247463226,0.08849328756332397,9.43142318725586,-0.1614333838224411,-2.958447217941284
1413393886395760500,-0.00854504108428955,0.02792416512966156,0.08573316782712936,9.087850570678711,-0.18648265302181244,-2.8356986045837402
1413393886400760500,0.007624775171279907,0.021267786622047424,0.08514127135276794,9.49543285369873,-0.39066964387893677,-2.9835593700408936
1413393886405760500,0.01652923971414566,0.023995205760002136,0.07888916879892349,9.25799560546875,-0.0067710368894040585,-2.9010374546051025
1413393886410760500,0.008196517825126648,0.020963624119758606,0.07550590485334396,9.307419776916504,0.20551171898841858,-2.9987716674804688
1413393886415760500,-0.00838540494441986,0.009154722094535828,0.07686061412096024,9.372964859008789,0.05064930394291878,-2.925933361053467
1413393886420760500,-0.011913031339645386,0.010682955384254456,0.06909548491239548,9.5037202835083,-0.0794215053319931,-3.1552107334136963
1413393886425760500,-0.011386923491954803,0.01754392683506012,0.05996827036142349,9.291643142700195,-0.28324612975120544,-2.8448078632354736
1413393886430760500,-0.005792886018753052,0.02097170054912567,0.05942808464169502,9.365225791931152,-0.17765499651432037,-3.1219658851623535
1413393886435760500,0.009020470082759857,0.01904366910457611,0.0760703831911087,9.356437683105469,-0.27637234330177307,-2.811293601989746
1413393886440760500,0.013856835663318634,0.016353324055671692,0.08365403115749359,9.4380464553833,0.017175480723381042,-2.990669012069702
1413393886445760500,0.006904236972332001,0.02312450110912323,0.08801014721393585,9.201488494873047,0.1969904899597168,-2.777724027633667
1413393886450760500,-0.003538869321346283,0.016092821955680847,0.0895535796880722,9.365102767944336,0.10784884542226791,-3.039842128753662
1413393886455760500,-0.012657269835472107,0.015516862273216248,0.09288488328456879,9.397738456726074,-0.055196285247802734,-3.122174024581909
1413393886460760500,-0.014794744551181793,0.02179877460002899,0.08843770623207092,9.447125434875488,-0.10427210479974747,-3.0407378673553467
1413393886465760500,-0.010622106492519379,0.026573851704597473,0.08428340405225754,9.169925689697266,-0.3493535816669464,-2.901636838912964
1413393886470760500,0.008295588195323944,0.028061583638191223,0.08860939741134644,9.365494728088379,-0.40686744451522827,-2.8770954608917236
1413393886475760500,0.019365690648555756,0.018429473042488098,0.09212388098239899,9.225610733032227,-0.23588500916957855,-2.8928399085998535
1413393886480760500,0.02220504730939865,0.015623077750205994,0.08377940207719803,9.445940971374512,0.05822964757680893,-3.031769037246704
1413393886485760500,0.011728920042514801,0.023732736706733704,0.07412388175725937,9.2995023727417,0.20598624646663666,-2.9092304706573486
1413393886490760500,-0.0008417889475822449,0.015377625823020935,0.07414855808019638,9.38936996459961,0.2960224747657776,-3.105445623397827
1413393886495760500,-0.01621965318918228,0.016226336359977722,0.07744824886322021,9.36495590209961,0.10833629965782166,-3.105473518371582
1413393886500760500,-0.023822270333766937,0.021809622645378113,0.07244513928890228,9.545280456542969,-0.19377225637435913,-3.122727155685425
1413393886505760500,-0.019611291587352753,0.042581841349601746,0.07612523436546326,9.398767471313477,-0.19428737461566925,-2.8280956745147705
1413393886510760500,-0.006402149796485901,0.029416486620903015,0.08248279243707657,9.300192832946777,-0.24374084174633026,-2.9418585300445557
1413393886515760500,0.011739052832126617,0.03728590905666351,0.08717566728591919,9.356955528259277,-0.23549918830394745,-2.9256417751312256
1413393886520760500,0.01870761811733246,0.03229345381259918,0.08859275281429291,9.193305015563965,-0.0719584971666336,-3.0561015605926514
1413393886525760500,0.013882927596569061,0.032839491963386536,0.08384603261947632,9.372963905334473,0.13199973106384277,-2.908926486968994
1413393886530760500,-0.00011393427848815918,0.0196027010679245,0.07687049359083176,9.381120681762695,0.157024547457695,-3.105203628540039
1413393886535760500,-0.004264310002326965,0.03777562081813812,0.07605765014886856,9.316574096679688,-0.014060047455132008,-2.884737491607666
1413393886540760500,-0.012796014547348022,0.03144116699695587,0.07534012198448181,9.10428524017334,-0.03845677897334099,-3.1051435470581055
1413393886545760500,-0.009842075407505035,0.04408235847949982,0.0823662206530571,9.438776016235352,-0.09646957367658615,-2.909461736679077
1413393886550760500,-0.010593324899673462,0.023934021592140198,0.08239011466503143,9.144405364990234,-0.20277662575244904,-2.934098958969116
1413393886555760500,-0.002050168812274933,0.033694252371788025,0.08236463367938995,9.226381301879883,-0.29279306530952454,-2.5740199089050293
1413393886560760500,0.0025913938879966736,0.0029052942991256714,0.0789002776145935,9.08657455444336,-0.11302588135004044,-2.933182954788208
1413393886565760500,0.008938945829868317,0.024543270468711853,0.07400840520858765,9.592851638793945,-0.0147514333948493,-2.9255318641662598
1413393886570760500,-0.00432216003537178,0.015397295355796814,0.0725565105676651,9.307908058166504,-0.07139233499765396,-3.0075488090515137
1413393886575760500,0.003538884222507477,0.025294587016105652,0.06556783616542816,9.40605640411377,-0.20210377871990204,-2.8193914890289307
1413393886580760500,-0.002393476665019989,0.014890268445014954,0.06775952130556107,9.184951782226562,0.050904788076877594,-2.974156141281128
1413393886585760500,-0.0007641389966011047,0.04202766716480255,0.08881356567144394,9.61002254486084,0.17259113490581512,-3.1131982803344727
1413393886590760500,-0.008440770208835602,0.034865155816078186,0.0857640951871872,9.063385009765625,-0.12062747031450272,-2.746119260787964
1413393886595760500,-0.0027725398540496826,0.013503476977348328,0.092781201004982,9.299768447875977,-0.26003777980804443,-2.844465494155884
1413393886600760500,0.0011713728308677673,0.01007358729839325,0.0831761285662651,9.233797073364258,-0.21084944903850555,-3.0240139961242676
1413393886605760500,0.0054277703166007996,0.018917903304100037,0.09636013209819794,9.577133178710938,0.0011563495500013232,-3.122163772583008
1413393886610760500,-0.002864263951778412,0.0305507630109787,0.08215351402759552,9.316913604736328,-0.18608757853507996,-2.9669415950775146
1413393886615760500,0.005579359829425812,0.013516917824745178,0.07877883315086365,9.381462097167969,-0.2185715287923813,-2.901604175567627
1413393886620760500,0.00879853218793869,0.021364852786064148,0.07766418904066086,9.209418296813965,-0.006330241449177265,-3.096966505050659
1413393886625760500,0.007521800696849823,0.031510040163993835,0.09294389188289642,9.389307975769043,0.15673482418060303,-3.1296658515930176
1413393886630760500,-0.009855281561613083,0.03056018054485321,0.08155858516693115,9.120169639587402,0.05091150477528572,-2.9502816200256348
1413393886635760500,-0.007666289806365967,0.007165089249610901,0.08521312475204468,9.17686653137207,-0.07168147712945938,-2.909729242324829
1413393886640760500,-0.005134120583534241,0.015622392296791077,0.08251313120126724,9.168927192687988,-0.16138775646686554,-3.0319552421569824
1413393886645760500,-0.004403088241815567,0.01404176652431488,0.08230660110712051,9.471087455749512,0.0017767638200893998,-3.162856101989746
1413393886650760500,-0.01473785936832428,0.027834460139274597,0.06685987859964371,9.46352481842041,-0.14509868621826172,-2.9671056270599365
1413393886655760500,0.005636110901832581,0.02184148132801056,0.07892224192619324,9.34920597076416,-0.16960588097572327,-2.8930981159210205
1413393886660760500,0.008773595094680786,0.0345129519701004,0.07192681729793549,9.316324234008789,-0.18583296239376068,-3.0314295291900635
1413393886665760500,0.006842412054538727,0.027387604117393494,0.08028281480073929,9.405248641967773,0.17289377748966217,-3.121379852294922
1413393886670760500,-0.002835456281900406,0.029326781630516052,0.07619272172451019,9.242037773132324,0.0016283228760585189,-2.95813250541687
1413393886675760500,-0.0006910413503646851,0.0175793319940567,0.08243370056152344,9.463330268859863,-0.18596205115318298,-3.007854461669922
1413393886680760500,-0.003700651228427887,0.02382369339466095,0.08162637054920197,9.242765426635742,-0.17809820175170898,-3.0155200958251953
1413393886685760500,-0.005724161863327026,0.020357325673103333,0.08164776861667633,9.569357872009277,-0.015112861059606075,-3.040161371231079
1413393886690760500,-0.009128689765930176,0.03010718524456024,0.07958565652370453,9.397868156433105,-0.1373281329870224,-2.9093716144561768
1413393886695760500,0.006944902241230011,0.03298051655292511,0.08095923066139221,9.422711372375488,-0.17763929069042206,-2.950239658355713
1413393886700760500,0.008812464773654938,0.032319024205207825,0.08094964921474457,9.27535343170166,-0.11248330026865005,-2.9825828075408936
1413393886705760500,0.004779987037181854,0.03712849318981171,0.0782279521226883,9.45458984375,0.17288866639137268,-3.0641674995422363
1413393886710760500,-0.001428164541721344,0.03076435625553131,0.07962241023778915,9.111593246459961,0.03440273180603981,-2.7126615047454834
1413393886715760500,-0.0007598251104354858,0.014862462878227234,0.08167333900928497,9.585564613342285,-0.16151954233646393,-3.0484538078308105
1413393886720760500,-0.0016327127814292908,0.02590976655483246,0.0837494507431984,9.218015670776367,0.058739516884088516,-2.974403142929077
1413393886725760500,-0.007115669548511505,0.030711933970451355,0.07609888911247253,9.430861473083496,-0.0063787237741053104,-2.9829280376434326
1413393886730760500,0.0013446584343910217,0.0238579660654068,0.07959647476673126,9.193559646606445,-0.14504121243953705,-2.8930583000183105
1413393886735760500,0.004004292190074921,0.02751810848712921,0.07468846440315247,9.53623104095459,-0.03903966397047043,-3.0237791538238525
1413393886740760500,0.01242934912443161,0.030199512839317322,0.08582806587219238,9.226336479187012,0.06701219826936722,-2.9907519817352295
1413393886745760500,0.0019326582551002502,0.03143687546253204,0.07467108964920044,9.373266220092773,0.06706513464450836,-2.958207607269287
1413393886750760500,-0.0014123842120170593,0.01336003839969635,0.08382479846477509,9.111299514770508,0.09134051203727722,-2.745779037475586
1413393886755760500,-0.0015165507793426514,0.012819185853004456,0.08098509162664413,9.43781852722168,-0.07997948676347733,-2.9093682765960693
1413393886760760500,-0.0036774389445781708,0.016148105263710022,0.0900031179189682,9.283493995666504,-0.07974613457918167,-3.138077974319458
1413393886765760500,-0.010561652481555939,0.02442137897014618,0.07952512800693512,9.480011940002441,-0.16984406113624573,-3.057107448577881
1413393886770760500,-0.002834893763065338,0.012068524956703186,0.08170931041240692,9.308205604553223,-0.28416794538497925,-3.049022912979126
1413393886775760500,0.004707500338554382,0.026127919554710388,0.07820697873830795,9.454704284667969,-0.10468288511037827,-2.966506004333496
1413393886780760500,0.015177294611930847,0.014842048287391663,0.08790656179189682,9.282918930053711,0.034226544201374054,-3.0151960849761963
1413393886785760500,0.004724055528640747,0.028659984469413757,0.07324723154306412,9.479113578796387,0.06720283627510071,-3.007533311843872
1413393886790760500,-0.0028173886239528656,0.0077736228704452515,0.07969900965690613,9.127626419067383,0.13255713880062103,-2.9503769874572754
1413393886795760500,-0.007743760943412781,0.017641887068748474,0.07824916392564774,9.446797370910645,-0.22675825655460358,-2.9997453689575195
1413393886800760500,-0.007136698812246323,0.02030836045742035,0.08858022093772888,9.291971206665039,-0.13696466386318207,-3.1953866481781006
1413393886805760500,-0.00851844996213913,0.027983471751213074,0.08160679042339325,9.504319190979004,-0.1701388955116272,-3.0157878398895264
1413393886810760500,-0.0028870776295661926,0.014172181487083435,0.08385298401117325,9.209940910339355,-0.10467631369829178,-2.991084575653076
1413393886815760500,0.0012956932187080383,0.0351019948720932,0.07475822418928146,9.487815856933594,-0.20228850841522217,-2.99923038482666
1413393886820760500,0.005467213690280914,0.02797238528728485,0.08023019134998322,9.128315925598145,-0.12045544385910034,-3.0318868160247803
1413393886825760500,0.008261583745479584,0.03498588502407074,0.0781397670507431,9.503793716430664,-0.031139440834522247,-3.0236318111419678
1413393886830760500,0.003360353410243988,0.022492781281471252,0.0831010565161705,9.144423484802246,-0.022740226238965988,-3.0071043968200684
1413393886835760500,-5.7928264141082764e-05,0.026018843054771423,0.08244743943214417,9.414027214050293,-0.023049592971801758,-2.9418561458587646
1413393886840760500,-0.009890884160995483,0.025799527764320374,0.08524268865585327,9.112204551696777,-0.1451600193977356,-3.056138277053833
1413393886845760500,-0.0077330321073532104,0.030739322304725647,0.08866095542907715,9.332623481750488,-0.11288824677467346,-3.039947748184204
1413393886850760500,-0.005752682685852051,0.028098687529563904,0.08510076254606247,9.34902286529541,-0.17798787355422974,-2.9913582801818848
1413393886855760500,0.001961946487426758,0.028134271502494812,0.08583710342645645,9.242533683776855,-0.0718996450304985,-2.9254510402679443
1413393886860760500,0.005428053438663483,0.03151075541973114,0.07680541276931763,9.161324501037598,-0.17756080627441406,-3.0153448581695557
1413393886865760500,0.009655304253101349,0.0231449156999588,0.0760868489742279,9.266417503356934,-0.014468132518231869,-2.9337830543518066
1413393886870760500,0.007530383765697479,0.019672468304634094,0.07052668184041977,9.250056266784668,-0.07972028106451035,-3.064420461654663
1413393886875760500,0.0033448264002799988,0.017548993229866028,0.07471700012683868,9.144143104553223,0.08338793367147446,-2.9498846530914307
1413393886880760500,-0.007073067128658295,0.025171026587486267,0.07824267446994781,9.381695747375488,-0.031027434393763542,-3.0398919582366943
1413393886885760500,-0.009122610092163086,0.021724775433540344,0.07889553904533386,9.32437801361084,-0.1125766858458519,-2.9666411876678467
1413393886890760500,-0.007841773331165314,0.024672135710716248,0.0754542201757431,9.68409252166748,-0.14518673717975616,-3.21223783493042
1413393886895760500,-0.00436115637421608,0.02946053445339203,0.08102833479642868,9.210049629211426,0.08318590372800827,-2.9092767238616943
1413393886900760500,-0.001485772430896759,0.027327880263328552,0.0732274278998375,9.455145835876465,-0.19406796991825104,-3.007505416870117
1413393886905760500,0.0041234418749809265,0.0287371426820755,0.07458291202783585,9.340119361877441,-0.16949212551116943,-2.860464096069336
1413393886910760500,0.01663782447576523,0.02253834903240204,0.0810292437672615,9.462581634521484,-0.13724452257156372,-3.080803871154785
1413393886915760500,0.00953768938779831,0.024522051215171814,0.07748199999332428,9.054582595825195,0.05859633535146713,-2.8269474506378174
1413393886920760500,0.0006793513894081116,0.021725162863731384,0.08452866971492767,9.46306324005127,0.05038440600037575,-3.113243579864502
1413393886925760500,-0.006324239075183868,0.024517670273780823,0.08242245018482208,9.226174354553223,-0.08809102326631546,-2.884781837463379
1413393886930760500,-0.004307731986045837,0.018354281783103943,0.09213322401046753,9.504015922546387,-0.01498866081237793,-2.9747650623321533
1413393886935760500,-0.006530553102493286,0.026618406176567078,0.08789240568876266,9.06320571899414,0.0588606521487236,-2.9412901401519775
1413393886940760500,-0.0063505470752716064,0.021067485213279724,0.08232434093952179,9.398006439208984,-0.2918388247489929,-3.0080995559692383
1413393886945760500,0.0034001395106315613,0.016898110508918762,0.0823686495423317,9.062525749206543,-0.25956735014915466,-2.958927631378174
1413393886950760500,0.010974399745464325,0.017637118697166443,0.07536452263593674,9.413429260253906,-0.1046319231390953,-2.982839345932007
1413393886955760500,0.00681682676076889,0.018929049372673035,0.07813749462366104,9.168940544128418,-0.0066169011406600475,-2.9008123874664307
1413393886960760500,0.002082221210002899,0.014108046889305115,0.07614049315452576,9.59382438659668,-0.16167046129703522,-3.1058030128479004
1413393886965760500,0.0006002262234687805,0.02033992111682892,0.07544203102588654,9.071041107177734,-0.08800683170557022,-2.8602914810180664
1413393886970760500,-0.0008987709879875183,0.012075260281562805,0.0915767103433609,9.503739356994629,0.1320454478263855,-3.2931418418884277
1413393886975760500,-0.01268923282623291,0.03911648690700531,0.08515864610671997,9.357221603393555,0.0751941129565239,-2.9421188831329346
1413393886980760500,-0.012539103627204895,0.022407665848731995,0.08648893982172012,9.242912292480469,-0.18579484522342682,-2.9097704887390137
1413393886985760500,-0.004328228533267975,0.026760056614875793,0.07187963277101517,9.373712539672852,-0.398054838180542,-2.9344420433044434
1413393886990760500,0.013026870787143707,0.023925110697746277,0.07959550619125366,9.225798606872559,-0.1125820204615593,-3.0563883781433105
1413393886995760500,0.0137556791305542,0.024527981877326965,0.08437366783618927,9.430174827575684,0.00922889169305563,-2.990772247314453
1413393887000760500,0.0027930811047554016,0.017507746815681458,0.07532019168138504,9.36467170715332,-0.022952482104301453,-2.982778310775757
1413393887005760500,0.00349639356136322,0.023863360285758972,0.07835762947797775,9.308090209960938,-0.10420989245176315,-3.0399489402770996
1413393887010760500,0.001119375228881836,0.020378634333610535,0.08953358978033066,9.1934814453125,0.246375173330307,-3.0231945514678955
1413393887015760500,-0.012720301747322083,0.02874864637851715,0.09135521948337555,9.650835990905762,0.115611732006073,-3.0073890686035156
1413393887020760500,-0.016740530729293823,0.03148446977138519,0.08360131084918976,9.267730712890625,-0.12028371542692184,-2.9098763465881348
1413393887025760500,-0.004302911460399628,0.017684832215309143,0.07614947110414505,9.390218734741211,-0.40606990456581116,-3.008349895477295
1413393887030760500,0.01088627427816391,0.0315423458814621,0.07192911207675934,9.185367584228516,-0.20230194926261902,-2.9502928256988525
1413393887035760500,0.014477603137493134,0.01965142786502838,0.08365300297737122,9.36422348022461,-0.015355345793068409,-2.957728147506714
1413393887040760500,0.007005229592323303,0.02870170772075653,0.07390405982732773,9.438455581665039,-0.16187739372253418,-2.99912166595459
1413393887045760500,0.008366614580154419,0.02037234604358673,0.08251817524433136,9.201737403869629,-0.0229031965136528,-2.966289520263672
1413393887050760500,0.0025087594985961914,0.027327969670295715,0.08258560299873352,9.12830924987793,0.2546578347682953,-2.9901864528656006
1413393887055760500,-0.016928598284721375,0.021053627133369446,0.08656404167413712,9.438161849975586,0.18124035000801086,-3.0155539512634277
1413393887060760500,-0.020213954150676727,0.034241631627082825,0.08015983551740646,9.357417106628418,-0.1528504639863968,-3.0651702880859375
1413393887065760500,-0.006425745785236359,0.01900993287563324,0.08230249583721161,9.226919174194336,-0.2999745309352875,-2.893781900405884
1413393887070760500,0.006002478301525116,0.022525236010551453,0.07604210078716278,9.185382843017578,-0.243439719080925,-2.925682306289673
1413393887075760500,0.014504484832286835,0.011345729231834412,0.08161666989326477,9.192584037780762,-0.14572997391223907,-2.933562994003296
1413393887080760500,0.009054221212863922,0.02173452079296112,0.07610079646110535,9.519753456115723,-0.13744699954986572,-3.0483767986297607
1413393887085760500,0.011850573122501373,0.0133332759141922,0.07615382969379425,9.185164451599121,-0.0717887356877327,-2.9746603965759277
1413393887090760500,0.006026871502399445,0.021780863404273987,0.08037465810775757,9.259106636047363,0.15668940544128418,-3.0150115489959717
1413393887095760500,-0.009258732199668884,0.008558496832847595,0.08519396185874939,9.217336654663086,0.20565029978752136,-2.9743270874023438
1413393887100760500,-0.025128379464149475,0.023839280009269714,0.07882413268089294,9.552927017211914,-0.11236545443534851,-3.016169309616089
1413393887105760500,-0.014655821025371552,0.01959104835987091,0.0851239487528801,9.374131202697754,-0.3817753195762634,-2.9431021213531494
1413393887110760500,0.0025384128093719482,0.03153897821903229,0.08232906460762024,9.4722261428833,-0.3985351324081421,-3.0081005096435547
1413393887115760500,0.009554661810398102,0.019057467579841614,0.08435769379138947,9.095404624938965,-0.21954591572284698,-2.8355629444122314
1413393887120760500,0.015360124409198761,0.02190689742565155,0.07818170636892319,9.601016998291016,-0.1948438286781311,-2.999147653579712
1413393887125760500,0.016680963337421417,0.017547354102134705,0.07546652853488922,9.1926908493042,-0.06363149732351303,-2.8763113021850586
1413393887130760500,0.013085998594760895,0.02306877076625824,0.08247214555740356,9.406006813049316,0.18119361996650696,-3.1294326782226562
1413393887135760500,-0.005088426172733307,0.030718490481376648,0.08167140930891037,9.202070236206055,0.2631232738494873,-2.9416556358337402
1413393887140760500,-0.02516935020685196,0.02322240173816681,0.08238485455513,9.512017250061035,0.15679454803466797,-2.991384267807007
1413393887145760500,-0.022349029779434204,0.03296290338039398,0.08171265572309494,9.300464630126953,-0.21010710299015045,-2.9016034603118896
1413393887150760500,-0.006543360650539398,0.019006595015525818,0.0830160528421402,9.267457962036133,-0.3245787024497986,-3.0406978130340576
1413393887155760500,0.00044964998960494995,0.036323532462120056,0.07667239755392075,9.136744499206543,-0.2598637342453003,-2.901367664337158
1413393887160760500,0.013967275619506836,0.02036099135875702,0.07813071459531784,9.372602462768555,-0.29268574714660645,-2.9095849990844727
1413393887165760500,0.018050558865070343,0.030200019478797913,0.06845510751008987,9.36477279663086,-0.20258963108062744,-3.023617744445801
1413393887170760500,0.01798412948846817,0.019682303071022034,0.08247935771942139,9.193416595458984,0.22175544500350952,-3.0966086387634277
1413393887175760500,-0.004412107169628143,0.038375094532966614,0.07963131368160248,9.299979209899902,0.4014626741409302,-2.949641704559326
1413393887180760500,-0.024428851902484894,0.025172099471092224,0.08589789271354675,9.324250221252441,0.13274332880973816,-3.0238068103790283
1413393887185760500,-0.027994699776172638,0.028090760111808777,0.07612057030200958,9.447301864624023,-0.23439745604991913,-3.1063270568847656
1413393887190760500,-0.0162845179438591,0.012769773602485657,0.08303271979093552,9.201973915100098,-0.30851781368255615,-2.894014358520508
1413393887195760500,-0.0009051412343978882,0.03633598983287811,0.07455486059188843,9.569869041442871,-0.34149855375289917,-3.024148941040039
1413393887200760500,0.015957556664943695,0.02305389940738678,0.08293217420578003,9.087395668029785,-0.39883163571357727,-2.9014902114868164
1413393887205760500,0.024390436708927155,0.019165709614753723,0.07259216904640198,9.633929252624512,-0.2929198145866394,-2.9340996742248535
1413393887210760500,0.024963170289993286,0.014924392104148865,0.07412119209766388,9.2333402633667,0.20519664883613586,-2.9002599716186523
1413393887215760500,0.013059787452220917,0.025866135954856873,0.08391880989074707,9.552905082702637,0.4012705087661743,-3.1210734844207764
1413393887220760500,-0.019661113619804382,0.028512433171272278,0.08376852422952652,9.27574634552002,0.2714757025241852,-3.015659809112549
1413393887225760500,-0.025775693356990814,0.0287335067987442,0.08091678470373154,9.348937034606934,-0.005967645440250635,-2.917818069458008
1413393887230760500,-0.019769996404647827,0.014984473586082458,0.08935368061065674,9.193720817565918,-0.2185666263103485,-2.795198678970337
1413393887235760500,-0.0030035674571990967,0.02114872634410858,0.08997894823551178,9.52026653289795,-0.3659343421459198,-3.097867012023926
1413393887240760500,0.013800479471683502,0.03273828327655792,0.08493966609239578,9.13714599609375,-0.3658981919288635,-2.869086742401123
1413393887245760500,0.020932085812091827,0.023832425475120544,0.07465176284313202,9.397680282592773,-0.3254019618034363,-2.7705860137939453
1413393887250760500,0.027162574231624603,0.014983072876930237,0.07482673972845078,9.143606185913086,-0.1459030956029892,-2.8840813636779785
1413393887255760500,0.01647191494703293,0.010710194706916809,0.07823154330253601,9.265920639038086,0.3521384000778198,-3.1535634994506836
1413393887260760500,-0.006469439715147018,0.03265027701854706,0.08515609800815582,9.201864242553711,0.48337140679359436,-2.8928072452545166
1413393887265760500,-0.03005756437778473,0.018802180886268616,0.07683195918798447,9.463395118713379,0.12480681389570236,-2.9833216667175293
1413393887270760500,-0.02937200665473938,0.02047891914844513,0.07895174622535706,9.276090621948242,-0.3241081237792969,-2.926732063293457
1413393887275760500,-0.016345374286174774,0.01215989887714386,0.07114765048027039,9.250978469848633,-0.3409489691257477,-3.040987491607666
1413393887280760500,0.0019009262323379517,0.03420759737491608,0.07522429525852203,9.340752601623535,-0.3660464882850647,-2.8853063583374023
1413393887285760500,0.011100225150585175,0.014700129628181458,0.07528169453144073,9.454413414001465,-0.36638230085372925,-3.056979179382324
1413393887290760500,0.023753933608531952,0.02539844810962677,0.07124371826648712,9.51172161102295,-0.25199124217033386,-2.925992250442505
1413393887295760500,0.02210906147956848,0.010701343417167664,0.07343758642673492,9.119396209716797,0.16463424265384674,-2.990199565887451
1413393887300760500,0.010266028344631195,0.03490276634693146,0.08810320496559143,9.585673332214355,0.4989047646522522,-3.0395798683166504
1413393887305760500,-0.021754160523414612,0.02365948259830475,0.09001243114471436,9.209720611572266,0.28784823417663574,-2.991016149520874
1413393887310760500,-0.02993122488260269,0.01909683644771576,0.08787325024604797,9.553565979003906,-0.15305805206298828,-2.99214768409729
1413393887315760500,-0.021181881427764893,0.025992080569267273,0.0851854756474495,9.121011734008789,-0.2999442219734192,-2.967229127883911
1413393887320760500,-0.008627630770206451,0.022470936179161072,0.09352485835552216,9.643230438232422,-0.3089582920074463,-3.138831615447998
1413393887325760500,0.008963622152805328,0.02377687394618988,0.07999304682016373,9.111896514892578,-0.431649774312973,-2.8447296619415283
1413393887330760500,0.026460744440555573,0.01771293580532074,0.07950480282306671,9.577199935913086,-0.37417519092559814,-2.999727249145508
1413393887335760500,0.029169373214244843,0.03642062842845917,0.06859200447797775,9.144516944885254,-0.031156964600086212,-2.9004101753234863
1413393887340760500,0.017231769859790802,0.020320668816566467,0.09017742425203323,9.478882789611816,0.5311835408210754,-3.0149803161621094
1413393887345760500,-0.014761332422494888,0.03912670910358429,0.07955852150917053,9.389958381652832,0.3121398091316223,-3.080566167831421
1413393887350760500,-0.030730850994586945,0.0273142009973526,0.07332934439182281,9.242871284484863,0.10080020874738693,-2.9997973442077637
1413393887355760500,-0.025336608290672302,0.03146432340145111,0.08185435086488724,9.096442222595215,-0.27529236674308777,-3.048666000366211
1413393887360760500,-0.013547249138355255,0.02106092870235443,0.07947387546300888,9.299436569213867,-0.2269342988729477,-3.032221794128418
1413393887365760500,0.0033994391560554504,0.0405164510011673,0.08068042248487473,9.218518257141113,-0.43970823287963867,-2.836364984512329
1413393887370760500,0.013244874775409698,0.01899130642414093,0.07813864946365356,9.324457168579102,-0.43178054690361023,-2.868952989578247
1413393887375760500,0.031350746750831604,0.028151825070381165,0.07345985621213913,9.266738891601562,-0.14598442614078522,-2.876030445098877
1413393887380760500,0.01845649629831314,0.009231045842170715,0.0761408656835556,9.127041816711426,0.43377387523651123,-3.0146126747131348
1413393887385760500,-9.912252426147461e-05,0.03279329836368561,0.08939193189144135,9.495613098144531,0.5073195099830627,-2.990757465362549
1413393887390760500,-0.030793696641921997,0.016051188111305237,0.0795368105173111,9.348867416381836,0.15769250690937042,-3.0648508071899414
1413393887395760500,-0.030049413442611694,0.02045483887195587,0.08239954710006714,9.382143020629883,-0.0711183026432991,-3.0081801414489746
1413393887400760500,-0.024740643799304962,0.006531044840812683,0.07747234404087067,9.357229232788086,-0.3817632794380188,-2.951256275177002
1413393887405760500,-0.004332289099693298,0.021786734461784363,0.08433392643928528,9.683587074279785,-0.31710708141326904,-3.073727607727051
1413393887410760500,0.0054800137877464294,0.018836602568626404,0.07864072918891907,9.21817398071289,-0.4644054174423218,-2.836529016494751
1413393887415760500,0.02724497765302658,0.015605524182319641,0.0732874944806099,9.560968399047852,-0.4151899218559265,-2.983590602874756
1413393887420760500,0.030460961163043976,0.022598251700401306,0.07068949937820435,9.266294479370117,0.02581447921693325,-2.9821462631225586
1413393887425760500,0.018634244799613953,0.007155910134315491,0.09087750315666199,9.527619361877441,0.4741021990776062,-3.178429365158081
1413393887430760500,-0.006360094994306564,0.03760795295238495,0.08509613573551178,9.357452392578125,0.3121950030326843,-2.999030113220215
1413393887435760500,-0.030037283897399902,0.01747433841228485,0.0830707997083664,9.308524131774902,0.002572780940681696,-3.056844472885132
1413393887440760500,-0.026653774082660675,0.028100326657295227,0.08254994451999664,9.226821899414062,-0.13674861192703247,-3.032318115234375
1413393887445760500,-0.012158699333667755,0.014177516102790833,0.08996489644050598,9.283364295959473,-0.38205933570861816,-3.0736632347106934
1413393887450760500,0.006838597357273102,0.037038400769233704,0.08551959693431854,9.382166862487793,-0.505036473274231,-2.9676477909088135
1413393887455760500,0.02158135175704956,0.015430286526679993,0.08227099478244781,9.177323341369629,-0.45643582940101624,-2.8445520401000977
1413393887460760500,0.03553735464811325,0.025384828448295593,0.07629390060901642,9.405633926391602,-0.17868955433368683,-2.998751401901245
1413393887465760500,0.021376080811023712,0.018278196454048157,0.0797073096036911,9.029335021972656,0.3278260827064514,-3.014364719390869
1413393887470760500,-0.0015767291188240051,0.024415239691734314,0.08375297486782074,9.380901336669922,0.5971565842628479,-2.9907262325286865
1413393887475760500,-0.0266120582818985,0.02441166341304779,0.07956874370574951,9.24279499053955,0.14971977472305298,-2.9910881519317627
1413393887480760500,-0.03640726953744888,0.023858651518821716,0.07125654071569443,9.316883087158203,-0.1114729791879654,-3.0733745098114014
1413393887485760500,-0.02395031601190567,0.015557244420051575,0.07961593568325043,9.259435653686523,-0.30018019676208496,-2.9755053520202637
1413393887490760500,-0.005076013505458832,0.029426082968711853,0.07939531654119492,9.536778450012207,-0.3742215633392334,-2.9507992267608643
1413393887495760500,0.013871468603610992,0.025189772248268127,0.07726910710334778,9.283708572387695,-0.5132239460945129,-2.934616804122925
1413393887500760500,0.031358979642391205,0.026042327284812927,0.07336322963237762,9.479225158691406,-0.34181827306747437,-2.966848850250244
1413393887505760500,0.0298478826880455,0.022556915879249573,0.07350482046604156,9.307144165039062,0.11526665836572647,-3.0147457122802734
1413393887510760500,0.01374950259923935,0.017573490738868713,0.08031145483255386,9.445818901062012,0.5314323902130127,-3.0232481956481934
1413393887515760500,-0.011981457471847534,0.03205861151218414,0.08932839334011078,9.430732727050781,0.38545283675193787,-2.974628210067749
1413393887520760500,-0.03429613262414932,0.026550009846687317,0.07750704884529114,9.43934440612793,0.14146170020103455,-3.195734977722168
1413393887525760500,-0.026617616415023804,0.02881045639514923,0.08660644292831421,9.357885360717773,-0.26713863015174866,-2.910433530807495
1413393887530760500,-0.017045028507709503,0.023236259818077087,0.07811523973941803,9.349209785461426,-0.35753199458122253,-3.122607946395874
1413393887535760500,0.006192445755004883,0.03844816982746124,0.08145210146903992,9.22666072845459,-0.4724159836769104,-2.8200275897979736
1413393887540760500,0.02433311939239502,0.02175702154636383,0.0815623328089714,9.356796264648438,-0.42374488711357117,-2.9996557235717773
1413393887545760500,0.0362204983830452,0.029541805386543274,0.07687126845121384,9.388933181762695,-0.0889214277267456,-2.843360185623169
1413393887550760500,0.018528543412685394,0.014036789536476135,0.0838966816663742,9.02122974395752,0.5643980503082275,-3.0552337169647217
1413393887555760500,-0.009183775633573532,0.03558005392551422,0.09226563572883606,9.561524391174316,0.5807966589927673,-3.0646004676818848
1413393887560760500,-0.040584199130535126,0.027163252234458923,0.08511456847190857,9.185836791992188,0.23145273327827454,-3.0812630653381348
1413393887565760500,-0.0321493074297905,0.03435687720775604,0.08297037333250046,9.53011417388916,-0.4300861656665802,-2.9761650562286377
1413393887570760500,-0.01852862536907196,0.02253936231136322,0.06898146122694016,9.202459335327148,-0.5451115965843201,-2.8126163482666016
1413393887575760500,0.007485419511795044,0.028749510645866394,0.0745999738574028,9.267148971557617,-0.57090824842453,-2.9916458129882812
1413393887580760500,0.022196926176548004,0.020335927605628967,0.06969629973173141,9.290943145751953,-0.28505566716194153,-3.064643144607544
1413393887585760500,0.027806885540485382,0.008575201034545898,0.07552923262119293,9.527175903320312,0.3111463785171509,-3.407442569732666
1413393887590760500,0.0033234283328056335,0.03772352635860443,0.0707109272480011,9.578046798706055,0.42617514729499817,-3.0974836349487305
1413393887595760500,-0.027308493852615356,0.028648927807807922,0.0671328753232956,9.61913013458252,0.41039368510246277,-3.1386044025421143
1413393887600760500,-0.03425151854753494,0.041301921010017395,0.06000204384326935,10.013131141662598,-0.5117606520652771,-3.3851876258850098
1413393887605760500,-0.008571505546569824,0.020511075854301453,0.06745336949825287,9.50444221496582,-0.6433617472648621,-2.8216183185577393
1413393887610760500,0.01571626216173172,0.05104874074459076,0.08373010158538818,9.349536895751953,-0.2852753698825836,-3.162299633026123
1413393887615760500,0.033501528203487396,0.05704359710216522,0.12423262000083923,8.941230773925781,0.01615070551633835,-2.8254334926605225
1413393887620760500,0.023912765085697174,0.035707101225852966,0.1529339849948883,8.989267349243164,-0.03328610211610794,-2.9485924243927
1413393887625760500,0.023953504860401154,0.05893908441066742,0.1431071162223816,9.43193244934082,-0.24400828778743744,-2.9499974250793457
1413393887630760500,0.016440212726593018,0.03225122392177582,0.1187417209148407,8.876296043395996,-0.055256083607673645,-2.7946417331695557
1413393887635760500,0.0009290650486946106,0.02442680299282074,0.10895103216171265,9.13677978515625,0.483063280582428,-3.055896759033203
1413393887640760500,-0.03924625366926193,0.050786301493644714,0.08131396025419235,9.071385383605957,0.2067539393901825,-2.672163963317871
1413393887645760500,-0.05085638910531998,0.033435627818107605,0.05265399068593979,9.178048133850098,-0.48688387870788574,-2.9594531059265137
1413393887650760500,-0.01983536034822464,0.03140436112880707,0.023749038577079773,9.022886276245117,-1.0746990442276,-2.7158875465393066
1413393887655760500,0.01539892703294754,0.01142832636833191,0.032442349940538406,8.636625289916992,-0.3012109100818634,-2.6469919681549072
1413393887660760500,0.031214334070682526,0.04890011250972748,0.05040841922163963,9.462512016296387,-0.04049749672412872,-3.0215513706207275
1413393887665760500,0.011923439800739288,0.03526709973812103,0.05515337735414505,8.514920234680176,0.18130870163440704,-2.6297640800476074
1413393887670760500,0.013450585305690765,-0.0003101527690887451,0.06878501176834106,9.495214462280273,0.0339961051940918,-3.211407423019409
1413393887675760500,-0.0004191100597381592,0.033121511340141296,0.07005949318408966,9.38966178894043,0.45880964398384094,-2.771034002304077
1413393887680760500,-0.008676286786794662,0.004058614373207092,0.13399605453014374,9.16930103302002,0.5477433204650879,-3.1211211681365967
1413393887685760500,-0.03836175054311752,0.03340230882167816,0.10905143618583679,9.546520233154297,-0.1698320209980011,-2.837001085281372
1413393887690760500,-0.018700703978538513,-0.015008702874183655,0.10860936343669891,9.39747428894043,-0.6268932223320007,-2.9777209758758545
1413393887695760500,0.00023586302995681763,0.004802122712135315,0.07282570749521255,10.189629554748535,-0.39823612570762634,-3.067368745803833
1413393887700760500,0.01014186441898346,-0.007563665509223938,0.10821956396102905,9.5197172164917,0.23665013909339905,-3.089296579360962
1413393887705760500,-0.006934612989425659,0.04236768186092377,0.06716984510421753,9.988451957702637,-0.49629655480384827,-3.29488205909729
1413393887710760500,0.012865975499153137,0.007905855774879456,0.06891704350709915,8.923364639282227,-0.3079509735107422,-2.272451877593994
1413393887715760500,0.026112139225006104,0.007645443081855774,0.053662918508052826,10.35330867767334,-0.43930211663246155,-3.432945489883423
1413393887720760500,0.021043963730335236,0.0355825275182724,0.06723321974277496,8.891133308410645,0.8254351615905762,-2.8273584842681885
1413393887725760500,0.0020602643489837646,0.031130686402320862,0.09554854035377502,9.529647827148438,0.4510403275489807,-3.300859212875366
1413393887730760500,-0.020786210894584656,0.07648040354251862,0.07803237438201904,8.706038475036621,-0.037820812314748764,-2.4598071575164795
1413393887735760500,-0.009890817105770111,-0.00020039081573486328,0.09585849940776825,9.01230525970459,0.018056780099868774,-3.0066521167755127
1413393887740760500,-0.013714984059333801,0.04511149227619171,0.07626098394393921,9.373623847961426,-0.2264326810836792,-3.2851498126983643
1413393887745760500,-0.00843842700123787,0.025497600436210632,0.10866913944482803,8.671777725219727,-0.0969143807888031,-2.917823553085327
1413393887750760500,-0.013942517340183258,0.05891810357570648,0.08476878702640533,9.041229248046875,-0.6691874265670776,-2.8939547538757324
1413393887755760500,0.0013297274708747864,0.014887139201164246,0.07955474406480789,8.571943283081055,-0.2438264787197113,-2.6397757530212402
1413393887760760500,0.02057015150785446,-0.004078134894371033,0.05616622045636177,9.74728012084961,-0.4557049572467804,-3.4000279903411865
1413393887765760500,0.019834227859973907,0.014705494046211243,0.06359940767288208,9.094985961914062,0.3447800278663635,-2.950532913208008
1413393887770760500,0.006301037967205048,0.019910290837287903,0.0767524465918541,9.848727226257324,0.06777031719684601,-3.5630056858062744
1413393887775760500,-0.016080524772405624,0.046516552567481995,0.04316379874944687,8.581390380859375,0.12554194033145905,-2.3456177711486816
1413393887780760500,-0.009830154478549957,-0.020929604768753052,0.07643470168113708,9.485457420349121,-0.13730213046073914,-2.99874210357666
1413393887785760500,-0.017828673124313354,0.011774793267250061,0.0496877059340477,10.058350563049316,-0.24310727417469025,-3.285947322845459
1413393887790760500,-0.0021199584007263184,0.003972902894020081,0.09891809523105621,9.316203117370605,0.11497561633586884,-2.811992883682251
1413393887795760500,-0.012579813599586487,0.04574374854564667,0.08989808708429337,9.98940372467041,-0.26846614480018616,-3.0974626541137695
1413393887800760500,-0.013168811798095703,0.016253188252449036,0.0837627425789833,8.80099868774414,-0.2352372109889984,-2.7209537029266357
1413393887805760500,0.013847313821315765,0.004343196749687195,0.09092415869235992,10.255303382873535,-0.6358023285865784,-3.2870471477508545
1413393887810760500,0.021957941353321075,0.033606961369514465,0.0997467041015625,9.005491256713867,0.058221835643053055,-2.8024849891662598
1413393887815760500,0.022223860025405884,0.034576550126075745,0.11146235466003418,9.734121322631836,0.3519151210784912,-3.2107174396514893
1413393887820760500,-0.005556777119636536,0.05293963849544525,0.08715646713972092,9.080890655517578,-0.03836923465132713,-2.648357391357422
1413393887825760500,-0.006217658519744873,0.013070449233055115,0.08478103578090668,9.233244895935059,-0.022367333993315697,-3.0154759883880615
1413393887830760500,0.00033783912658691406,0.029081687331199646,0.07549697160720825,9.642926216125488,-0.25073325634002686,-3.1468966007232666
1413393887835760500,0.0010141506791114807,0.036625996232032776,0.0807017832994461,8.621829986572266,0.16529664397239685,-2.851724863052368
1413393887840760500,-0.0077772364020347595,0.03050534427165985,0.08998821675777435,9.169858932495117,0.22971896827220917,-2.9163670539855957
1413393887845760500,-0.020200207829475403,0.032251134514808655,0.0671050101518631,8.784536361694336,-0.16097018122673035,-2.6885077953338623
1413393887850760500,-0.010590314865112305,-0.007892683148384094,0.07211422920227051,9.037055015563965,-0.16115637123584747,-3.0402493476867676
1413393887855760500,0.006646282970905304,0.012744739651679993,0.07473362237215042,9.332451820373535,-0.24295036494731903,-3.1303911209106445
1413393887860760500,0.010867275297641754,0.003235727548599243,0.07718540728092194,8.7848539352417,0.05882867053151131,-2.7373383045196533
1413393887865760500,0.008325628936290741,0.012693122029304504,0.07042548060417175,9.773656845092773,0.1076812744140625,-3.0809874534606934
1413393887870760500,-0.0035483017563819885,0.00446183979511261,0.06372372061014175,8.947043418884277,0.0350768119096756,-2.7620604038238525
1413393887875760500,-0.008478745818138123,-0.01142069697380066,0.07836096733808517,9.577189445495605,0.00980695616453886,-3.2856733798980713
1413393887880760500,-0.007819496095180511,0.029341652989387512,0.08778878301382065,9.651577949523926,-0.1370537430047989,-3.139054775238037
1413393887885760500,-0.005026489496231079,0.00965861976146698,0.08356408774852753,9.160977363586426,-0.30037567019462585,-3.0164976119995117
1413393887890760500,-0.004294015467166901,0.015042021870613098,0.0776330828666687,10.018815994262695,-0.096901535987854,-2.9841370582580566
1413393887895760500,-0.002826392650604248,0.01913692057132721,0.0769447609782219,9.413155555725098,-0.1291467249393463,-2.8846595287323
1413393887900760500,-0.010560773313045502,0.015536680817604065,0.07389427721500397,9.7171049118042,-0.11272118240594864,-3.1550800800323486
1413393887905760500,-0.00347263365983963,0.030689135193824768,0.08429176360368729,9.692278861999512,-0.34135907888412476,-3.041140556335449
1413393887910760500,0.013108111917972565,0.023833349347114563,0.09070707857608795,9.144560813903809,-0.35797134041786194,-2.9257075786590576
1413393887915760500,0.014373652637004852,0.023388341069221497,0.07341369986534119,9.601624488830566,0.07477252185344696,-2.99873685836792
1413393887920760500,0.004802420735359192,0.02519969642162323,0.07907609641551971,9.03715991973877,0.10786206275224686,-2.8019018173217773
1413393887925760500,-0.008366994559764862,0.012684062123298645,0.08524525165557861,9.54513168334961,0.06671516597270966,-3.1543257236480713
1413393887930760500,-0.009807579219341278,0.04956294596195221,0.09546540677547455,9.668641090393066,0.04245971888303757,-3.138489007949829
1413393887935760500,-0.0037306733429431915,0.039671435952186584,0.10106823593378067,8.51702880859375,-0.1940586268901825,-2.8927252292633057
1413393887940760500,0.0019065216183662415,0.02274741232395172,0.0880403071641922,9.463410377502441,-0.276074081659317,-2.901472330093384
1413393887945760500,0.01036234200000763,0.050404563546180725,0.08248923718929291,9.045796394348145,-0.07969881594181061,-2.843475103378296
1413393887950760500,0.006786614656448364,0.005599379539489746,0.08649621158838272,8.719059944152832,0.050132352858781815,-2.8266375064849854
1413393887955760500,-0.007094450294971466,0.02657841145992279,0.07175593823194504,9.651432037353516,0.09943145513534546,-3.2118942737579346
1413393887960760500,-0.005652852356433868,0.03967444598674774,0.08030039072036743,8.97359848022461,0.04350515827536583,-2.9992868900299072
1413393887965760500,0.003950342535972595,0.0023549944162368774,0.07964339852333069,8.956789016723633,-0.21040354669094086,-2.8194072246551514
1413393887970760500,0.00036404281854629517,0.022615894675254822,0.055824026465415955,9.518936157226562,0.1489747166633606,-2.9417684078216553
1413393887975760500,-0.00011787563562393188,0.008425235748291016,0.06989285349845886,8.832733154296875,0.15721292793750763,-2.720648765563965
1413393887980760500,-0.014045841991901398,0.005070045590400696,0.06357140094041824,9.986427307128906,0.042155902832746506,-3.2046127319335938
1413393887985760500,-0.018078193068504333,0.04736451804637909,0.06616038084030151,9.643553733825684,-0.08769593387842178,-2.853182554244995
1413393887990760500,-0.009840235114097595,0.00584392249584198,0.08227808773517609,9.333531379699707,-0.4970026910305023,-2.836325168609619
1413393887995760500,0.001275390386581421,0.029720351099967957,0.080311119556427,10.010866165161133,-0.5952942967414856,-2.992121458053589
1413393888000760500,0.011663727462291718,0.038375213742256165,0.07472436130046844,9.192392349243164,0.13991974294185638,-2.9736218452453613
1413393888005760500,0.01726890355348587,0.00436072051525116,0.08806806802749634,9.266092300415039,0.20488283038139343,-2.9249093532562256
1413393888010760500,0.008306778967380524,0.016975387930870056,0.09071193635463715,9.838202476501465,0.07493863254785538,-3.130579710006714
1413393888015760500,-0.010500449687242508,0.030737414956092834,0.08640384674072266,9.365716934204102,0.10015759617090225,-3.081376552581787
1413393888020760500,-0.00906265527009964,0.00506223738193512,0.10194522142410278,9.464397430419922,-0.25987139344215393,-2.9511289596557617
1413393888025760500,0.0011899247765541077,0.023173615336418152,0.08930285274982452,9.439081192016602,-0.5620791912078857,-2.984057664871216
1413393888030760500,0.0025075748562812805,0.012782260775566101,0.07106715440750122,9.004846572875977,-0.12926727533340454,-2.696838617324829
1413393888035760500,0.011025868356227875,0.0023149102926254272,0.08392314612865448,9.322786331176758,0.1639430820941925,-3.0392980575561523
1413393888040760500,-0.000821925699710846,0.018818512558937073,0.08167660236358643,9.225618362426758,0.1812129020690918,-2.9169909954071045
1413393888045760500,-0.013266604393720627,0.011919483542442322,0.07311993837356567,9.071549415588379,-0.03823160007596016,-3.0156610012054443
1413393888050760500,-0.013355046510696411,0.025288596749305725,0.07973086088895798,9.463791847229004,-0.0957382470369339,-3.0158467292785645
1413393888055760500,-0.000891461968421936,0.03561992943286896,0.0776309072971344,8.965516090393066,-0.30811014771461487,-2.909303903579712
1413393888060760500,0.010201454162597656,0.014962717890739441,0.06960683315992355,9.258586883544922,-0.1941288560628891,-2.8930771350860596
1413393888065760500,0.012398220598697662,0.02041710913181305,0.07886947691440582,9.135269165039062,0.0990757942199707,-2.8923401832580566
1413393888070760500,0.009044453501701355,0.011221542954444885,0.08597765862941742,9.315485954284668,0.13188320398330688,-3.0478811264038086
1413393888075760500,-0.008509643375873566,0.014036044478416443,0.077437624335289,9.61848258972168,0.18942797183990479,-3.2205393314361572
1413393888080760500,-0.022390633821487427,0.03627319633960724,0.08036363869905472,9.513097763061523,0.06750432401895523,-3.138746500015259
1413393888085760500,-0.013367727398872375,0.027364984154701233,0.08173446357250214,9.170395851135254,-0.35703927278518677,-3.0735421180725098
1413393888090760500,0.002521798014640808,0.02481214702129364,0.0758870542049408,9.568899154663086,-0.2921651303768158,-3.008183717727661
1413393888095760500,0.013737447559833527,0.021823391318321228,0.07740163803100586,9.135184288024902,-0.07217834889888763,-2.925426721572876
1413393888100760500,0.015291057527065277,0.016164883971214294,0.0825137123465538,9.577157020568848,0.025681881234049797,-3.1299219131469727
1413393888105760500,0.005547903478145599,0.020259425044059753,0.07892367988824844,9.59383487701416,0.1320834904909134,-3.138496160507202
1413393888110760500,-0.014076713472604752,0.04258526861667633,0.06775373220443726,9.68479061126709,0.27146196365356445,-3.2284507751464844
1413393888115760500,-0.016760729253292084,0.04962809383869171,0.08107101917266846,9.195050239562988,-0.15294823050498962,-2.7946078777313232
1413393888120760500,-0.004306778311729431,0.02408139407634735,0.08917891979217529,9.430438041687012,-0.4478929936885834,-2.8521018028259277
1413393888125760500,0.00812578946352005,0.030996933579444885,0.08775074779987335,9.119300842285156,-0.18684978783130646,-2.818679094314575
1413393888130760500,0.013122357428073883,0.017528817057609558,0.0915796160697937,9.454144477844238,0.04163500666618347,-2.9822802543640137
1413393888135760500,0.011841461062431335,0.024362727999687195,0.08675099909305573,9.43062686920166,-0.022921377792954445,-3.0726702213287354
1413393888140760500,-0.014103636145591736,0.02797551453113556,0.07325170934200287,9.561777114868164,0.27931123971939087,-3.1710093021392822
1413393888145760500,-0.022989846765995026,0.05244307219982147,0.07185380160808563,9.20292854309082,-0.03851636126637459,-2.8354411125183105
1413393888150760500,-0.008552871644496918,0.035740867257118225,0.07947135716676712,8.973637580871582,-0.4715869426727295,-2.8440117835998535
1413393888155760500,0.010144524276256561,0.017791882157325745,0.08151080459356308,9.070002555847168,-0.41530653834342957,-2.8195695877075195
1413393888160760500,0.019314028322696686,0.02246721088886261,0.07892099022865295,9.069729804992676,0.017195487394928932,-2.794346809387207
1413393888165760500,0.01463889330625534,0.016680315136909485,0.08124528080224991,9.365058898925781,0.009608427062630653,-3.129542589187622
1413393888170760500,0.0012920424342155457,0.011138901114463806,0.07125040888786316,9.226005554199219,0.3606750965118408,-2.9094765186309814
1413393888175760500,-0.020418450236320496,0.026004329323768616,0.07253482192754745,9.545255661010742,0.31222712993621826,-3.064678192138672
1413393888180760500,-0.033523768186569214,0.040553197264671326,0.07528338581323624,9.088481903076172,-0.2833399474620819,-2.770535707473755
1413393888185760500,-0.011938713490962982,0.005094751715660095,0.09054655581712723,9.23462200164795,-0.7339504957199097,-2.878152370452881
1413393888190760500,0.0163724347949028,0.01364906132221222,0.08578015863895416,9.502676963806152,-0.2033189833164215,-2.991373062133789
1413393888195760500,0.022092312574386597,0.012665942311286926,0.09158827364444733,9.33159351348877,0.049683455377817154,-2.9415857791900635
1413393888200760500,0.010490618646144867,-0.0013324469327926636,0.07410351932048798,9.699761390686035,0.11556492745876312,-3.1060454845428467
1413393888205760500,-0.00636991485953331,0.0036707669496536255,0.062117356806993484,9.756684303283691,0.33656179904937744,-3.2289931774139404
1413393888210760500,-0.02175380289554596,0.041271284222602844,0.06351776421070099,9.521363258361816,0.1089780330657959,-3.0895912647247314
1413393888215760500,-0.018983565270900726,0.020989909768104553,0.08502933382987976,8.97372055053711,-0.36555349826812744,-2.9424479007720947
1413393888220760500,0.0005298405885696411,0.008035287261009216,0.0849325954914093,9.462291717529297,-0.5543392300605774,-2.9348714351654053
1413393888225760500,0.018649697303771973,0.020538344979286194,0.09646936506032944,9.323482513427734,-0.15437868237495422,-2.9993247985839844
1413393888230760500,0.017315983772277832,0.016722962260246277,0.08827453851699829,9.455179214477539,0.13163955509662628,-3.227562427520752
1413393888235760500,0.005522541701793671,0.012521013617515564,0.07677710056304932,9.471556663513184,0.2629021108150482,-3.0813686847686768
1413393888240760500,-0.01618737354874611,0.014936968684196472,0.07106485962867737,9.741094589233398,0.2470788210630417,-3.2939860820770264
1413393888245760500,-0.02654823660850525,0.052356794476509094,0.07877734303474426,9.02343463897705,-0.22621209919452667,-2.843804359436035
1413393888250760500,-0.004304423928260803,0.03000752627849579,0.09261338412761688,9.096528053283691,-0.6030566692352295,-2.877126455307007
1413393888255760500,0.01991405338048935,0.019247934222221375,0.09834758192300797,9.168000221252441,-0.3260945677757263,-2.778292655944824
1413393888260760500,0.027731649577617645,0.0233335942029953,0.08956966549158096,9.307052612304688,-0.02365723066031933,-2.9985134601593018
1413393888265760500,0.01599893718957901,0.022960618138313293,0.07910918444395065,9.373632431030273,0.24649111926555634,-3.1378118991851807
1413393888270760500,-0.012630399316549301,0.018045440316200256,0.04884933680295944,9.479475975036621,0.2473137080669403,-3.105766534805298
1413393888275760500,-0.021744772791862488,0.03709675371646881,0.05506278574466705,9.349250793457031,0.182437002658844,-3.0563557147979736
1413393888280760500,-0.02185405045747757,0.048942551016807556,0.06266879290342331,8.99805736541748,-0.22627519071102142,-2.671583652496338
1413393888285760500,-0.0063796937465667725,0.021810069680213928,0.0905659943819046,8.989269256591797,-0.5137137770652771,-2.680332660675049
1413393888290760500,0.009547010064125061,0.01015479862689972,0.09926878660917282,9.461666107177734,0.20377694070339203,-3.0311336517333984
1413393888295760500,0.004719264805316925,0.020293429493904114,0.08755342662334442,9.242137908935547,0.2788237929344177,-2.9172260761260986
1413393888300760500,-0.011848896741867065,0.011777833104133606,0.07132087647914886,9.619651794433594,-0.0951150581240654,-3.31888747215271
1413393888305760500,-0.009776733815670013,0.01619364321231842,0.07801372557878494,9.635004043579102,-0.09591348469257355,-3.024711847305298
1413393888310760500,0.004004955291748047,0.04137121140956879,0.07070495188236237,9.709480285644531,-0.7005153894424438,-3.0252208709716797
1413393888315760500,0.03403428941965103,0.044871821999549866,0.09953780472278595,9.170235633850098,-0.5545895099639893,-2.738041877746582
1413393888320760500,0.052842654287815094,0.007397964596748352,0.11470329016447067,9.355672836303711,-0.09875445067882538,-2.9736404418945312
1413393888325760500,0.021366946399211884,0.03088708221912384,0.09447875618934631,9.756402969360352,0.6854128241539001,-3.212210178375244
1413393888330760500,-0.03298654779791832,0.022796913981437683,0.0657726526260376,9.274849891662598,0.8923236727714539,-3.139763832092285
1413393888335760500,-0.05093231052160263,0.023575082421302795,0.06435147672891617,9.382837295532227,0.1505366712808609,-3.1146366596221924
1413393888340760500,-0.055437736213207245,0.04189743101596832,0.048288166522979736,9.358575820922852,-0.47838324308395386,-2.7061562538146973
1413393888345760500,-0.0177377387881279,0.008706256747245789,0.07909588515758514,8.948533058166504,-0.750188410282135,-2.8857033252716064
1413393888350760500,0.038819603621959686,0.016460850834846497,0.11522278189659119,9.31573486328125,-0.4006785750389099,-2.900512218475342
1413393888355760500,0.04654056578874588,0.009835377335548401,0.10981835424900055,9.331787109375,0.27743691205978394,-3.11250901222229
1413393888360760500,0.015439800918102264,0.023017987608909607,0.0868125706911087,9.536850929260254,0.4420919716358185,-3.1057071685791016
1413393888365760500,-0.009604014456272125,0.027986302971839905,0.07214263081550598,9.652359962463379,-0.04600631073117256,-3.2289323806762695
1413393888370760500,-0.011358186602592468,0.0469212681055069,0.05057830363512039,9.545930862426758,-0.29894566535949707,-2.8695452213287354
1413393888375760500,0.012071020901203156,0.03997887670993805,0.08115573972463608,8.92424201965332,-0.022666553035378456,-2.7201199531555176
1413393888380760500,0.006523452699184418,0.03433676064014435,0.08099260181188583,9.265902519226074,0.3684249818325043,-3.2020509243011475
1413393888385760500,-0.03275415301322937,0.05085514485836029,0.07021170109510422,9.20136547088623,0.4426879286766052,-3.081477165222168
1413393888390760500,-0.053483977913856506,0.0292501300573349,0.073088139295578,9.349566459655762,0.16516858339309692,-3.155226469039917
1413393888395760500,-0.04960507154464722,0.04314585030078888,0.06053730100393295,9.318714141845703,-0.8638712763786316,-2.649404525756836
1413393888400760500,-0.004567459225654602,0.030054017901420593,0.07614818215370178,8.631584167480469,-0.8563840985298157,-2.6243062019348145
1413393888405760500,0.046933576464653015,-0.0015733987092971802,0.09110847115516663,9.273619651794434,-0.686363697052002,-2.9335758686065674
1413393888410760500,0.05279902368783951,-0.0010898858308792114,0.07619214802980423,9.288525581359863,0.07342063635587692,-2.949122667312622
1413393888415760500,0.03786330670118332,0.0014206916093826294,0.07295319437980652,9.593137741088867,0.2539825141429901,-3.0562667846679688
1413393888420760500,0.006218366324901581,0.0028254538774490356,0.08537524938583374,9.635345458984375,0.5069382190704346,-2.934337615966797
1413393888425760500,-0.015552878379821777,0.016862288117408752,0.09614847600460052,9.340818405151367,0.45871663093566895,-2.8354990482330322
1413393888430760500,-0.04585748165845871,0.005153834819793701,0.08627066016197205,9.078393936157227,0.5167313814163208,-2.950568675994873
1413393888435760500,-0.062184132635593414,0.008602693676948547,0.0762360692024231,9.765454292297363,-0.34831807017326355,-3.124113082885742
1413393888440760500,-0.05242248624563217,0.01796872913837433,0.05096578225493431,9.153707504272461,-0.6017391681671143,-2.863090991973877
1413393888445760500,0.007536254823207855,0.013339295983314514,0.08906464278697968,9.603610038757324,-0.8978933095932007,-2.984978675842285
1413393888450760500,0.04351288825273514,0.03786785900592804,0.09034629911184311,9.259420394897461,-0.1140148788690567,-2.957087993621826
1413393888455760500,0.05650355666875839,0.030234292149543762,0.10754578560590744,9.24244499206543,0.2047964483499527,-3.0386228561401367
1413393888460760500,0.02516110986471176,0.04410390555858612,0.060424793511629105,9.201501846313477,0.1580439954996109,-3.0889713764190674
1413393888465760500,0.011860080063343048,0.014828905463218689,0.08278433978557587,9.405007362365723,0.3775973618030548,-3.1470820903778076
1413393888470760500,0.0038209035992622375,0.02869589626789093,0.08841466903686523,9.447283744812012,0.18951106071472168,-3.0320396423339844
1413393888475760500,-0.021470092236995697,0.027634456753730774,0.09160450845956802,8.638274192810059,0.492036908864975,-2.8842406272888184
1413393888480760500,-0.04747016727924347,0.006356135010719299,0.08948912471532822,9.37326717376709,-0.014740334823727608,-3.1057779788970947
1413393888485760500,-0.057219281792640686,0.007810652256011963,0.056874483823776245,9.234336853027344,-0.5120970606803894,-3.1076512336730957
1413393888490760500,-0.0028832927346229553,-0.001828119158744812,0.082275390625,9.569596290588379,-0.6598936915397644,-2.878715753555298
1413393888495760500,0.023145414888858795,0.012034192681312561,0.07984348386526108,9.986930847167969,-0.5869295597076416,-3.3269591331481934
1413393888500760500,0.031372472643852234,0.05215270817279816,0.0772617757320404,8.884332656860352,0.04995039850473404,-2.629798650741577
1413393888505760500,0.014817066490650177,0.022657856345176697,0.07020310312509537,9.659271240234375,-0.08000117540359497,-3.2110788822174072
1413393888510760500,0.00988287478685379,0.04230962693691254,0.07790324836969376,9.60874080657959,-0.039105888456106186,-3.138242721557617
1413393888515760500,0.029032200574874878,0.02948068082332611,0.11157483607530594,9.569727897644043,0.213481605052948,-3.039944648742676
1413393888520760500,0.0037008672952651978,0.08961834013462067,0.10302688181400299,9.270090103149414,0.4676297903060913,-3.1942429542541504
1413393888525760500,-0.0285167396068573,0.054201409220695496,0.09995521605014801,8.728470802307129,0.2552405893802643,-2.589785575866699
1413393888530760500,-0.05231393128633499,0.03047160804271698,0.06174116209149361,9.463272094726562,-0.25893285870552063,-3.4086289405822754
1413393888535760500,-0.02245863527059555,0.056727662682533264,0.07108207792043686,9.193870544433594,-0.5039429068565369,-2.763906240463257
1413393888540760500,0.014145970344543457,0.02703322470188141,0.08466369658708572,9.113576889038086,-0.6444866061210632,-2.9920685291290283
1413393888545760500,0.0276053324341774,0.042424097657203674,0.07646321505308151,8.60632038116455,-0.21203136444091797,-2.539923906326294
1413393888550760500,0.018931761384010315,-0.006652131676673889,0.05405344069004059,8.651397705078125,-0.17884331941604614,-2.5561153888702393
1413393888555760500,0.019544117152690887,-0.01122833788394928,0.05715575069189072,9.90182876586914,0.1482086330652237,-3.3420698642730713
1413393888560760500,0.01703997701406479,0.024919912219047546,0.07329832017421722,9.512734413146973,0.6058598756790161,-3.1627066135406494
1413393888565760500,-0.0009460970759391785,0.032507821917533875,0.10914872586727142,9.155745506286621,0.43454068899154663,-2.647214651107788
1413393888570760500,-0.034842558205127716,0.04278121888637543,0.08219599723815918,9.096612930297852,-0.022357841953635216,-2.6633033752441406
1413393888575760500,-0.03062935173511505,-0.0048643797636032104,0.07294349372386932,9.444339752197266,-0.37304359674453735,-2.918670654296875
1413393888580760500,-0.005213059484958649,0.024754300713539124,0.0818675085902214,9.821897506713867,-0.4638960063457489,-3.1485495567321777
1413393888585760500,0.009530872106552124,0.01857854425907135,0.10839772969484329,9.594813346862793,-0.056980568915605545,-2.7870938777923584
1413393888590760500,0.009119011461734772,0.03061835467815399,0.09723719209432602,9.644460678100586,-0.17082619667053223,-3.0073227882385254
1413393888595760500,-0.0011936351656913757,0.026868626475334167,0.06369739770889282,9.438165664672852,-0.5202386379241943,-2.6323184967041016
1413393888600760500,0.01457882672548294,0.026294484734535217,0.05017135664820671,9.64190673828125,-0.37330782413482666,-3.155052423477173
1413393888605760500,0.028934553265571594,0.01149071753025055,0.06764011085033417,9.665167808532715,0.0012299492955207825,-2.6314165592193604
1413393888610760500,0.011046916246414185,0.02577577531337738,0.07766374945640564,9.618249893188477,-0.007438765838742256,-2.7617011070251465
1413393888615760500,-0.010945521295070648,0.05492405593395233,0.0712442547082901,9.072308540344238,0.09141214191913605,-2.5729613304138184
1413393888620760500,-0.016742587089538574,0.013485357165336609,0.08794525265693665,9.16838550567627,0.04244774580001831,-3.1453402042388916
1413393888625760500,-0.0065818652510643005,0.024197235703468323,0.11479499936103821,9.552214622497559,0.2702616751194,-3.3424012660980225
1413393888630760500,-0.017698556184768677,0.0259295254945755,0.11543102562427521,9.316974639892578,-0.08805232495069504,-3.106326103210449
1413393888635760500,-0.01948632299900055,0.038133129477500916,0.08134579658508301,9.105880737304688,-0.29976263642311096,-2.9431333541870117
1413393888640760500,0.016675792634487152,0.0001790374517440796,0.08183504641056061,8.989136695861816,-0.5452694892883301,-2.755587577819824
1413393888645760500,0.035111382603645325,0.00896279513835907,0.0865291953086853,9.575651168823242,0.0662756860256195,-3.1545019149780273
1413393888650760500,0.01028498262166977,0.030706658959388733,0.07571791857481003,9.291284561157227,0.24638567864894867,-2.9912171363830566
1413393888655760500,-0.015824493020772934,0.061727747321128845,0.051768168807029724,9.392078399658203,-0.013335366733372211,-3.24497652053833
1413393888660760500,0.003410227596759796,0.0030275732278823853,0.07026955485343933,8.400238990783691,-0.030623365193605423,-2.3856983184814453
1413393888665760500,0.01264963299036026,0.025757506489753723,0.09849052131175995,9.764191627502441,0.4004524350166321,-3.1527605056762695
1413393888670760500,-0.018297024071216583,0.07024671137332916,0.06870182603597641,9.382589340209961,-0.19297689199447632,-3.080742120742798
1413393888675760500,-0.021266520023345947,0.022618219256401062,0.08028525859117508,8.60711669921875,-0.6197236776351929,-2.526611089706421
1413393888680760500,0.025039173662662506,0.01656632125377655,0.09668426215648651,9.49626636505127,-0.3918449282646179,-3.0644285678863525
1413393888685760500,0.0068787336349487305,0.015817835927009583,0.09742574393749237,9.232317924499512,0.5634887218475342,-3.136833429336548
1413393888690760500,-0.03124576061964035,0.04021100699901581,0.0542074479162693,9.635950088500977,-0.20997267961502075,-3.2046501636505127
1413393888695760500,-0.008785635232925415,-0.017637118697166443,0.05884052813053131,8.58867073059082,-0.5607910752296448,-2.445077419281006
1413393888700760500,0.026044055819511414,0.024252310395240784,0.06503010541200638,9.854555130004883,-0.12071479856967926,-2.982222318649292
1413393888705760500,0.007052570581436157,0.017026200890541077,0.07499859482049942,9.527798652648926,0.5159395933151245,-3.3989710807800293
1413393888710760500,-0.026821136474609375,0.027014240622520447,0.05440178140997887,9.087051391601562,-0.30078572034835815,-2.5254926681518555
1413393888715760500,0.015123657882213593,-0.001843377947807312,0.09107943624258041,9.750794410705566,-0.8319835662841797,-2.9030351638793945
1413393888720760500,0.03405825048685074,0.012246087193489075,0.11458324640989304,9.412875175476074,0.6524735689163208,-3.4224119186401367
1413393888725760500,-0.00932292640209198,0.06261830031871796,0.08417104184627533,9.995405197143555,0.26239949464797974,-2.98353910446167
1413393888730760500,-0.028122805058956146,0.030457869172096252,0.09072787314653397,9.187679290771484,-0.7007442712783813,-3.025897264480591
1413393888735760500,0.01323678344488144,0.04510711133480072,0.10351619124412537,8.850911140441895,0.0906318947672844,-2.490814685821533
1413393888740760500,0.0033903345465660095,0.05766947567462921,0.10230491310358047,10.484119415283203,0.2296595424413681,-3.6692187786102295
1413393888745760500,-0.022341087460517883,0.0485871285200119,0.05615781247615814,8.400603294372559,-0.41406702995300293,-2.387380361557007
1413393888750760500,0.005058854818344116,0.013932958245277405,0.06253636628389359,8.736930847167969,-0.3251061737537384,-2.6716506481170654
1413393888755760500,0.036544069647789,0.04157643020153046,0.10922375321388245,10.458581924438477,0.3673495948314667,-3.643307685852051
1413393888760760500,-0.009470291435718536,0.07988385856151581,0.05943237245082855,8.42653751373291,-0.054612815380096436,-2.5573699474334717
1413393888765760500,-0.013590477406978607,-0.009011760354042053,0.034851349890232086,8.916526794433594,-0.520785927772522,-2.5989441871643066
1413393888770760500,0.01571091264486313,0.013205960392951965,0.09868258237838745,9.812726974487305,0.5389490723609924,-3.634845495223999
1413393888775760500,-0.007426302880048752,0.07775907218456268,0.07009263336658478,8.500605583190918,-0.27518147230148315,-2.7867536544799805
1413393888780760500,-0.037628091871738434,0.016894593834877014,0.02283010631799698,8.728920936584473,-0.585688591003418,-2.543002128601074
1413393888785760500,0.010487683117389679,0.01171208918094635,0.10637068748474121,9.886308670043945,0.4075596332550049,-3.479360342025757
1413393888790760500,0.012156039476394653,0.07219164073467255,0.11107990145683289,8.950822830200195,-0.2926144003868103,-2.77852725982666
1413393888795760500,-0.004773318767547607,0.010314598679542542,0.06226551905274391,8.811163902282715,-0.7825198769569397,-2.3794779777526855
1413393888800760500,0.018640443682670593,-0.03337876498699188,0.09692548960447311,8.936437606811523,0.5299831628799438,-2.997178554534912
1413393888805760500,0.012866564095020294,0.010817006230354309,0.11731404066085815,9.82132339477539,0.538709819316864,-3.2519567012786865
1413393888810760500,-0.025080256164073944,0.012962475419044495,0.06152920052409172,9.571145057678223,-0.8543003797531128,-2.749518871307373
1413393888815760500,-0.016086801886558533,-0.02802969515323639,0.05005057901144028,8.702940940856934,-0.21832560002803802,-2.8113253116607666
1413393888820760500,0.008568041026592255,0.011858716607093811,0.0938652753829956,10.337373733520508,0.4319444000720978,-3.472681999206543
1413393888825760500,-0.00910218060016632,0.03589095175266266,0.09930107742547989,9.707462310791016,-0.38200488686561584,-2.665501594543457
1413393888830760500,-0.010422822088003159,-0.009305566549301147,0.04819849506020546,8.506972312927246,-0.3736172616481781,-2.868790864944458
1413393888835760500,0.03121202439069748,-0.0022581368684768677,0.11758865416049957,10.279592514038086,0.318216472864151,-3.285888671875
1413393888840760500,0.0039033815264701843,0.05806194245815277,0.10849349200725555,9.806220054626465,-0.12079329043626785,-3.351238489151001
1413393888845760500,-0.011147946119308472,0.021889090538024902,0.06116063892841339,7.9851250648498535,-0.07114933431148529,-2.426429510116577
1413393888850760500,0.017233505845069885,0.0115593820810318,0.11200034618377686,9.855205535888672,0.4090833365917206,-3.3334925174713135
1413393888855760500,-0.0010386183857917786,0.06602846086025238,0.09185605496168137,9.765059471130371,0.04333671182394028,-3.212078809738159
1413393888860760500,-0.026035327464342117,0.03652136027812958,0.014012129977345467,7.7317047119140625,-0.20003101229667664,-2.3296561241149902
1413393888865760500,-0.0016388073563575745,-0.017162010073661804,0.08060965687036514,9.977429389953613,0.49805909395217896,-3.3340506553649902
1413393888870760500,-0.00724000483751297,0.04358746111392975,0.08557277917861938,9.658370971679688,0.09965728968381882,-3.194791316986084
1413393888875760500,-0.02374505251646042,0.04912351071834564,0.031178945675492287,8.54226016998291,-0.46243545413017273,-2.370579719543457
1413393888880760500,0.004803590476512909,-0.013740792870521545,0.0869920626282692,9.438054084777832,0.14759603142738342,-3.128558874130249
1413393888885760500,0.024242378771305084,0.023013904690742493,0.11800898611545563,9.79599380493164,-0.2933919429779053,-3.1782915592193604
1413393888890760500,-0.0006507188081741333,0.04876987636089325,0.06033610180020332,8.689077377319336,-0.6599112153053284,-2.2161827087402344
1413393888895760500,0.006217829883098602,0.005567774176597595,0.08729822933673859,10.27210521697998,0.3835139572620392,-3.56237530708313
1413393888900760500,0.004734240472316742,0.037277624011039734,0.11954835057258606,9.724346160888672,0.11467340588569641,-3.186553716659546
1413393888905760500,-0.03645184636116028,0.06006114184856415,0.04384323209524155,9.475412368774414,-0.7819278240203857,-3.0923655033111572
1413393888910760500,-0.029367558658123016,0.03006167709827423,0.03682910278439522,9.405511856079102,0.04297477379441261,-3.105607032775879
1413393888915760500,0.0067016854882240295,0.013456210494041443,0.10628600418567657,9.068740844726562,-0.08169623464345932,-2.907849073410034
1413393888920760500,-0.00577159970998764,0.04669235646724701,0.056453343480825424,9.922769546508789,-1.2984459400177002,-3.0356709957122803
1413393888925760500,0.0006991773843765259,0.02916911244392395,0.03596802428364754,8.956378936767578,0.14899486303329468,-3.317809820175171
1413393888930760500,0.038242630660533905,0.016666904091835022,0.13877855241298676,8.712258338928223,0.5130486488342285,-2.6936213970184326
1413393888935760500,0.011166714131832123,0.026880040764808655,0.09659697115421295,10.07650375366211,-0.86479651927948,-2.7879369258880615
1413393888940760500,-0.008390665054321289,0.036459073424339294,0.060511067509651184,9.44602108001709,0.28762510418891907,-2.958442211151123
1413393888945760500,0.0363294780254364,0.00851510465145111,0.15452156960964203,9.481417655944824,0.07319530844688416,-2.866870403289795
1413393888950760500,-0.013789765536785126,0.02253250777721405,0.08298155665397644,9.570368766784668,-0.3331311047077179,-3.1877400875091553
1413393888955760500,-0.02801329270005226,0.04808370769023895,0.06470853090286255,9.004547119140625,0.834663450717926,-2.845038652420044
1413393888960760500,0.004207082092761993,0.0030920058488845825,0.15639270842075348,10.059295654296875,-0.21119540929794312,-3.269160747528076
1413393888965760500,-0.02966196835041046,0.06765805184841156,0.06892100721597672,9.825406074523926,-0.7904184460639954,-3.3612751960754395
1413393888970760500,-0.01608174294233322,0.08565716445446014,0.06718825548887253,8.665743827819824,0.32102495431900024,-2.5986030101776123
1413393888975760500,0.037813156843185425,0.04577450454235077,0.13327187299728394,9.562108993530273,-0.6779384016990662,-2.589709758758545
1413393888980760500,0.01425083726644516,0.05608461797237396,0.05343354865908623,9.208700180053711,-0.7987423539161682,-2.935167074203491
1413393888985760500,0.02229314297437668,0.04888536036014557,0.056158602237701416,8.955720901489258,0.5070528388023376,-2.6309139728546143
1413393888990760500,0.03964584320783615,0.024442240595817566,0.10283806920051575,10.035270690917969,0.016801495105028152,-3.267866611480713
1413393888995760500,-0.005354665219783783,0.08122248947620392,0.026498332619667053,8.925280570983887,0.5503116250038147,-3.129561424255371
1413393889000760500,-0.01692137122154236,0.037712469696998596,0.09810904413461685,8.433324813842773,0.6964516043663025,-2.491325855255127
1413393889005760500,-0.03230513632297516,0.03610174357891083,0.0723644271492958,9.985758781433105,0.03438768908381462,-3.5867393016815186
1413393889010760500,-0.05408303439617157,0.07504881918430328,0.04471039026975632,7.993443012237549,0.12700612843036652,-2.69773268699646
1413393889015760500,-0.01809610426425934,-0.013141527771949768,0.09888128191232681,8.753140449523926,-0.39185234904289246,-2.452035903930664
1413393889020760500,-0.015017539262771606,0.024562731385231018,0.07601641118526459,9.519896507263184,-0.6936385035514832,-3.342994451522827
1413393889025760500,0.0013996586203575134,0.008238300681114197,0.07916776835918427,8.213258743286133,-0.2279043197631836,-2.38651442527771
1413393889030760500,0.03490576893091202,-0.03859473764896393,0.1026933565735817,10.13318920135498,-0.7023815512657166,-2.976288080215454
1413393889035760500,0.028398700058460236,0.050875529646873474,0.049673546105623245,9.707606315612793,-0.4383864402770996,-2.9174232482910156
1413393889040760500,0.03904665261507034,-0.011635378003120422,0.07528483867645264,8.980305671691895,0.327541321516037,-2.262366771697998
1413393889045760500,0.010044299066066742,-0.010489478707313538,0.05952032282948494,11.040878295898438,0.17125822603702545,-3.784654140472412
1413393889050760500,-0.02930567041039467,0.11528180539608002,0.023835141211748123,8.623433113098145,0.24927286803722382,-2.729463815689087
1413393889055760500,-0.024344630539417267,0.009196802973747253,0.06993772834539413,9.45601749420166,-0.07978176325559616,-2.8034374713897705
1413393889060760500,-0.031743064522743225,0.08270697295665741,0.06373317539691925,10.157259941101074,-0.05689221993088722,-3.317755699157715
1413393889065760500,-0.02158612757921219,0.041254982352256775,0.10305952280759811,8.082332611083984,0.01648898795247078,-1.9516878128051758
1413393889070760500,-0.004877075552940369,-0.032298386096954346,0.11651261150836945,9.873263359069824,-0.7194634675979614,-3.0416407585144043
1413393889075760500,0.011080391705036163,0.05128900706768036,0.10555994510650635,9.168427467346191,-0.5207731127738953,-3.228177309036255
1413393889080760500,0.038950078189373016,-0.005681172013282776,0.13039712607860565,8.77001667022705,-0.1634218990802765,-2.8526771068573
1413393889085760500,0.03178676217794418,-0.006897523999214172,0.10584327578544617,10.34458065032959,-0.02419951744377613,-3.1064701080322266
1413393889090760500,0.030020631849765778,0.04613278806209564,0.09962885826826096,8.744973182678223,0.07624758780002594,-2.7692041397094727
1413393889095760500,0.02491830289363861,-0.012019827961921692,0.09778041392564774,9.9625825881958,0.10805555433034897,-3.1153621673583984
1413393889100760500,-0.006707616150379181,0.015553608536720276,0.06356683373451233,10.049500465393066,0.44193235039711,-3.1810669898986816
1413393889105760500,-0.01967613399028778,0.023694589734077454,0.0698806568980217,9.822509765625,0.573013186454773,-2.9199061393737793
1413393889110760500,-0.04267534613609314,0.03445892035961151,0.052411533892154694,10.323002815246582,-0.014329182915389538,-2.8959360122680664
1413393889115760500,-0.013857726007699966,0.08146293461322784,0.1006227433681488,9.252403259277344,-0.19315680861473083,-3.5047364234924316
1413393889120760500,-0.00013975054025650024,0.10614164173603058,0.11351245641708374,9.385092735290527,-0.7344492077827454,-2.8120641708374023
1413393889125760500,0.009804926812648773,0.09519459307193756,0.10747088491916656,8.549107551574707,-0.5149290561676025,-2.8606605529785156
1413393889130760500,0.04250019043684006,0.08597059547901154,0.12325543165206909,8.50753402709961,0.28624391555786133,-3.0372564792633057
1413393889135760500,0.02002514898777008,0.010242357850074768,0.10466456413269043,9.387964248657227,0.09869611263275146,-2.33760404586792
1413393889140760500,0.0005994364619255066,0.012164175510406494,0.09323626011610031,8.448715209960938,0.3626647889614105,-3.5298962593078613
1413393889145760500,-0.02317751944065094,-0.00597187876701355,0.0731552317738533,8.761220932006836,-0.0215280931442976,-2.4764552116394043
1413393889150760500,-0.03168842941522598,-0.036138296127319336,0.04333236813545227,9.224713325500488,-0.10253987461328506,-3.360071897506714
1413393889155760500,0.0038713589310646057,-0.024546489119529724,0.07335232198238373,9.461106300354004,-0.3239348530769348,-3.1220853328704834
1413393889160760500,-0.008086636662483215,-0.01977534592151642,0.03535804897546768,10.075444221496582,-0.03093813546001911,-2.861891269683838
1413393889165760500,0.018798314034938812,0.040347591042518616,0.07902052998542786,9.538228034973145,0.9398922324180603,-3.203362226486206
1413393889170760500,4.034489393234253e-05,0.06278349459171295,0.06444129347801208,9.505473136901855,-0.021071452647447586,-2.46701717376709
1413393889175760500,-0.0015966370701789856,0.04421059787273407,0.09836827963590622,8.538576126098633,0.793555498123169,-3.0398828983306885
1413393889180760500,-0.002140246331691742,0.10218004882335663,0.10819259285926819,10.575215339660645,-0.5040560960769653,-3.6137988567352295
1413393889185760500,-0.014862596988677979,0.05169866979122162,0.07644420862197876,8.198180198669434,-0.5646880269050598,-1.4406778812408447
1413393889190760500,0.03563710302114487,-0.004584416747093201,0.12666729092597961,9.570671081542969,-0.5800882577896118,-3.8899497985839844
1413393889195760500,0.01992969959974289,0.04888497292995453,0.05756557732820511,9.47780704498291,-0.9611677527427673,-2.3292224407196045
1413393889200760500,0.02066747099161148,-0.08828775584697723,0.09351476281881332,7.756682395935059,0.6519901752471924,-2.9760522842407227
1413393889205760500,-0.007003270089626312,0.018483862280845642,0.05329658463597298,11.236398696899414,-0.41477739810943604,-2.9689929485321045
1413393889210760500,-0.039462752640247345,-0.013503402471542358,0.04818500950932503,8.139266014099121,0.7220432162284851,-2.2084691524505615
1413393889215760500,-0.004749827086925507,0.03600214421749115,0.08838734030723572,12.259649276733398,-0.8905212879180908,-4.133633613586426
1413393889220760500,-0.020320989191532135,0.05358372628688812,0.05018426850438118,8.877192497253418,-0.09610442072153091,-1.6208438873291016
1413393889225760500,0.029639512300491333,0.024809598922729492,0.10730153322219849,10.823688507080078,-0.08579760044813156,-4.883304119110107
1413393889230760500,0.0018869787454605103,0.15808440744876862,0.01964806392788887,9.457674026489258,-0.47769325971603394,-2.306220293045044
1413393889235760500,0.0182187482714653,0.018339291214942932,0.11113687604665756,8.296737670898438,0.8441255688667297,-3.4572699069976807
1413393889240760500,-0.005092114210128784,0.1507132202386856,0.04638969153165817,9.663050651550293,-1.0771723985671997,-2.910583257675171
1413393889245760500,0.0020816251635551453,-0.010912969708442688,0.0994323194026947,6.400121688842773,0.8483854532241821,-1.6426910161972046
1413393889250760500,0.01232057809829712,0.03458221256732941,0.10090672969818115,10.576693534851074,-0.8014903664588928,-3.3594934940338135
1413393889255760500,0.00848078727722168,-0.0310869961977005,0.10413099080324173,7.190528392791748,0.5569815635681152,-1.3038848638534546
1413393889260760500,0.03790568560361862,-0.08020012080669403,0.14533181488513947,10.183274269104004,-0.80008864402771,-4.520668029785156
1413393889265760500,0.007042936980724335,0.02355898916721344,0.07467655837535858,7.767441272735596,0.5749402046203613,-1.4681209325790405
1413393889270760500,0.02311430126428604,-0.05278639495372772,0.11678043007850647,10.574482917785645,0.10319460928440094,-4.592822551727295
1413393889275760500,-0.04843873530626297,0.0653495341539383,-0.0014321878552436829,9.047711372375488,0.02140374667942524,-2.0790090560913086
1413393889280760500,-0.0067520178854465485,-0.021204501390457153,0.11244405806064606,9.282448768615723,0.4764379858970642,-3.457226037979126
1413393889285760500,-0.023620955646038055,0.08302812278270721,0.02031428925693035,9.571778297424316,-1.0824953317642212,-2.5763819217681885
1413393889290760500,0.026400946080684662,-0.02611832320690155,0.09969951212406158,7.662599086761475,0.12331686168909073,-2.362199068069458
1413393889295760500,0.04215575009584427,0.024634644389152527,0.03803893178701401,9.706708908081055,-0.8324013948440552,-2.852010726928711
1413393889300760500,0.04852394014596939,-0.05501483380794525,0.08466989547014236,8.610998153686523,0.7918761372566223,-2.5994930267333984
1413393889305760500,0.01519758254289627,-0.030596837401390076,0.04316519945859909,9.6752290725708,0.27858561277389526,-3.3735415935516357
1413393889310760500,-0.007140859961509705,-0.053250521421432495,0.10174339264631271,8.344402313232422,0.5896466374397278,-2.3390564918518066
1413393889315760500,-0.027347154915332794,-0.05832281708717346,0.08640315383672714,9.961182594299316,-0.46428224444389343,-3.260660171508789
1413393889320760500,-0.033096566796302795,-0.04069527983665466,0.078699991106987,10.338046073913574,-0.43784573674201965,-3.5667645931243896
1413393889325760500,-0.008664675056934357,-0.03626991808414459,0.08670154213905334,8.50605297088623,0.040819201618433,-2.5826222896575928
1413393889330760500,0.005370020866394043,-0.01588509976863861,0.07323599606752396,9.8748140335083,-0.8796780705451965,-3.82742977142334
1413393889335760500,0.0030279532074928284,-0.012709617614746094,0.0729825347661972,7.980927467346191,0.7842777967453003,-1.9709107875823975
1413393889340760500,0.006974063813686371,-0.09569303691387177,0.1154547929763794,10.107400894165039,-0.054786521941423416,-4.053903102874756
1413393889345760500,-0.014861471951007843,0.0007887035608291626,0.09485585242509842,9.24373722076416,0.44303080439567566,-2.7973525524139404
1413393889350760500,-0.007631756365299225,-0.06447234749794006,0.11941434442996979,9.146147727966309,-0.5115581750869751,-3.549612283706665
1413393889355760500,-0.014238812029361725,-0.047654882073402405,0.08505260944366455,9.838233947753906,-0.07158728688955307,-2.6588876247406006
1413393889360760500,0.008203692734241486,-0.04682816565036774,0.09496746957302094,10.196260452270508,-0.18535850942134857,-3.685652494430542
1413393889365760500,-0.014435060322284698,0.00941835343837738,0.04137848690152168,9.69066333770752,-0.4866917133331299,-2.018996000289917
1413393889370760500,0.01684653013944626,-0.0413876473903656,0.09994763135910034,8.37486457824707,0.16497333347797394,-3.4646663665771484
1413393889375760500,-0.011653907597064972,-0.026177391409873962,0.07306219637393951,8.348919868469238,-0.25263136625289917,-2.4486613273620605
1413393889380760500,0.00388258695602417,-0.06798413395881653,0.1480347365140915,9.53481388092041,0.8344103693962097,-3.9313344955444336
1413393889385760500,-0.02746577560901642,-0.0211220383644104,0.12014959752559662,9.643010139465332,-0.6509755849838257,-3.163689613342285
1413393889390760500,0.002868928015232086,-0.0355583131313324,0.15211421251296997,10.039766311645508,0.22934673726558685,-3.2711386680603027
1413393889395760500,-0.001201428472995758,0.004326000809669495,0.09673980623483658,8.747945785522461,-1.2718505859375,-2.9868030548095703
1413393889400760500,0.019919253885746002,-0.06626014411449432,0.09053239226341248,8.993884086608887,0.3692944645881653,-3.515723466873169
1413393889405760500,0.008782215416431427,-0.03518687188625336,0.05362769216299057,9.154579162597656,-0.26060906052589417,-2.681086301803589
1413393889410760500,0.005439236760139465,-0.08918507397174835,0.09269195050001144,9.976256370544434,0.31156519055366516,-3.6132147312164307
1413393889415760500,-0.016101695597171783,0.01561044156551361,0.09709516167640686,9.351788520812988,0.07466635853052139,-2.9984655380249023
1413393889420760500,-0.010387435555458069,-0.028581559658050537,0.14459878206253052,8.991935729980469,-0.047559499740600586,-2.9335861206054688
1413393889425760500,-0.0022154152393341064,0.029234185814857483,0.14819088578224182,9.210836410522461,-0.36694180965423584,-2.8834731578826904
1413393889430760500,0.01589921861886978,0.009776219725608826,0.1431666612625122,9.87021255493164,-0.38095271587371826,-3.678119421005249
1413393889435760500,-0.014367189258337021,0.04036934673786163,0.056459780782461166,8.605742454528809,0.23212775588035583,-3.318942070007324
1413393889440760500,-0.044002823531627655,-0.03236095607280731,0.026681676506996155,8.538506507873535,-0.004630144219845533,-3.000706911087036
1413393889445760500,-0.05690576136112213,-0.02238379418849945,0.020019061863422394,8.813780784606934,0.49218234419822693,-2.69647216796875
1413393889450760500,-0.0551857128739357,-0.0715303122997284,0.0271269790828228,8.348896026611328,-1.1961462497711182,-2.257563352584839
1413393889455760500,-0.05010852962732315,-0.1275833249092102,0.05158017575740814,8.862441062927246,0.2528214454650879,-2.8271350860595703
1413393889460760500,-0.006992049515247345,-0.1563500463962555,0.09328717738389969,8.755558967590332,-0.761050820350647,-1.5338374376296997
1413393889465760500,-0.01916886493563652,-0.1553633213043213,0.09023481607437134,10.549981117248535,-0.10448823124170303,-4.47684907913208
1413393889470760500,0.008728086948394775,-0.09904396533966064,0.12542331218719482,9.330976486206055,0.09831497073173523,-2.476430892944336
1413393889475760500,-0.029268458485603333,-0.12118005752563477,0.1163100078701973,9.76821517944336,0.3409325182437897,-4.595808029174805
1413393889480760500,-0.005251362919807434,-0.01964600384235382,0.1559552103281021,9.17817211151123,0.36878684163093567,-2.502432107925415
1413393889485760500,-0.038812004029750824,-0.08035880327224731,0.13289286196231842,10.353700637817383,-0.5104981064796448,-4.440932273864746
1413393889490760500,0.00524824857711792,0.03579579293727875,0.11077818274497986,10.361715316772461,-0.40339547395706177,-2.6944708824157715
1413393889495760500,0.017018407583236694,-0.06228633224964142,0.1133064404129982,8.294984817504883,-0.6931790113449097,-3.9318976402282715
1413393889500760500,0.028515823185443878,0.006700292229652405,0.09271641075611115,9.642175674438477,0.22026482224464417,-2.633009672164917
1413393889505760500,0.0029545053839683533,-0.12942089140415192,0.10524576902389526,7.624264240264893,0.5652666687965393,-3.0425987243652344
1413393889510760500,-0.016358815133571625,-0.09868334233760834,0.12874236702919006,11.259544372558594,0.7963502407073975,-3.6312966346740723
1413393889515760500,-0.054122768342494965,-0.18344582617282867,0.08851782977581024,7.07234525680542,0.045157648622989655,-1.9814225435256958
1413393889520760500,-0.0231788232922554,-0.22822175920009613,0.13771259784698486,10.670112609863281,-0.6606138348579407,-3.803248405456543
1413393889525760500,-0.023052610456943512,-0.253290593624115,0.04275890439748764,6.897862911224365,-0.6067320108413696,-2.0319948196411133
1413393889530760500,0.011693432927131653,-0.35039764642715454,0.08446677029132843,10.449433326721191,-0.3020537197589874,-4.219323635101318
1413393889535760500,-0.01351630687713623,-0.2786487936973572,0.01693102717399597,8.24853229522705,0.9056893587112427,-2.004477024078369
1413393889540760500,-0.02734120562672615,-0.3367849588394165,0.06274550408124924,11.907000541687012,0.6451094746589661,-4.871533393859863
1413393889545760500,-0.08658849447965622,-0.19394297897815704,-0.014095056802034378,8.431385040283203,0.40103307366371155,-1.2664796113967896
1413393889550760500,-0.06551618129014969,-0.28490501642227173,0.12247106432914734,12.113557815551758,-0.36590492725372314,-3.735292911529541
1413393889555760500,-0.04266553372144699,-0.08201935887336731,0.05700630694627762,9.640660285949707,-1.053726077079773,-2.3301897048950195
1413393889560760500,0.00818575918674469,-0.20247726142406464,0.17034804821014404,10.772250175476074,-0.2196769118309021,-3.82034969329834
1413393889565760500,0.007901869714260101,-0.08421176671981812,0.08242490887641907,8.758672714233398,-0.0006621062639169395,-3.0630171298980713
1413393889570760500,-0.010797344148159027,-0.20483355224132538,0.14809522032737732,9.999852180480957,0.8007526397705078,-3.851578950881958
1413393889575760500,-0.0664253756403923,-0.17211516201496124,0.05670296028256416,8.107039451599121,0.657367467880249,-3.6990137100219727
1413393889580760500,-0.09159615635871887,-0.28082579374313354,0.09583665430545807,10.296921730041504,0.37895575165748596,-4.42755651473999
1413393889585760500,-0.09704703092575073,-0.21102099120616913,0.022200986742973328,7.213186740875244,-0.3211095631122589,-3.0676157474517822
1413393889590760500,-0.05477090924978256,-0.34943830966949463,0.04726767912507057,10.036236763000488,-0.8799422979354858,-4.224104404449463
1413393889595760500,-0.03856133669614792,-0.2917857766151428,0.005283541977405548,9.432045936584473,0.059547070413827896,-3.238057851791382
1413393889600760500,-0.03406339883804321,-0.3273109197616577,0.006115870550274849,10.6078462600708,0.4699048101902008,-4.932572841644287
1413393889605760500,-0.06752832978963852,-0.2246551662683487,-0.01970657706260681,9.912609100341797,1.337851881980896,-2.6916284561157227
1413393889610760500,-0.11723680049180984,-0.29781973361968994,0.014734882861375809,10.708316802978516,0.3718210756778717,-4.570855140686035
1413393889615760500,-0.1100698858499527,-0.16204266250133514,0.0394040122628212,9.713919639587402,0.028383754193782806,-2.586148500442505
1413393889620760500,-0.09109429270029068,-0.25212061405181885,0.04763241857290268,9.946778297424316,-1.2146023511886597,-3.9748802185058594
1413393889625760500,-0.026993796229362488,-0.2111077457666397,0.06463129818439484,9.449980735778809,-0.38221728801727295,-2.8690402507781982
1413393889630760500,-0.01582997664809227,-0.24715165793895721,0.05312344431877136,10.591514587402344,-0.47212010622024536,-4.290940761566162
1413393889635760500,-0.019948966801166534,-0.2263750582933426,0.041311297565698624,8.517732620239258,0.9850757718086243,-2.3792262077331543
1413393889640760500,-0.08826784789562225,-0.305215060710907,0.0009653046727180481,11.453959465026855,0.7278054356575012,-4.3734636306762695
1413393889645760500,-0.10462432354688644,-0.25694864988327026,0.02556256577372551,8.443922996520996,1.183159589767456,-2.115247964859009
1413393889650760500,-0.16567417979240417,-0.24644939601421356,-0.07520975917577744,12.498135566711426,-0.5738285183906555,-4.532683849334717
1413393889655760500,-0.13241827487945557,-0.301521897315979,-0.08108093589544296,8.959338188171387,-0.3591601550579071,-3.330357789993286
1413393889660760500,-0.1265745759010315,-0.1768018752336502,-0.16282010078430176,11.867888450622559,-0.8336523175239563,-3.575247287750244
1413393889665760500,-0.07202265411615372,-0.2079239934682846,-0.11132165789604187,10.601705551147461,-0.3805539011955261,-3.595848798751831
1413393889670760500,-0.09411841630935669,-0.12914149463176727,-0.15773800015449524,9.758416175842285,0.5527200698852539,-4.671278953552246
1413393889675760500,-0.08146551251411438,-0.16103000938892365,-0.07917358726263046,10.409745216369629,0.6111833453178406,-2.7535834312438965
1413393889680760500,-0.11981987953186035,-0.10758870840072632,-0.06858290731906891,11.278921127319336,0.8229743838310242,-5.503652572631836
1413393889685760500,-0.14159294962882996,-0.11349844932556152,-0.08379246294498444,9.79867935180664,0.07748885452747345,-2.733635902404785
1413393889690760500,-0.13379722833633423,-0.11193206906318665,-0.07153046876192093,10.914948463439941,-0.32548823952674866,-3.8212499618530273
1413393889695760500,-0.1216030940413475,-0.14438855648040771,-0.08210406452417374,10.149815559387207,-0.35665369033813477,-4.877730369567871
1413393889700760500,-0.07755959779024124,-0.07708306610584259,-0.012109767645597458,8.470704078674316,-0.3668619990348816,-2.3031458854675293
1413393889705760500,-0.06098140776157379,-0.18566815555095673,0.009817751124501228,11.234891891479492,-0.5731702446937561,-4.151696681976318
1413393889710760500,-0.00939219444990158,-0.17572669684886932,0.08161333948373795,8.10733699798584,0.341230571269989,-2.8895580768585205
1413393889715760500,-0.0348336324095726,-0.2650279998779297,0.054032422602176666,10.989241600036621,0.06598785519599915,-4.333031177520752
1413393889720760500,-0.045947082340717316,-0.251017689704895,0.033070627599954605,10.58823013305664,1.0342252254486084,-2.9294052124023438
1413393889725760500,-0.11857879161834717,-0.2900989055633545,-0.05461476743221283,12.920475006103516,0.3268483877182007,-5.860536098480225
1413393889730760500,-0.15753203630447388,-0.24362070858478546,-0.14081023633480072,8.560507774353027,0.8988561034202576,-3.5178167819976807
1413393889735760500,-0.17984041571617126,-0.22802864015102386,-0.20133380591869354,10.702261924743652,-0.6271366477012634,-3.80501389503479
1413393889740760500,-0.14945392310619354,-0.2116525024175644,-0.21258553862571716,13.135594367980957,-0.22447067499160767,-3.697298526763916
1413393889745760500,-0.12112144380807877,-0.08340172469615936,-0.22319422662258148,11.986980438232422,-0.9549556374549866,-3.1550886631011963
1413393889750760500,-0.11001817882061005,-0.12843547761440277,-0.1800043284893036,11.865462303161621,0.36673232913017273,-4.977332592010498
1413393889755760500,-0.11088208854198456,-0.09674523770809174,-0.10235778987407684,9.307347297668457,1.0572147369384766,-3.9092845916748047
1413393889760760500,-0.13595269620418549,-0.045203909277915955,-0.10189767181873322,10.671467781066895,0.1059378832578659,-2.7137818336486816
1413393889765760500,-0.11876866966485977,-0.11599668860435486,0.010319802910089493,11.7183198928833,0.1930551677942276,-4.820150852203369
1413393889770760500,-0.11014958471059799,-0.10375106334686279,-0.008110802620649338,9.35999584197998,-0.7068457007408142,-4.3073835372924805
1413393889775760500,-0.052964769303798676,-0.09539756178855896,0.022036343812942505,10.648221969604492,-0.7005428671836853,-2.7334747314453125
1413393889780760500,-0.04396617412567139,-0.12688703835010529,-0.050404004752635956,10.885371208190918,-0.45584702491760254,-3.1546905040740967
1413393889785760500,-0.021327316761016846,-0.1012645959854126,-0.05657394975423813,12.999444961547852,0.4290199875831604,-4.50733757019043
1413393889790760500,-0.06757337599992752,-0.06907057762145996,-0.11192065477371216,9.72586441040039,0.5916936993598938,-3.2636992931365967
1413393889795760500,-0.09821303933858871,-0.10726600885391235,-0.0986345112323761,12.216285705566406,0.4974013566970825,-4.4123711585998535
1413393889800760500,-0.14134415984153748,-0.09962189197540283,-0.1115378886461258,9.836859703063965,0.9366002082824707,-3.9661712646484375
1413393889805760500,-0.1497369110584259,-0.07307712733745575,-0.12329739332199097,9.662724494934082,-0.45343196392059326,-3.491739511489868
1413393889810760500,-0.1367911696434021,-0.19684885442256927,-0.10048998892307281,9.766125679016113,-0.21824470162391663,-3.530388355255127
1413393889815760500,-0.11574006825685501,-0.17221371829509735,-0.19089607894420624,11.090143203735352,-0.9414119124412537,-3.656346321105957
1413393889820760500,-0.058306291699409485,-0.16569006443023682,-0.1401807814836502,12.21101188659668,0.012881574220955372,-4.524780750274658
1413393889825760500,-0.09048086404800415,-0.1704711765050888,-0.20251010358333588,9.866358757019043,0.36272507905960083,-4.113720893859863
1413393889830760500,-0.09259793162345886,-0.09114955365657806,-0.16517652571201324,12.343571662902832,0.8969078660011292,-3.521136522293091
1413393889835760500,-0.1450243890285492,-0.04606445133686066,-0.17311528325080872,11.494619369506836,0.6288592219352722,-3.624191999435425
1413393889840760500,-0.15420085191726685,-0.02965770661830902,-0.1546756625175476,12.570350646972656,-0.23245136439800262,-4.995365619659424
1413393889845760500,-0.14960430562496185,-0.024177327752113342,-0.13880906999111176,8.25563907623291,-0.12686826288700104,-3.2565059661865234
1413393889850760500,-0.08310452848672867,0.047886207699775696,-0.1383010745048523,12.0982666015625,-1.3984826803207397,-2.819502115249634
1413393889855760500,-0.0331028550863266,-0.09694527089595795,-0.10414066910743713,12.77567195892334,-0.40034541487693787,-4.757272243499756
1413393889860760500,-0.029696732759475708,0.008113577961921692,-0.17713984847068787,8.969651222229004,0.5262142419815063,-4.287442684173584
1413393889865760500,-0.06925538927316666,-0.026178747415542603,-0.14321444928646088,10.8343505859375,1.597948670387268,-4.040980339050293
1413393889870760500,-0.16771036386489868,-0.00996457040309906,-0.20992493629455566,10.726370811462402,1.0868284702301025,-2.9703750610351562
1413393889875760500,-0.20377928018569946,-0.023277178406715393,-0.2053976058959961,12.749998092651367,0.4135226905345917,-4.568255424499512
1413393889880760500,-0.20255261659622192,0.008610159158706665,-0.23045314848423004,9.144580841064453,-0.7245950698852539,-4.1631951332092285
1413393889885760500,-0.12731033563613892,-0.005452767014503479,-0.21677561104297638,10.894250869750977,-1.5974302291870117,-3.8850224018096924
1413393889890760500,-0.07254590839147568,0.01845477521419525,-0.2202553004026413,11.045770645141602,-0.591040313243866,-2.6784257888793945
1413393889895760500,-0.05410138517618179,0.06016106903553009,-0.22420634329319,12.737872123718262,0.0195443294942379,-3.8195605278015137
1413393889900760500,-0.10110940039157867,0.0609157532453537,-0.20697830617427826,10.474313735961914,1.8023827075958252,-4.454439640045166
1413393889905760500,-0.16419130563735962,0.16196157038211823,-0.2117077261209488,10.978927612304688,1.0518757104873657,-3.4028401374816895
1413393889910760500,-0.1876772940158844,0.1559312790632248,-0.16485783457756042,11.831149101257324,-0.11661723256111145,-4.160885810852051
1413393889915760500,-0.17999765276908875,0.20672117173671722,-0.19935919344425201,9.376152038574219,-1.1345411539077759,-2.8635318279266357
1413393889920760500,-0.06697104126214981,0.1765526384115219,-0.16882912814617157,11.480463027954102,-1.8164846897125244,-3.0124757289886475
1413393889925760500,-0.038044288754463196,0.1100255697965622,-0.1894126683473587,10.233458518981934,-0.3470088243484497,-3.731088161468506
1413393889930760500,-0.02860904484987259,0.16345788538455963,-0.18214532732963562,10.351969718933105,0.7224405407905579,-4.4005351066589355
1413393889935760500,-0.10271964967250824,0.10597474873065948,-0.18810708820819855,10.344144821166992,1.820211410522461,-3.30292010307312
1413393889940760500,-0.16308292746543884,0.22429467737674713,-0.17332221567630768,12.16793441772461,0.9215542078018188,-3.5131430625915527
1413393889945760500,-0.19997838139533997,0.18947897851467133,-0.1996113657951355,11.480142593383789,0.2127126008272171,-4.2106032371521
1413393889950760500,-0.16267961263656616,0.26748472452163696,-0.22225095331668854,9.151981353759766,-1.653404951095581,-2.8497257232666016
1413393889955760500,-0.09866438060998917,0.23349310457706451,-0.22706060111522675,11.57050609588623,-1.0399208068847656,-3.4804060459136963
1413393889960760500,-0.049056269228458405,0.2576114535331726,-0.22998185455799103,11.146735191345215,-0.5847960114479065,-3.978102207183838
1413393889965760500,-0.07092101126909256,0.24372293055057526,-0.22498928010463715,9.016873359680176,1.3138819932937622,-3.844090700149536
1413393889970760500,-0.12512780725955963,0.20480597019195557,-0.22293664515018463,8.911102294921875,1.557754397392273,-2.6493446826934814
1413393889975760500,-0.17087651789188385,0.26656705141067505,-0.1771150380373001,11.760300636291504,0.17690585553646088,-3.7718288898468018
1413393889980760500,-0.20107361674308777,0.1420729011297226,-0.19753386080265045,9.81032943725586,-0.10697755217552185,-4.2341837882995605
1413393889985760500,-0.1327986866235733,0.2822530269622803,-0.15262901782989502,9.865111351013184,-1.5780093669891357,-2.6932625770568848
1413393889990760500,-0.08475027233362198,0.17534102499485016,-0.14566700160503387,11.896767616271973,-1.037942886352539,-4.297955513000488
1413393889995760500,-0.011826135218143463,0.33084750175476074,-0.10285209119319916,9.276726722717285,-0.6006433367729187,-2.8484785556793213
1413393890000760500,-0.031936295330524445,0.23874811828136444,-0.09458531439304352,12.245809555053711,0.6825273633003235,-3.857226610183716
1413393890005760500,-0.04228167235851288,0.3346988558769226,-0.08287326991558075,9.122075080871582,0.7198737263679504,-2.9375264644622803
1413393890010760500,-0.09914812445640564,0.285617858171463,-0.06955786794424057,10.334931373596191,1.0691777467727661,-4.589881420135498
1413393890015760500,-0.1083323284983635,0.2835842967033386,-0.04616685211658478,8.802133560180664,-0.302614688873291,-2.9657347202301025
1413393890020760500,-0.09498848021030426,0.2884039580821991,0.0032460931688547134,10.022808074951172,-0.5596458315849304,-3.740976095199585
1413393890025760500,-0.04743977636098862,0.17957840859889984,0.06753593683242798,8.71372127532959,-0.3964230716228485,-2.070972204208374
1413393890030760500,0.013714417815208435,0.31520554423332214,0.09287936240434647,10.268935203552246,-0.6569383144378662,-3.6772351264953613
1413393890035760500,0.033506520092487335,0.16616632044315338,0.1327899992465973,9.940515518188477,0.38204634189605713,-3.3975605964660645
1413393890040760500,0.028580956161022186,0.3217480182647705,0.12859562039375305,9.836584091186523,0.09790827333927155,-3.1772892475128174
1413393890045760500,-0.0004386007785797119,0.1583888679742813,0.17189247906208038,9.490159034729004,1.232421875,-3.6108481884002686
1413393890050760500,-0.01493765413761139,0.27648353576660156,0.17901566624641418,9.72835636138916,-0.09837893396615982,-2.4721646308898926
1413393890055760500,-0.03590182587504387,0.1442248672246933,0.18387915194034576,9.636811256408691,0.07470154762268066,-4.166741847991943
1413393890060760500,-0.0005459561944007874,0.24751326441764832,0.17867164313793182,9.141487121582031,-0.710817813873291,-2.633115291595459
1413393890065760500,0.030716672539711,0.1467338651418686,0.1996518224477768,10.488680839538574,-0.8433281183242798,-3.4847235679626465
1413393890070760500,0.06435299664735794,0.22556976974010468,0.18268240988254547,8.805171012878418,-0.06560007482767105,-3.3743045330047607
1413393890075760500,0.08198436349630356,0.17802990972995758,0.2513849139213562,10.170707702636719,0.3755456209182739,-3.529332399368286
1413393890080760500,0.064471535384655,0.19924037158489227,0.28733325004577637,8.952717781066895,0.5869380235671997,-3.341693162918091
1413393890085760500,0.032508350908756256,0.2410697191953659,0.32389330863952637,9.084263801574707,0.2200881987810135,-3.340461254119873
1413393890090760500,0.03246321529150009,0.17086048424243927,0.3315449357032776,9.02100944519043,0.014842410571873188,-2.6393136978149414
1413393890095760500,0.046993233263492584,0.2367776781320572,0.3092668652534485,9.91683578491211,-0.7765380144119263,-3.361743211746216
1413393890100760500,0.06765531748533249,0.18704719841480255,0.28420454263687134,8.752287864685059,-0.2529626488685608,-2.7630209922790527
1413393890105760500,0.06871698051691055,0.24825206398963928,0.2576950788497925,9.298943519592285,-0.06415947526693344,-2.7695415019989014
1413393890110760500,0.05945723503828049,0.19117291271686554,0.25807663798332214,8.035662651062012,0.36905378103256226,-3.3814191818237305
1413393890115760500,0.04058203846216202,0.27197641134262085,0.25898754596710205,8.978752136230469,0.4827349781990051,-2.8841211795806885
1413393890120760500,0.03697817772626877,0.19482208788394928,0.30144160985946655,7.064286231994629,0.081638403236866,-3.425323486328125
1413393890125760500,0.04654942452907562,0.2566184103488922,0.3163842558860779,8.720085144042969,-0.44213229417800903,-2.411094903945923
1413393890130760500,0.0566769614815712,0.18748684227466583,0.3349161744117737,6.434360027313232,-0.1734420508146286,-2.860447883605957
1413393890135760500,0.07713087648153305,0.23730430006980896,0.2896541357040405,8.653225898742676,-0.4078200161457062,-2.6330904960632324
1413393890140760500,0.07326061278581619,0.1482456773519516,0.30038225650787354,7.133053779602051,0.05863291397690773,-2.518842935562134
1413393890145760500,0.056070975959300995,0.2155447006225586,0.2777034640312195,9.664473533630371,0.29389771819114685,-3.3264617919921875
1413393890150760500,0.04406318813562393,0.18769286572933197,0.27806419134140015,6.3782057762146,0.7221462726593018,-2.1009271144866943
1413393890155760500,0.02857128530740738,0.21136139333248138,0.2786531448364258,8.272647857666016,-0.12138712406158447,-3.3489208221435547
1413393890160760500,0.02749151736497879,0.1767541915178299,0.2822122573852539,6.394714832305908,0.1881980150938034,-1.291174054145813
1413393890165760500,0.05546873062849045,0.19236619770526886,0.28864264488220215,9.391823768615723,-1.0232270956039429,-3.4193990230560303
1413393890170760500,0.06670887023210526,0.16611440479755402,0.28466665744781494,5.294139385223389,0.3116416931152344,-1.1600979566574097
1413393890175760500,0.08835559338331223,0.12461771070957184,0.3181973695755005,8.917831420898438,-0.9844266772270203,-3.673131227493286
1413393890180760500,0.067589171230793,0.16478262841701508,0.2913151979446411,5.600647926330566,0.7998977899551392,-1.1406899690628052
1413393890185760500,0.06733604520559311,0.06188096106052399,0.30564093589782715,9.756429672241211,-0.3168700635433197,-4.088290691375732
1413393890190760500,0.02751937508583069,0.1422819048166275,0.2862282991409302,5.230213642120361,1.2429312467575073,-1.022971272468567
1413393890195760500,0.048509009182453156,0.09524588286876678,0.308707594871521,10.052237510681152,-1.4011247158050537,-4.140469074249268
1413393890200760500,0.03721136599779129,0.19409404695034027,0.23868496716022491,5.447687149047852,0.7242684364318848,-0.9108151793479919
1413393890205760500,0.0863092765212059,0.07355628907680511,0.3183453679084778,8.9406099319458,-1.2627615928649902,-3.4711034297943115
1413393890210760500,0.06886037439107895,0.2252221554517746,0.2281223088502884,6.70729923248291,0.7612685561180115,-1.65203058719635
1413393890215760500,0.10057035833597183,0.08673496544361115,0.3501821756362915,7.952402591705322,-0.23737533390522003,-3.0493645668029785
1413393890220760500,0.03790096193552017,0.21660102903842926,0.24093182384967804,7.813714981079102,1.0220471620559692,-2.188094139099121
1413393890225760500,0.04769546538591385,0.09855259954929352,0.3192930221557617,6.086819171905518,0.1748192012310028,-2.548738956451416
1413393890230760500,-0.012771807610988617,0.17807824909687042,0.2085466831922531,8.78338623046875,0.6316408514976501,-2.096675157546997
1413393890235760500,0.0295574888586998,0.10605700314044952,0.27495306730270386,7.159504413604736,-1.2669156789779663,-2.730365514755249
1413393890240760500,0.02092241495847702,0.1376008540391922,0.17945091426372528,8.234997749328613,-0.06416524201631546,-1.931079626083374
1413393890245760500,0.08771611005067825,0.07309205830097198,0.2760043740272522,6.306453227996826,-0.4566728472709656,-1.921951174736023
1413393890250760500,0.06098584085702896,0.15895305573940277,0.21372967958450317,8.698317527770996,0.3927995264530182,-2.8507235050201416
1413393890255760500,0.07570000737905502,0.11067698895931244,0.3090953826904297,5.949388027191162,0.5280649065971375,-2.387770175933838
1413393890260760500,0.027740545570850372,0.1536342352628708,0.2522249221801758,8.91079044342041,0.03390936180949211,-3.3593406677246094
1413393890265760500,0.03395121544599533,0.13525892794132233,0.30430370569229126,5.647512435913086,0.9803406000137329,-1.6556638479232788
1413393890270760500,0.0201059952378273,0.12450124323368073,0.2665868103504181,9.621745109558105,-1.193621039390564,-3.2570126056671143
1413393890275760500,0.0505845844745636,0.13267280161380768,0.26209312677383423,5.393843650817871,0.3039730191230774,-1.2833904027938843
