#timestamp [ns],w_RS_S_x [rad s^-1],w_RS_S_y [rad s^-1],w_RS_S_z [rad s^-1],a_RS_S_x [m s^-2],a_RS_S_y [m s^-2],a_RS_S_z [m s^-2]
1413393885975760500,0.050963614158234416,0.041887902047863905,0.06841690667817772,9.438900625,-0.4004382083333333,-2.729517583333333
1413393885980760500,0.05375614096142535,0.03630284844148206,0.07051130178057091,9.398039583333333,0.032688833333333334,-3.195333458333333
1413393885985760500,0.03839724354387525,0.04258603374866164,0.04677482395344803,9.561483749999999,0.2533384583333333,-3.015544875
1413393885990760500,0.028623399732707,0.047472955654245766,0.07120943348136866,9.283628666666665,0.269682875,-3.0890947499999997
1413393885995760500,0.0027925268031909274,0.06562437987498679,0.06213372137099814,9.610517,0.4985047083333333,-3.0400614999999998
1413393886000760500,-0.025132741228718346,0.03839724354387525,0.08377580409572781,9.161045541666667,0.7681875833333334,-3.2280222916666665
1413393886005760500,-0.05235987755982988,0.04817108735504349,0.08936085770210968,9.283628666666665,0.3350605416666666,-3.0809225416666663
1413393886010760500,-0.05585053606381855,0.03839724354387525,0.08098327729253688,9.054806833333332,-0.35140495833333335,-2.7867230416666664
1413393886015760500,-0.04049163864626844,0.009075712110370514,0.0747000919853573,9.259112041666667,-0.5720545833333333,-2.754034208333333
1413393886020760500,-0.013264502315156905,0.00767944870877505,0.08656833089891874,9.357178541666666,-0.6701210833333332,-2.7376897916666665
1413393886025760500,0.023038346126325153,0.010471975511965976,0.07819075048934597,9.520622708333333,-0.612915625,-2.9093061666666666
1413393886030760500,0.0439822971502571,0.032114058236695664,0.08307767239493008,9.586000375,-0.3759215833333333,-2.941995
1413393886035760500,0.04049163864626844,0.028623399732707,0.07819075048934597,9.250939833333334,0.18796079166666665,-2.811239666666667
1413393886040760500,0.021642082724729686,0.02652900463031381,0.07190756518216637,9.259112041666667,0.416782625,-3.023717083333333
1413393886045760500,-0.005585053606381855,0.04677482395344803,0.06911503837897544,9.373522958333332,0.367749375,-3.0400614999999998
1413393886050760500,-0.023736477827122883,0.03420845333908886,0.06771877497737998,9.144701125,0.057205458333333334,-2.982856041666666
1413393886055760500,-0.03490658503988659,0.01884955592153876,0.06981317007977318,9.07115125,0.10623870833333333,-2.7376897916666665
1413393886060760500,-0.03490658503988659,0.013962634015954637,0.08237954069413235,9.1201845,-0.2533384583333333,-2.9093061666666666
1413393886065760500,-0.021642082724729686,0.009075712110370514,0.08028514559173915,9.242767624999999,-0.4004382083333333,-2.999200458333333
1413393886070760500,-0.008377580409572781,0.006981317007977318,0.08726646259971647,9.536967125,-0.392266,-2.9583394166666666
1413393886075760500,0.00767944870877505,0.02234021442552742,0.08307767239493008,9.406211791666665,-0.3105439166666667,-2.974683833333333
1413393886080760500,0.017453292519943295,0.02234021442552742,0.07260569688296412,9.349006333333334,-0.3023717083333333,-3.015544875
1413393886085760500,0.025132741228718346,0.02722713633111154,0.06562437987498679,9.520622708333333,-0.17978858333333333,-2.974683833333333
1413393886090760500,0.02652900463031381,0.02234021442552742,0.08098327729253688,9.291800875,0.17161637500000002,-2.9338227916666666
1413393886095760500,0.009773843811168246,0.017453292519943295,0.08517206749732328,9.234595416666666,0.35957716666666667,-2.8766173333333334
1413393886100760500,-0.013264502315156905,0.02024581932313422,0.09564404300928926,8.989429166666666,0.3840937916666667,-2.8684451249999996
1413393886105760500,-0.033510321638291124,0.008377580409572781,0.09215338450530061,9.635033625,0.08989429166666667,-3.1299557916666663
1413393886110760500,-0.04537856055185257,0.009075712110370514,0.08237954069413235,9.5124505,-0.20430520833333332,-3.0645781249999997
1413393886115760500,-0.02722713633111154,0.016755160819145562,0.07330382858376185,9.398039583333333,-0.661948875,-2.8766173333333334
1413393886120760500,0.0010031908750534058,0.025086456909775734,0.06350249797105789,9.466520309448242,-0.5607971549034119,-3.037658452987671
1413393886125760500,0.026131071150302887,0.02723533846437931,0.073224276304245,9.312515258789062,-0.08939103037118912,-2.939837694168091
1413393886130760500,0.04083266854286194,0.022392792627215385,0.08799517154693604,9.157876968383789,-0.0877285748720169,-2.785423994064331
1413393886135760500,0.0325232595205307,0.013249794021248817,0.076715849339962,9.50965404510498,0.21489949524402618,-3.095062255859375
1413393886140760500,0.00240933895111084,0.030627893283963203,0.0794946700334549,9.289523124694824,0.49931401014328003,-2.973480224609375
1413393886145760500,-0.02130335569381714,0.014036018401384354,0.08095155656337738,9.566362380981445,0.31957435607910156,-3.242661952972412
1413393886150760500,-0.0339379608631134,0.02580936811864376,0.07173247635364532,9.451491355895996,-0.19987604022026062,-3.0624804496765137
1413393886155760500,-0.023541361093521118,0.03629708290100098,0.07470916956663132,9.410176277160645,-0.19966067373752594,-3.0953495502471924
1413393886160760500,-0.013727329671382904,0.04254072159528732,0.07966427505016327,9.222270965576172,-0.029529444873332977,-2.8840065002441406
1413393886165760500,-0.004029422998428345,0.028590211644768715,0.07594231516122818,9.22242546081543,-0.19190660119056702,-2.826280355453491
1413393886170760500,0.0022168010473251343,0.017403004691004753,0.07118035107851028,9.246941566467285,-0.4034481942653656,-2.9892735481262207
1413393886175760500,0.012133866548538208,0.02365291304886341,0.07810454070568085,9.443765640258789,0.011977056041359901,-3.340402841567993
1413393886180760500,0.008034475147724152,0.04256877303123474,0.08567555248737335,9.149847984313965,0.03404363989830017,-2.8509085178375244
1413393886185760500,0.00037454068660736084,0.020426051691174507,0.08868534862995148,9.442736625671387,-0.11240874975919724,-2.9560916423797607
1413393886190760500,0.005227506160736084,0.036323003470897675,0.08242866396903992,9.499836921691895,-0.21024061739444733,-2.9067604541778564
1413393886195760500,0.009382940828800201,0.04452523589134216,0.08439406007528305,9.288125991821289,0.16616275906562805,-2.892123222351074
1413393886200760500,-0.0031749680638313293,0.035450518131256104,0.08232966810464859,9.1659574508667,0.22409260272979736,-2.892411947250366
1413393886205760500,-0.01863403618335724,0.018150227144360542,0.06754785031080246,9.394067764282227,-0.03776780515909195,-2.875058650970459
1413393886210760500,-0.02157805860042572,0.0182023998349905,0.06549440324306488,9.280220031738281,-0.17598453164100647,-2.9980037212371826
1413393886215760500,-0.014516063034534454,0.025677336379885674,0.0712166354060173,9.378268241882324,-0.22403204441070557,-3.0548088550567627
1413393886220760500,-0.01574801653623581,0.03283245116472244,0.07752594351768494,9.149101257324219,-0.2170364409685135,-2.8177123069763184
1413393886225760500,-0.00039045512676239014,0.023259295150637627,0.08728664368391037,9.37753963470459,-0.2689043879508972,-2.9728848934173584
1413393886230760500,0.015587776899337769,0.02506229840219021,0.08510330319404602,9.246893882751465,-0.21843253076076508,-2.8585703372955322
1413393886235760500,0.02686956524848938,0.024170050397515297,0.08569769561290741,9.337512969970703,0.061361510306596756,-2.907954692840576
1413393886240760500,0.018593013286590576,0.026504209265112877,0.08096183836460114,9.19892692565918,0.24767352640628815,-3.0063483715057373
1413393886245760500,0.0016954392194747925,0.018961897119879723,0.0851300060749054,9.476176261901855,0.20424912869930267,-3.030630350112915
1413393886250760500,-0.015192605555057526,0.027320770546793938,0.08167852461338043,9.11711311340332,0.04490910470485687,-3.0142786502838135
1413393886255760500,-0.01859121024608612,0.015255611389875412,0.09632225334644318,9.435901641845703,0.19288022816181183,-2.948408842086792
1413393886260760500,-0.023487843573093414,0.027204731479287148,0.09623275697231293,9.157368659973145,0.018868422135710716,-2.8998870849609375
1413393886265760500,-0.015207909047603607,0.005590794607996941,0.09687107801437378,9.287459373474121,-0.39907029271125793,-2.769576072692871
1413393886270760500,-0.001211017370223999,0.010324997827410698,0.07394856214523315,9.43423843383789,-0.41914695501327515,-2.9481046199798584
1413393886275760500,0.011422447860240936,0.01107148826122284,0.06411100924015045,9.508465766906738,-0.3061046004295349,-3.054304838180542
1413393886280760500,0.013652555644512177,0.022395992651581764,0.05231854319572449,9.418682098388672,-0.11395861953496933,-3.046020984649658
1413393886285760500,0.018549978733062744,0.0063858237117528915,0.060075826942920685,9.337323188781738,-0.007806837558746338,-2.9806275367736816
1413393886290760500,0.0073085203766822815,0.030042970553040504,0.06005357950925827,9.395139694213867,0.22446958720684052,-3.0784809589385986
1413393886295760500,-0.012293398380279541,0.016005778685212135,0.08720098435878754,9.338711738586426,0.5340893268585205,-2.998152732849121
1413393886300760500,-0.02625596523284912,0.03414628654718399,0.09418551623821259,9.21512222290039,0.11585275828838348,-2.9002301692962646
1413393886305760500,-0.027080006897449493,0.02031788043677807,0.09067623317241669,9.140558242797852,-0.24991777539253235,-2.908205032348633
1413393886310760500,-0.01589314639568329,0.02721458487212658,0.0865401178598404,9.385675430297852,-0.4186578094959259,-3.136451005935669
1413393886315760500,-0.0018227994441986084,0.022269872948527336,0.09207923710346222,9.263145446777344,-0.28135767579078674,-3.087756872177124
1413393886320760500,0.012844443321228027,0.030006611719727516,0.08086699992418289,9.352961540222168,-0.40712329745292664,-2.915313482284546
1413393886325760500,0.02885293960571289,0.021658388897776604,0.08865991234779358,9.254679679870605,-0.2673366069793701,-2.9804298877716064
1413393886330760500,0.029669061303138733,0.03209460526704788,0.08576080203056335,9.321429252624512,0.1839965432882309,-2.981123685836792
1413393886335760500,0.015735529363155365,0.02509019337594509,0.10309237986803055,9.240365028381348,0.4437239468097687,-2.9654386043548584
1413393886340760500,-0.01438632607460022,0.032748572528362274,0.08656270056962967,9.215154647827148,0.0501641146838665,-3.095717430114746
1413393886345760500,-0.029157251119613647,0.015357593074440956,0.07183407247066498,9.43494701385498,-0.17689412832260132,-3.169095993041992
1413393886350760500,-0.02913077175617218,0.029364561662077904,0.06278055906295776,9.541522026062012,-0.2072824239730835,-3.201695680618286
1413393886355760500,-0.016460958868265152,0.026431309059262276,0.06353097409009933,9.279428482055664,-0.37216007709503174,-2.825904607772827
1413393886360760500,-0.0017862319946289062,0.021642101928591728,0.062067270278930664,9.344682693481445,-0.42244622111320496,-2.9724531173706055
1413393886365760500,0.01975099742412567,0.0285984855145216,0.07743020355701447,9.42627239227295,-0.16814304888248444,-2.8669075965881348
1413393886370760500,0.019779250025749207,0.03907421976327896,0.08648409694433212,9.27221393585205,0.28261709213256836,-3.014249563217163
1413393886375760500,0.007985308766365051,0.03412839025259018,0.0878739282488823,9.133857727050781,0.3776106536388397,-2.802469253540039
1413393886380760500,-0.0059343427419662476,0.025165459141135216,0.09288755804300308,9.443485260009766,0.03301725909113884,-2.9158504009246826
1413393886385760500,-0.01162518560886383,0.027921324595808983,0.08932173252105713,9.402374267578125,-0.03806234896183014,-2.9324684143066406
1413393886390760500,-0.010869652032852173,0.03904058039188385,0.088545061647892,9.426877975463867,-0.15865717828273773,-2.956691026687622
1413393886395760500,-0.009476050734519958,0.02858833037316799,0.0858851969242096,9.083634376525879,-0.18589648604393005,-2.8345463275909424
1413393886400760500,0.006500735878944397,0.02171613834798336,0.08498283475637436,9.491595268249512,-0.3903147876262665,-2.9808647632598877
1413393886405760500,0.015548869967460632,0.02432527206838131,0.07876408100128174,9.25536060333252,-0.003515559481456876,-2.8997457027435303
1413393886410760500,0.007271483540534973,0.021508710458874702,0.07537733018398285,9.30572509765625,0.20903173089027405,-2.998065233230591
1413393886415760500,-0.00952330231666565,0.009731480851769447,0.07668988406658173,9.370360374450684,0.049772314727306366,-2.924102306365967
1413393886420760500,-0.013082928955554962,0.011257592588663101,0.06907432526350021,9.50049114227295,-0.07983525097370148,-3.1522140502929688
1413393886425760500,-0.012305393815040588,0.018127204850316048,0.06012798845767975,9.288153648376465,-0.2818129360675812,-2.842275857925415
1413393886430760500,-0.006587713956832886,0.0216087456792593,0.059333208948373795,9.361701011657715,-0.17575311660766602,-3.119688034057617
1413393886435760500,0.008045785129070282,0.01960921101272106,0.07597942650318146,9.352934837341309,-0.2770426571369171,-2.8099160194396973
1413393886440760500,0.012788094580173492,0.01681874878704548,0.08368279039859772,9.434834480285645,0.018307005986571312,-2.9895095825195312
1413393886445760500,0.0058104246854782104,0.023567335680127144,0.08793199062347412,9.198992729187012,0.20058447122573853,-2.7776875495910645
1413393886450760500,-0.004597947001457214,0.016699226573109627,0.08931689709424973,9.361934661865234,0.10992556065320969,-3.038140296936035
1413393886455760500,-0.01375645399093628,0.016119228675961494,0.09279283881187439,9.394289016723633,-0.055421244353055954,-3.1197924613952637
1413393886460760500,-0.015846475958824158,0.022418351843953133,0.08862410485744476,9.443220138549805,-0.1029404029250145,-3.038228988647461
1413393886465760500,-0.01160566508769989,0.02716776542365551,0.0844060629606247,9.165587425231934,-0.3468249440193176,-2.8994691371917725
1413393886470760500,0.00725913792848587,0.028600694611668587,0.08847574889659882,9.36085319519043,-0.40539801120758057,-2.8748762607574463
1413393886475760500,0.018403172492980957,0.018903421238064766,0.09204153716564178,9.222410202026367,-0.2356247752904892,-2.891322135925293
1413393886480760500,0.0212857723236084,0.015984555706381798,0.08373913913965225,9.443554878234863,0.060350462794303894,-3.0304431915283203
1413393886485760500,0.010781869292259216,0.024290109053254128,0.07398256659507751,9.29672908782959,0.20845279097557068,-2.907841920852661
1413393886490760500,-0.001839950680732727,0.01608816348016262,0.07393553107976913,9.386558532714844,0.2961677014827728,-3.103881359100342
1413393886495760500,-0.017206087708473206,0.016847187653183937,0.07741038501262665,9.362092018127441,0.10767748206853867,-3.103452444076538
1413393886500760500,-0.02490193396806717,0.022332018241286278,0.0725623220205307,9.541406631469727,-0.19187095761299133,-3.119614601135254
1413393886505760500,-0.020688116550445557,0.04323446750640869,0.07610569894313812,9.39411735534668,-0.19102223217487335,-2.8262691497802734
1413393886510760500,-0.0074402689933776855,0.03003195859491825,0.08230341225862503,9.295877456665039,-0.2429378777742386,-2.9405152797698975
1413393886515760500,0.010756328701972961,0.03772183507680893,0.08712905645370483,9.352767944335938,-0.2346031814813614,-2.9240715503692627
1413393886520760500,0.017717890441417694,0.03274185210466385,0.08862876147031784,9.190014839172363,-0.06914856284856796,-3.0551440715789795
1413393886525760500,0.012861520051956177,0.033364586532115936,0.08373470604419708,9.370254516601562,0.13400408625602722,-2.908001184463501
1413393886530760500,-0.0011137723922729492,0.020302748307585716,0.0767328143119812,9.378241539001465,0.15674307942390442,-3.1033809185028076
1413393886535760500,-0.005320936441421509,0.03842723369598389,0.07610709220170975,9.312740325927734,-0.013538934290409088,-2.8830456733703613
1413393886540760500,-0.013697177171707153,0.03208574652671814,0.07537344843149185,9.100247383117676,-0.03704027459025383,-3.1037676334381104
1413393886545760500,-0.01089431345462799,0.04462927579879761,0.0822465792298317,9.435431480407715,-0.09476473182439804,-2.907830238342285
1413393886550760500,-0.011647388339042664,0.024490585550665855,0.08229960501194,9.14061450958252,-0.20097802579402924,-2.9327967166900635
1413393886555760500,-0.003309488296508789,0.034091927111148834,0.08230366557836533,9.222539901733398,-0.29090046882629395,-2.573674201965332
1413393886560760500,0.0016446039080619812,0.003361787647008896,0.07890191674232483,9.08368968963623,-0.11095621436834335,-2.9322509765625
1413393886565760500,0.007984206080436707,0.025080790743231773,0.07399116456508636,9.590493202209473,-0.014219951815903187,-2.923776388168335
1413393886570760500,-0.005328252911567688,0.016166599467396736,0.07253193855285645,9.304021835327148,-0.07068272680044174,-3.0057320594787598
1413393886575760500,0.0023520290851593018,0.02582201547920704,0.0655391737818718,9.40283203125,-0.20168733596801758,-2.8174238204956055
1413393886580760500,-0.0031759291887283325,0.015349064022302628,0.06767882406711578,9.181903839111328,0.052275728434324265,-2.972929000854492
1413393886585760500,-0.0018055438995361328,0.0425528958439827,0.08864143490791321,9.60738468170166,0.17377588152885437,-3.1119749546051025
1413393886590760500,-0.009459152817726135,0.03561816364526749,0.08582630753517151,9.059333801269531,-0.12014516443014145,-2.7454113960266113
1413393886595760500,-0.003987923264503479,0.013940617442131042,0.09277603030204773,9.296635627746582,-0.25819435715675354,-2.8424832820892334
1413393886600760500,0.00019333511590957642,0.010445239022374153,0.08306252211332321,9.23058032989502,-0.20792126655578613,-3.0219571590423584
1413393886605760500,0.004444509744644165,0.019488593563437462,0.09618911147117615,9.57424259185791,0.003223058534786105,-3.1199183464050293
1413393886610760500,-0.003903709352016449,0.031367406249046326,0.08234680444002151,9.312444686889648,-0.1854923814535141,-2.9650144577026367
1413393886615760500,0.004393935203552246,0.014118187129497528,0.07883758842945099,9.377959251403809,-0.21778666973114014,-2.899110794067383
1413393886620760500,0.007981225848197937,0.021608611568808556,0.07739914208650589,9.206588745117188,-0.003781774779781699,-3.0956037044525146
1413393886625760500,0.0065938979387283325,0.03199306130409241,0.09272859990596771,9.386746406555176,0.15820331871509552,-3.1281039714813232
1413393886630760500,-0.01087653636932373,0.03131180256605148,0.08167488873004913,9.117145538330078,0.05068690702319145,-2.948852300643921
1413393886635760500,-0.008882485330104828,0.007873868569731712,0.08517224341630936,9.174088478088379,-0.0708867758512497,-2.908327341079712
1413393886640760500,-0.006065919995307922,0.016047654673457146,0.08233756572008133,9.165201187133789,-0.1591360867023468,-3.030344009399414
1413393886645760500,-0.005281955003738403,0.014566851779818535,0.08224807679653168,9.46761703491211,0.003399026347324252,-3.160487651824951
1413393886650760500,-0.015761397778987885,0.028559504076838493,0.06701290607452393,9.459443092346191,-0.1448538899421692,-2.964590072631836
1413393886655760500,0.0043646544218063354,0.022529544308781624,0.07884782552719116,9.344526290893555,-0.1678541600704193,-2.8912734985351562
1413393886660760500,0.007956191897392273,0.03483664244413376,0.07175705581903458,9.312092781066895,-0.1832856684923172,-3.030024766921997
1413393886665760500,0.005943611264228821,0.027753403410315514,0.08021722733974457,9.402816772460938,0.17376019060611725,-3.119802474975586
1413393886670760500,-0.0038490593433380127,0.029984505847096443,0.07616452127695084,9.23991584777832,0.0015342057449743152,-2.957165479660034
1413393886675760500,-0.001935616135597229,0.0182685274630785,0.0822482705116272,9.459513664245605,-0.1843365877866745,-3.005446434020996
1413393886680760500,-0.00464843213558197,0.024384668096899986,0.08165537565946579,9.239087104797363,-0.17509111762046814,-3.013730525970459
1413393886685760500,-0.0066129714250564575,0.020880961790680885,0.08162885904312134,9.565774917602539,-0.014768227003514767,-3.0381417274475098
1413393886690760500,-0.01021081954240799,0.030709655955433846,0.07946082949638367,9.394278526306152,-0.13655346632003784,-2.907759666442871
1413393886695760500,0.00574706494808197,0.03354492783546448,0.08091377466917038,9.418195724487305,-0.17483289539813995,-2.9486300945281982
1413393886700760500,0.007989808917045593,0.03272521495819092,0.08092611283063889,9.27152156829834,-0.10944431275129318,-2.9814658164978027
1413393886705760500,0.003818005323410034,0.037597283720970154,0.07808846235275269,9.45202350616455,0.17317591607570648,-3.0628058910369873
1413393886710760500,-0.0025561749935150146,0.031450189650058746,0.07958341389894485,9.109050750732422,0.034196607768535614,-2.7123751640319824
1413393886715760500,-0.0018866285681724548,0.015363644808530807,0.08161243051290512,9.582114219665527,-0.1600187122821808,-3.046184539794922
1413393886720760500,-0.0025144070386886597,0.02651274763047695,0.08371786028146744,9.214740753173828,0.06180836632847786,-2.973423719406128
1413393886725760500,-0.008025899529457092,0.03137318789958954,0.0760594829916954,9.426932334899902,-0.006716421339660883,-2.9813644886016846
1413393886730760500,0.0002566203474998474,0.02444055862724781,0.07955874502658844,9.189610481262207,-0.1451551616191864,-2.891291618347168
1413393886735760500,0.0029983818531036377,0.027923574671149254,0.0745941549539566,9.5330810546875,-0.036912791430950165,-3.02188777923584
1413393886740760500,0.011461041867733002,0.030687516555190086,0.08580350130796432,9.222807884216309,0.06993106752634048,-2.9898862838745117
1413393886745760500,0.0010676383972167969,0.03196389973163605,0.07469622045755386,9.369994163513184,0.06737128645181656,-2.95685076713562
1413393886750760500,-0.0026053041219711304,0.014012543484568596,0.08375291526317596,9.108702659606934,0.09146544337272644,-2.744791269302368
1413393886755760500,-0.002574540674686432,0.013295074924826622,0.08093015849590302,9.435150146484375,-0.07898614555597305,-2.907827377319336
1413393886760760500,-0.00462263822555542,0.016680410131812096,0.0899815708398819,9.279732704162598,-0.0764424279332161,-3.136427879333496
1413393886765760500,-0.011531680822372437,0.02508138306438923,0.07953377813100815,9.475948333740234,-0.1690482348203659,-3.0547144412994385
1413393886770760500,-0.003973327577114105,0.01264849305152893,0.08160699903964996,9.304130554199219,-0.28440749645233154,-3.0461413860321045
1413393886775760500,0.003756403923034668,0.026484033092856407,0.07809552550315857,9.45144271850586,-0.10274267941713333,-2.9645445346832275
1413393886780760500,0.014259010553359985,0.015285423025488853,0.08791359513998032,9.280381202697754,0.03730079531669617,-3.0137035846710205
1413393886785760500,0.003888174891471863,0.029220936819911003,0.07328479737043381,9.476107597351074,0.06712989509105682,-3.0056774616241455
1413393886790760500,-0.004018634557723999,0.008502939715981483,0.07954126596450806,9.125049591064453,0.13217556476593018,-2.9489667415618896
1413393886795760500,-0.008891135454177856,0.018147511407732964,0.07810113579034805,9.443387031555176,-0.22489003837108612,-2.9975318908691406
1413393886800760500,-0.008092805743217468,0.0208911020308733,0.08857204020023346,9.287895202636719,-0.13355249166488647,-3.193279266357422
1413393886805760500,-0.009437866508960724,0.028607098385691643,0.08165793865919113,9.500645637512207,-0.16959376633167267,-3.0138604640960693
1413393886810760500,-0.0039650797843933105,0.014745760709047318,0.08373448252677917,9.206182479858398,-0.10472516715526581,-2.9894680976867676
1413393886815760500,0.0002426356077194214,0.035510264337062836,0.07457569241523743,9.48371696472168,-0.20012086629867554,-2.997122049331665
1413393886820760500,0.004435740411281586,0.028565147891640663,0.08024978637695312,9.124629020690918,-0.1180415078997612,-3.0301012992858887
1413393886825760500,0.00734914094209671,0.0355873703956604,0.07816162705421448,9.500762939453125,-0.030137518420815468,-3.021961212158203
1413393886830760500,0.002330213785171509,0.023172928020358086,0.0830005407333374,9.141222953796387,-0.021994881331920624,-3.0058085918426514
1413393886835760500,-0.0011530593037605286,0.026481078937649727,0.08232481777667999,9.410782814025879,-0.021093502640724182,-2.94075083732605
1413393886840760500,-0.01093398779630661,0.026384582743048668,0.085141621530056,9.108238220214844,-0.14342212677001953,-3.054823398590088
1413393886845760500,-0.008828364312648773,0.03144746273756027,0.08859386295080185,9.329144477844238,-0.11153946071863174,-3.03832745552063
1413393886850760500,-0.0067279040813446045,0.02868223376572132,0.08509896695613861,9.344894409179688,-0.17621508240699768,-2.989391803741455
1413393886855760500,0.000970885157585144,0.028568876907229424,0.08578740060329437,9.238993644714355,-0.06986382603645325,-2.9245529174804688
1413393886860760500,0.004474610090255737,0.032004423439502716,0.07674820721149445,9.157161712646484,-0.17653828859329224,-3.0140109062194824
1413393886865760500,0.00861562043428421,0.02373695559799671,0.07606437057256699,9.263602256774902,-0.013644588179886341,-2.932432174682617
1413393886870760500,0.006529971957206726,0.02024688385426998,0.07050374895334244,9.247504234313965,-0.07904350012540817,-3.0627400875091553
1413393886875760500,0.002362266182899475,0.01815365068614483,0.0746452584862709,9.14139461517334,0.0847790315747261,-2.9489591121673584
1413393886880760500,-0.008071526885032654,0.0257283803075552,0.078109011054039,9.378072738647461,-0.02977769821882248,-3.038241147994995
1413393886885760500,-0.010243095457553864,0.02239455096423626,0.07883727550506592,9.320572853088379,-0.11180304735898972,-2.964930534362793
1413393886890760500,-0.008815154433250427,0.025126030668616295,0.0753381997346878,9.680086135864258,-0.1440625935792923,-3.2094833850860596
1413393886895760500,-0.0053272545337677,0.029993465170264244,0.0809767097234726,9.206592559814453,0.08518156409263611,-2.9084229469299316
1413393886900760500,-0.002461947500705719,0.027808209881186485,0.07321228086948395,9.451329231262207,-0.19311967492103577,-3.005457639694214
1413393886905760500,0.0030596405267715454,0.029339509084820747,0.07461611926555634,9.336482048034668,-0.16856296360492706,-2.8584442138671875
1413393886910760500,0.015615567564964294,0.023050686344504356,0.08093808591365814,9.460042953491211,-0.13577599823474884,-3.0789036750793457
1413393886915760500,0.008647814393043518,0.025090107694268227,0.07744003087282181,9.051557540893555,0.06009848415851593,-2.8268544673919678
1413393886920760500,-0.00040099024772644043,0.022278061136603355,0.08444651961326599,9.45987606048584,0.05262007191777229,-3.111680030822754
1413393886925760500,-0.007459014654159546,0.025151723995804787,0.08237814903259277,9.222512245178223,-0.08761240541934967,-2.8832902908325195
1413393886930760500,-0.005338214337825775,0.018855223432183266,0.091978520154953,9.500812530517578,-0.013648676685988903,-2.973038911819458
1413393886935760500,-0.007389664649963379,0.027178382501006126,0.08794572949409485,9.059710502624512,0.060051098465919495,-2.9408206939697266
1413393886940760500,-0.007394760847091675,0.021610869094729424,0.08231882750988007,9.393980979919434,-0.2905007004737854,-3.0055530071258545
1413393886945760500,0.002271391451358795,0.0174556951969862,0.08232691884040833,9.058947563171387,-0.25803741812705994,-2.9568288326263428
1413393886950760500,0.010006383061408997,0.01816744916141033,0.07533575594425201,9.411209106445312,-0.1028878316283226,-2.9810400009155273
1413393886955760500,0.0059013813734054565,0.0195260401815176,0.07813157141208649,9.165875434875488,-0.006003934424370527,-2.8995375633239746
1413393886960760500,0.0009922385215759277,0.014604734256863594,0.07600578665733337,9.589920997619629,-0.16044563055038452,-3.1035373210906982
1413393886965760500,-0.0004921257495880127,0.02097446657717228,0.07536481320858002,9.067305564880371,-0.08661322295665741,-2.8589632511138916
1413393886970760500,-0.0018174871802330017,0.012560892850160599,0.09143206477165222,9.501341819763184,0.13448847830295563,-3.29136061668396
1413393886975760500,-0.01364145427942276,0.039760127663612366,0.08514319360256195,9.353469848632812,0.07551947236061096,-2.940495491027832
1413393886980760500,-0.01371554285287857,0.02307790331542492,0.08647708594799042,9.23885440826416,-0.18539239466190338,-2.9081645011901855
1413393886985760500,-0.005381003022193909,0.027225183323025703,0.07185579836368561,9.369406700134277,-0.3965720534324646,-2.932020664215088
1413393886990760500,0.012128442525863647,0.02440916933119297,0.07948273420333862,9.222698211669922,-0.10931708663702011,-3.0546183586120605
1413393886995760500,0.012921810150146484,0.025042524561285973,0.08442050963640213,9.427151679992676,0.010275060310959816,-2.989640235900879
1413393887000760500,0.001632794737815857,0.018120823428034782,0.07538148760795593,9.361292839050293,-0.023046819493174553,-2.980823278427124
1413393887005760500,0.0022902339696884155,0.024448437616229057,0.07815335690975189,9.30465030670166,-0.10240008682012558,-3.037959575653076
1413393887010760500,0.00028343498706817627,0.020949384197592735,0.0892983227968216,9.190506935119629,0.2495163083076477,-3.0229456424713135
1413393887015760500,-0.013590559363365173,0.029254542663693428,0.09132151305675507,9.648164749145508,0.1156468540430069,-3.005239486694336
1413393887020760500,-0.017884083092212677,0.03215566277503967,0.08376167714595795,9.263249397277832,-0.12075276672840118,-2.9078855514526367
1413393887025760500,-0.005407005548477173,0.018140656873583794,0.07604154944419861,9.385988235473633,-0.40411344170570374,-3.005528211593628
1413393887030760500,0.00999845564365387,0.032012760639190674,0.07178185880184174,9.181282997131348,-0.1994277536869049,-2.9487054347991943
1413393887035760500,0.013662531971931458,0.020260443910956383,0.08375829458236694,9.361922264099121,-0.014399862848222256,-2.9566662311553955
1413393887040760500,0.005870521068572998,0.029263382777571678,0.07399311661720276,9.434632301330566,-0.1613529622554779,-2.9973702430725098
1413393887045760500,0.007102251052856445,0.020999262109398842,0.08226600289344788,9.198644638061523,-0.01993357576429844,-2.964967966079712
1413393887050760500,0.0016699433326721191,0.027855565771460533,0.08235903829336166,9.12532901763916,0.2567916512489319,-2.9897396564483643
1413393887055760500,-0.017796218395233154,0.0216123815625906,0.08648689836263657,9.435624122619629,0.18050938844680786,-3.0137321949005127
1413393887060760500,-0.021413885056972504,0.03489287942647934,0.08026361465454102,9.3534517288208,-0.15272341668605804,-3.063237428665161
1413393887065760500,-0.007489249110221863,0.019608573988080025,0.08237124979496002,9.222613334655762,-0.29729703068733215,-2.891854763031006
1413393887070760500,0.00515361875295639,0.02292974852025509,0.07596167922019958,9.18132495880127,-0.2414383590221405,-2.923892021179199
1413393887075760500,0.013618960976600647,0.011856777593493462,0.08162359148263931,9.189870834350586,-0.14548920094966888,-2.932238817214966
1413393887080760500,0.00793030858039856,0.022269902750849724,0.07608966529369354,9.51664924621582,-0.13661286234855652,-3.0462520122528076
1413393887085760500,0.010607220232486725,0.013965273275971413,0.07601892203092575,9.18203353881836,-0.06835378706455231,-2.9730217456817627
1413393887090760500,0.005233466625213623,0.02234441600739956,0.080250084400177,9.255966186523438,0.15860885381698608,-3.0140509605407715
1413393887095760500,-0.010122708976268768,0.00904586911201477,0.08511394262313843,9.214951515197754,0.2049424797296524,-2.9733481407165527
1413393887100760500,-0.026320017874240875,0.02439226023852825,0.07879965752363205,9.549779891967773,-0.1129370927810669,-3.013695001602173
1413393887105760500,-0.015905916690826416,0.020260779187083244,0.08516540378332138,9.369488716125488,-0.3786086142063141,-2.9401865005493164
1413393887110760500,0.0016993135213851929,0.03213270753622055,0.0822446346282959,9.467212677001953,-0.3957235515117645,-3.0055713653564453
1413393887115760500,0.008706644177436829,0.019574621692299843,0.08434900641441345,9.091520309448242,-0.21910351514816284,-2.8344273567199707
1413393887120760500,0.01427573710680008,0.02227119170129299,0.07815323024988174,9.59853744506836,-0.1940605193376541,-2.9969985485076904
1413393887125760500,0.015486285090446472,0.01806156150996685,0.07533198595046997,9.190110206604004,-0.060300737619400024,-2.875127077102661
1413393887130760500,0.012139901518821716,0.02370907925069332,0.08232367038726807,9.403297424316406,0.18348565697669983,-3.1283493041992188
1413393887135760500,-0.005899123847484589,0.03145386278629303,0.08170431852340698,9.198687553405762,0.2620595097541809,-2.9406230449676514
1413393887140760500,-0.02626824378967285,0.023810168728232384,0.08229953050613403,9.509345054626465,0.1569681167602539,-2.9892659187316895
1413393887145760500,-0.023616403341293335,0.03348362445831299,0.08160785585641861,9.296277046203613,-0.2080215960741043,-2.899888515472412
1413393887150760500,-0.007411167025566101,0.019518008455634117,0.08297780156135559,9.263317108154297,-0.32273441553115845,-3.0386314392089844
1413393887155760500,-0.0003608688712120056,0.036919258534908295,0.07674296945333481,9.132201194763184,-0.2592692971229553,-2.899925708770752
1413393887160760500,0.0128188356757164,0.020987140014767647,0.0781652182340622,9.369335174560547,-0.2915371358394623,-2.9073524475097656
1413393887165760500,0.016954928636550903,0.030655642971396446,0.06836037337779999,9.361550331115723,-0.19938106834888458,-3.021505832672119
1413393887170760500,0.0170106440782547,0.020275773480534554,0.08232451975345612,9.190861701965332,0.22424505650997162,-3.0957884788513184
1413393887175760500,-0.005200549960136414,0.03900512307882309,0.0795944333076477,9.297097206115723,0.40090134739875793,-2.9488863945007324
1413393887180760500,-0.02558678388595581,0.025886794552206993,0.08577585965394974,9.320878028869629,0.13270382583141327,-3.0221967697143555
1413393887185760500,-0.02917114645242691,0.028572244569659233,0.07602650672197342,9.443560600280762,-0.23220457136631012,-3.1035003662109375
1413393887190760500,-0.017200089991092682,0.013275319710373878,0.0829932913184166,9.198054313659668,-0.3063717484474182,-2.8917715549468994
1413393887195760500,-0.0017013102769851685,0.036895498633384705,0.0745701864361763,9.565132141113281,-0.3410634398460388,-3.021566390991211
1413393887200760500,0.014893993735313416,0.023752449080348015,0.08308478444814682,9.082958221435547,-0.39756810665130615,-2.8995866775512695
1413393887205760500,0.02326802909374237,0.01953897438943386,0.07252945750951767,9.63095760345459,-0.2899799048900604,-2.9316632747650146
1413393887210760500,0.023986347019672394,0.015314524993300438,0.0738963782787323,9.231436729431152,0.208040252327919,-2.899442195892334
1413393887215760500,0.012281075119972229,0.02640107460319996,0.08378380537033081,9.550524711608887,0.4016079008579254,-3.119621753692627
1413393887220760500,-0.02068314701318741,0.029312388971447945,0.08370959758758545,9.271921157836914,0.27082711458206177,-3.0144481658935547
1413393887225760500,-0.027043476700782776,0.029457127675414085,0.08089247345924377,9.346245765686035,-0.0047572641633450985,-2.916185140609741
1413393887230760500,-0.020702771842479706,0.015361342579126358,0.0893590897321701,9.189874649047852,-0.21666625142097473,-2.7936933040618896
1413393887235760500,-0.003897354006767273,0.021505946293473244,0.08989812433719635,9.51640510559082,-0.3649281859397888,-3.095306873321533
1413393887240760500,0.012864083051681519,0.03345371037721634,0.08512724936008453,9.132068634033203,-0.36502423882484436,-2.867342948913574
1413393887245760500,0.019767239689826965,0.024532625451683998,0.07470208406448364,9.393819808959961,-0.32287633419036865,-2.7686564922332764
1413393887250760500,0.026008054614067078,0.015322159975767136,0.07456240057945251,9.140913009643555,-0.14253020286560059,-2.882835865020752
1413393887255760500,0.015699192881584167,0.011082068085670471,0.07811200618743896,9.264739990234375,0.35350173711776733,-3.1529741287231445
1413393887260760500,-0.0073552727699279785,0.03339431434869766,0.08521786332130432,9.199353218078613,0.4826122522354126,-2.892242431640625
1413393887265760500,-0.031222708523273468,0.019681619480252266,0.07672996819019318,9.460308074951172,0.1252889335155487,-2.9809584617614746
1413393887270760500,-0.030524618923664093,0.021025771275162697,0.07880628854036331,9.271685600280762,-0.3226372003555298,-2.9241836071014404
1413393887275760500,-0.017179980874061584,0.012529535219073296,0.07116354256868362,9.247038841247559,-0.3404442369937897,-3.0386996269226074
1413393887280760500,0.0009952709078788757,0.034741513431072235,0.0752849206328392,9.336549758911133,-0.36524683237075806,-2.8830976486206055
1413393887285760500,0.010054640471935272,0.015430191531777382,0.07535327970981598,9.450550079345703,-0.36311087012290955,-3.0542075634002686
1413393887290760500,0.02253785729408264,0.025832971557974815,0.071146659553051,9.508244514465332,-0.2493739277124405,-2.9238038063049316
1413393887295760500,0.021228380501270294,0.011129911988973618,0.07327617704868317,9.117239952087402,0.1653032898902893,-2.9891879558563232
1413393887300760500,0.009470149874687195,0.03544049710035324,0.08797814697027206,9.583587646484375,0.4998645484447479,-3.0378470420837402
1413393887305760500,-0.022765666246414185,0.024571077898144722,0.08996094763278961,9.206844329833984,0.2891411781311035,-2.990097999572754
1413393887310760500,-0.031231939792633057,0.01961228810250759,0.08783397078514099,9.55001163482666,-0.15249323844909668,-2.9896371364593506
1413393887315760500,-0.022110246121883392,0.026468759402632713,0.0851408988237381,9.116079330444336,-0.29929646849632263,-2.9648869037628174
1413393887320760500,-0.009467005729675293,0.022912507876753807,0.09337997436523438,9.639117240905762,-0.30758926272392273,-3.13588285446167
1413393887325760500,0.007965654134750366,0.02445892058312893,0.08027900010347366,9.107526779174805,-0.4290379285812378,-2.842766046524048
1413393887330760500,0.02537482976913452,0.018203431740403175,0.0795133113861084,9.573714256286621,-0.37143316864967346,-2.9966485500335693
1413393887335760500,0.02814628928899765,0.036913417279720306,0.06830130517482758,9.140727043151855,-0.029151953756809235,-2.8991408348083496
1413393887340760500,0.01642262190580368,0.020877143368124962,0.08994884788990021,9.477441787719727,0.532429039478302,-3.014082431793213
1413393887345760500,-0.01575198769569397,0.0398029088973999,0.07962494343519211,9.386768341064453,0.3123790919780731,-3.079338550567627
1413393887350760500,-0.03194969892501831,0.02806767262518406,0.07327494025230408,9.239895820617676,0.10182125866413116,-2.99796986579895
1413393887355760500,-0.02628418058156967,0.03195313364267349,0.08168975263834,9.091968536376953,-0.2740508019924164,-3.047173261642456
1413393887360760500,-0.014332875609397888,0.021668938919901848,0.0794624462723732,9.295950889587402,-0.22665885090827942,-3.0303637981414795
1413393887365760500,0.0023348629474639893,0.041181810200214386,0.08089368790388107,9.213845252990723,-0.43839752674102783,-2.8340725898742676
1413393887370760500,0.012082889676094055,0.019578630104660988,0.0782264769077301,9.319910049438477,-0.4284805357456207,-2.8668594360351562
1413393887375760500,0.030230581760406494,0.028497761115431786,0.07318250834941864,9.263208389282227,-0.14237596094608307,-2.874920606613159
1413393887380760500,0.017783179879188538,0.009736642241477966,0.07603225111961365,9.125506401062012,0.43416160345077515,-3.0143096446990967
1413393887385760500,-0.0010373890399932861,0.03341009467840195,0.0894218385219574,9.493416786193848,0.5069854259490967,-2.9894092082977295
1413393887390760500,-0.031906113028526306,0.01682133413851261,0.07944805920124054,9.345967292785645,0.15871040523052216,-3.063042640686035
1413393887395760500,-0.031238675117492676,0.02097276784479618,0.08230346441268921,9.37852954864502,-0.06926808506250381,-3.0060877799987793
1413393887400760500,-0.025492176413536072,0.006955401971936226,0.07747067511081696,9.352988243103027,-0.38249173760414124,-2.9482784271240234
1413393887405760500,-0.005247563123703003,0.0222382303327322,0.08424970507621765,9.679871559143066,-0.3167250156402588,-3.070436954498291
1413393887410760500,0.0044385939836502075,0.01951235719025135,0.07889331877231598,9.21379566192627,-0.46140995621681213,-2.8344509601593018
1413393887415760500,0.026013046503067017,0.01605834625661373,0.07323133945465088,9.557077407836914,-0.41149628162384033,-2.9805753231048584
1413393887420760500,0.029652372002601624,0.023026136681437492,0.07036511600017548,9.263562202453613,0.0273648202419281,-2.9808411598205566
1413393887425760500,0.01780422031879425,0.007612669840455055,0.09077580273151398,9.526786804199219,0.47483396530151367,-3.177032947540283
1413393887430760500,-0.0073585063219070435,0.03833521902561188,0.0851881206035614,9.354333877563477,0.312833696603775,-2.9977211952209473
1413393887435760500,-0.031247422099113464,0.018313167616724968,0.08297200500965118,9.305337905883789,0.004524782299995422,-3.054760456085205
1413393887440760500,-0.02770037204027176,0.028607750311493874,0.08234691619873047,9.222638130187988,-0.1366695612668991,-3.0305638313293457
1413393887445760500,-0.012979276478290558,0.014674481004476547,0.08990058302879333,9.279786109924316,-0.3820156157016754,-3.071197986602783
1413393887450760500,0.00587424635887146,0.037567056715488434,0.08579401671886444,9.37720775604248,-0.5022334456443787,-2.964702606201172
1413393887455760500,0.020464450120925903,0.01612076722085476,0.08240712434053421,9.172761917114258,-0.45203065872192383,-2.842228412628174
1413393887460760500,0.03445477783679962,0.02574019320309162,0.07595039904117584,9.401968955993652,-0.1771053969860077,-2.9969470500946045
1413393887465760500,0.02050614356994629,0.01888325624167919,0.07951812446117401,9.027451515197754,0.3282009959220886,-3.0141053199768066
1413393887470760500,-0.002471223473548889,0.02499372698366642,0.08380290120840073,9.37938117980957,0.5984721183776855,-2.989818572998047
1413393887475760500,-0.02766236662864685,0.025240560993552208,0.07950450479984283,9.239480018615723,0.15019334852695465,-2.9897122383117676
1413393887480760500,-0.03751349449157715,0.024471653625369072,0.07114343345165253,9.312820434570312,-0.11116233468055725,-3.0714032649993896
1413393887485760500,-0.02485564351081848,0.016008643433451653,0.0795501172542572,9.254931449890137,-0.3005406856536865,-2.9733195304870605
1413393887490760500,-0.005967751145362854,0.029968788847327232,0.07945653051137924,9.532599449157715,-0.3730686604976654,-2.94814395904541
1413393887495760500,0.012802168726921082,0.025801608338952065,0.07745268940925598,9.278761863708496,-0.509825587272644,-2.9320333003997803
1413393887500760500,0.030283689498901367,0.026520906016230583,0.07327360659837723,9.475214958190918,-0.3386346101760864,-2.9644315242767334
1413393887505760500,0.028926245868206024,0.022971777245402336,0.07317814975976944,9.30477523803711,0.11635737121105194,-3.013401746749878
1413393887510760500,0.012869492173194885,0.01807488314807415,0.08025072515010834,9.445094108581543,0.5324032306671143,-3.0222089290618896
1413393887515760500,-0.012963064014911652,0.03275420516729355,0.08940591663122177,9.427820205688477,0.38698551058769226,-2.973445177078247
1413393887520760500,-0.03535497188568115,0.027345573529601097,0.07739637792110443,9.436148643493652,0.14206793904304504,-3.1938085556030273
1413393887525760500,-0.027682051062583923,0.029314933344721794,0.0864488035440445,9.353233337402344,-0.2677934765815735,-2.9078869819641113
1413393887530760500,-0.01785166561603546,0.02370169572532177,0.07813552767038345,9.344971656799316,-0.3569248616695404,-3.1199915409088135
1413393887535760500,0.005134478211402893,0.03900974988937378,0.08157389611005783,9.22220516204834,-0.46933266520500183,-2.818058490753174
1413393887540760500,0.02327422797679901,0.02234536223113537,0.08166168630123138,9.352580070495605,-0.4202154576778412,-2.997061014175415
1413393887545760500,0.035169199109077454,0.02994857169687748,0.07671349495649338,9.385958671569824,-0.08681638538837433,-2.8421483039855957
1413393887550760500,0.017759039998054504,0.014663033187389374,0.0836905688047409,9.019913673400879,0.5649130344390869,-3.055001974105835
1413393887555760500,-0.010154373943805695,0.03617367148399353,0.09220140427350998,9.559215545654297,0.5818890333175659,-3.063056230545044
1413393887560760500,-0.041679129004478455,0.028048133477568626,0.08507048338651657,9.182284355163574,0.2323247641324997,-3.0795397758483887
1413393887565760500,-0.03329911828041077,0.03493950515985489,0.08292869478464127,9.524922370910645,-0.4301651418209076,-2.9728758335113525
1413393887570760500,-0.019184589385986328,0.023047206923365593,0.0690690279006958,9.197047233581543,-0.5454102158546448,-2.8097314834594727
1413393887575760500,0.006557941436767578,0.029180290177464485,0.07457434386014938,9.263322830200195,-0.5684345364570618,-2.9891676902770996
1413393887580760500,0.021205872297286987,0.020905902609229088,0.06985121965408325,9.287124633789062,-0.28135883808135986,-3.062769651412964
1413393887585760500,0.026746191084384918,0.00908023864030838,0.07539865374565125,9.526094436645508,0.31392139196395874,-3.405386447906494
1413393887590760500,0.002412274479866028,0.0383942574262619,0.07042980939149857,9.575104713439941,0.4254986345767975,-3.0952367782592773
1413393887595760500,-0.028308764100074768,0.029323263093829155,0.06697304546833038,9.616011619567871,0.41102439165115356,-3.1357758045196533
1413393887600760500,-0.03532988578081131,0.04190502315759659,0.059870004653930664,10.006477355957031,-0.5104448795318604,-3.3799853324890137
1413393887605760500,-0.009507551789283752,0.021013038232922554,0.06758970022201538,9.499686241149902,-0.6418039798736572,-2.8172879219055176
1413393887610760500,0.015110276639461517,0.051479771733284,0.08376088738441467,9.345124244689941,-0.28362491726875305,-3.1610984802246094
1413393887615760500,0.0324501097202301,0.0579337403178215,0.12426888197660446,8.936379432678223,0.017795603722333908,-2.8267972469329834
1413393887620760500,0.02245277166366577,0.036370374262332916,0.15284422039985657,8.986116409301758,-0.028514452278614044,-2.9495041370391846
1413393887625760500,0.022424951195716858,0.05945438891649246,0.14293396472930908,9.426531791687012,-0.2382405698299408,-2.9486896991729736
1413393887630760500,0.015597686171531677,0.032645344734191895,0.11856518685817719,8.871858596801758,-0.05267220363020897,-2.793386220932007
1413393887635760500,0.0003174692392349243,0.024969423189759254,0.10876035690307617,9.133599281311035,0.4831143021583557,-3.0556461811065674
1413393887640760500,-0.04033201187849045,0.05174735188484192,0.08147405833005905,9.067012786865234,0.20447371900081635,-2.671769380569458
1413393887645760500,-0.05231812596321106,0.03432205319404602,0.05304557830095291,9.173563957214355,-0.4871034622192383,-2.9567718505859375
1413393887650760500,-0.0207330621778965,0.03210341930389404,0.0238395556807518,9.017668724060059,-1.074389934539795,-2.712249517440796
1413393887655760500,0.015031278133392334,0.011871999129652977,0.032103803008794785,8.63429069519043,-0.29900944232940674,-2.647073745727539
1413393887660760500,0.03047899901866913,0.04957680404186249,0.05026397481560707,9.459854125976562,-0.0389275848865509,-3.0217885971069336
1413393887665760500,0.010604232549667358,0.036296479403972626,0.05527156591415405,8.511397361755371,0.18194429576396942,-2.6306557655334473
1413393887670760500,0.011948399245738983,3.6891549825668335e-05,0.06842242181301117,9.49317741394043,0.03526584804058075,-3.2097814083099365
1413393887675760500,-0.0010686218738555908,0.03355637937784195,0.06985955685377121,9.386882781982422,0.4585738778114319,-2.7691397666931152
1413393887680760500,-0.009316936135292053,0.004668867215514183,0.1341235637664795,9.166872024536133,0.5504840016365051,-3.120737314224243
1413393887685760500,-0.03946644812822342,0.03419824689626694,0.10952774435281754,9.541088104248047,-0.16860178112983704,-2.8349859714508057
1413393887690760500,-0.020273707807064056,-0.014519112184643745,0.10857333242893219,9.394323348999023,-0.6260737180709839,-2.972266435623169
1413393887695760500,-0.00042641162872314453,0.004796188324689865,0.07232344150543213,10.185850143432617,-0.3995080292224884,-3.0618624687194824
1413393887700760500,0.009452588856220245,-0.007146651856601238,0.10792196542024612,9.517535209655762,0.23979930579662323,-3.087327480316162
1413393887705760500,-0.007918506860733032,0.04313845932483673,0.06762903183698654,9.98311996459961,-0.4951910376548767,-3.2901134490966797
1413393887710760500,0.011330090463161469,0.008713971823453903,0.06928525120019913,8.919676780700684,-0.30635982751846313,-2.2714083194732666
1413393887715760500,0.02539561688899994,0.007557393983006477,0.05280086025595665,10.350093841552734,-0.43924909830093384,-3.4276576042175293
1413393887720760500,0.020624831318855286,0.03622493892908096,0.06673568487167358,8.889404296875,0.8270389437675476,-2.8272602558135986
1413393887725760500,0.0011664554476737976,0.03200472146272659,0.09577982872724533,9.526684761047363,0.45193588733673096,-3.299739360809326
1413393887730760500,-0.022238917648792267,0.07778862863779068,0.07826811820268631,8.698542594909668,-0.036155108362436295,-2.459789752960205
1413393887735760500,-0.011030465364456177,0.0002463553100824356,0.09544157981872559,9.011399269104004,0.019869176670908928,-3.0056190490722656
1413393887740760500,-0.01436597853899002,0.045050933957099915,0.07617010921239853,9.369710922241211,-0.2269696444272995,-3.2838990688323975
1413393887745760500,-0.009597167372703552,0.026507189497351646,0.10894608497619629,8.666712760925293,-0.09374766051769257,-2.9164154529571533
1413393887750760500,-0.015279635787010193,0.060083918273448944,0.08519069105386734,9.033927917480469,-0.6630216240882874,-2.891488790512085
1413393887755760500,0.00015244632959365845,0.015732234343886375,0.07952161133289337,8.567917823791504,-0.2423081248998642,-2.638533592224121
1413393887760760500,0.01989157497882843,-0.00448664091527462,0.055592287331819534,9.746125221252441,-0.4583635926246643,-3.396496057510376
1413393887765760500,0.019233614206314087,0.015225153416395187,0.06344453990459442,9.092534065246582,0.34437477588653564,-2.949540138244629
1413393887770760500,0.005241028964519501,0.020774343982338905,0.07683864235877991,9.843697547912598,0.07118825614452362,-3.559955596923828
1413393887775760500,-0.0172480046749115,0.04790325462818146,0.04331231862306595,8.575969696044922,0.12694938480854034,-2.3462255001068115
1413393887780760500,-0.01087033748626709,-0.020932620391249657,0.07596039772033691,9.485007286071777,-0.13978181779384613,-2.9965200424194336
1413393887785760500,-0.018551290035247803,0.011518126353621483,0.04944295808672905,10.05432415008545,-0.24313944578170776,-3.2822229862213135
1413393887790760500,-0.003234773874282837,0.004772676154971123,0.09907424449920654,9.313131332397461,0.12087178230285645,-2.8112306594848633
1413393887795760500,-0.013695992529392242,0.04672636836767197,0.09013141691684723,9.981038093566895,-0.2626939117908478,-3.0953431129455566
1413393887800760500,-0.014578595757484436,0.017177825793623924,0.08357611298561096,8.797642707824707,-0.2370813637971878,-2.7191803455352783
1413393887805760500,0.012848660349845886,0.00395272858440876,0.09048023074865341,10.251917839050293,-0.6370832324028015,-3.2815287113189697
1413393887810760500,0.021243438124656677,0.03409932553768158,0.09990361332893372,9.002596855163574,0.06327510625123978,-2.802949905395508
1413393887815760500,0.021432317793369293,0.03549211472272873,0.11150684207677841,9.730781555175781,0.3557472825050354,-3.209047555923462
1413393887820760500,-0.006675899028778076,0.05402667820453644,0.08728311210870743,9.075338363647461,-0.04285787418484688,-2.647142171859741
1413393887825760500,-0.007576942443847656,0.013317331671714783,0.08435411751270294,9.231992721557617,-0.024695951491594315,-3.01369309425354
1413393887830760500,-0.0005369335412979126,0.0291000884026289,0.07513656467199326,9.639847755432129,-0.2459585815668106,-3.144376277923584
1413393887835760500,0.0003887191414833069,0.037709206342697144,0.08108232915401459,8.618064880371094,0.1701185256242752,-2.852346181869507
1413393887840760500,-0.008721008896827698,0.031432077288627625,0.09013912081718445,9.164815902709961,0.23152020573616028,-2.9171080589294434
1413393887845760500,-0.021672748029232025,0.033058762550354004,0.06689420342445374,8.781328201293945,-0.1650731861591339,-2.687074899673462
1413393887850760500,-0.011797621846199036,-0.007917243055999279,0.07191125303506851,9.035536766052246,-0.1582731157541275,-3.038038730621338
1413393887855760500,0.005886450409889221,0.013161823153495789,0.0747760459780693,9.32868766784668,-0.2397112101316452,-3.129016160964966
1413393887860760500,0.01023990660905838,0.0042500365525484085,0.0774114727973938,8.781027793884277,0.05984438955783844,-2.737046241760254
1413393887865760500,0.007368743419647217,0.01336526870727539,0.07050017267465591,9.76911735534668,0.10559047013521194,-3.0784380435943604
1413393887870760500,-0.00475841760635376,0.004947995766997337,0.0635065883398056,8.944869041442871,0.03313159942626953,-2.7603235244750977
1413393887875760500,-0.009554162621498108,-0.011351359076797962,0.0780649185180664,9.574982643127441,0.011642205528914928,-3.2834248542785645
1413393887880760500,-0.008698686957359314,0.030063970014452934,0.0879831463098526,9.646468162536621,-0.13436391949653625,-3.1360161304473877
1413393887885760500,-0.0058953166007995605,0.010438257828354836,0.08375656604766846,9.157316207885742,-0.2970486283302307,-3.0136563777923584
1413393887890760500,-0.005320198833942413,0.01537260226905346,0.07726255804300308,10.015144348144531,-0.09623752534389496,-2.9803106784820557
1413393887895760500,-0.004082769155502319,0.019521718844771385,0.0766516700387001,9.410562515258789,-0.12894439697265625,-2.8822832107543945
1413393887900760500,-0.011635832488536835,0.015937218442559242,0.07395876199007034,9.713153839111328,-0.11152329295873642,-3.1529500484466553
1413393887905760500,-0.004598185420036316,0.03145551681518555,0.0844360738992691,9.68718147277832,-0.3371032476425171,-3.0379252433776855
1413393887910760500,0.012261182069778442,0.024428190663456917,0.09071103483438492,9.141870498657227,-0.3554794192314148,-2.9233858585357666
1413393887915760500,0.01362030953168869,0.02374122105538845,0.07309752702713013,9.59881591796875,0.07436472922563553,-2.9968507289886475
1413393887920760500,0.0036659613251686096,0.025720128789544106,0.07887735962867737,9.035908699035645,0.10677274316549301,-2.802072763442993
1413393887925760500,-0.009574398398399353,0.013315988704562187,0.08516545593738556,9.541866302490234,0.06897018104791641,-3.1531574726104736
1413393887930760500,-0.010928124189376831,0.050345711410045624,0.09546641260385513,9.663432121276855,0.046752821654081345,-3.1357786655426025
1413393887935760500,-0.004547387361526489,0.04052148759365082,0.10136015713214874,8.512277603149414,-0.1928139179944992,-2.8917253017425537
1413393887940760500,0.0010514482855796814,0.02304370515048504,0.08783894777297974,9.458779335021973,-0.2757018208503723,-2.899244546890259
1413393887945760500,0.00914648175239563,0.05097975581884384,0.08224581182003021,9.042365074157715,-0.07764273136854172,-2.8426551818847656
1413393887950760500,0.005697101354598999,0.0062459539622068405,0.08670054376125336,8.716484069824219,0.05225827917456627,-2.8280107975006104
1413393887955760500,-0.008045703172683716,0.027073388919234276,0.0717460885643959,9.64702033996582,0.10116805881261826,-3.209764242172241
1413393887960760500,-0.006675325334072113,0.040568411350250244,0.08017575740814209,8.969791412353516,0.04279055446386337,-2.9969496726989746
1413393887965760500,0.0030872225761413574,0.0028594695031642914,0.07970397174358368,8.952438354492188,-0.20988047122955322,-2.8187248706817627
1413393887970760500,-0.00042259693145751953,0.02298153005540371,0.05574480816721916,9.516851425170898,0.15072739124298096,-2.9401206970214844
1413393887975760500,-0.0011714547872543335,0.00906343199312687,0.06991995871067047,8.830660820007324,0.1575753092765808,-2.721010446548462
1413393887980760500,-0.015056386590003967,0.005460979416966438,0.06348715722560883,9.981067657470703,0.04159696772694588,-3.201268196105957
1413393887985760500,-0.01933220773935318,0.04810488969087601,0.06599581241607666,9.639325141906738,-0.08640512824058533,-2.849403142929077
1413393887990760500,-0.010832659900188446,0.00647558830678463,0.08246660232543945,9.329254150390625,-0.49420034885406494,-2.834043025970459
1413393887995760500,0.0003203451633453369,0.029864026233553886,0.08014624565839767,10.00529956817627,-0.5928597450256348,-2.988093376159668
1413393888000760500,0.010676473379135132,0.03902707248926163,0.07459756731987,9.19062614440918,0.14177733659744263,-2.973160982131958
1413393888005760500,0.01635691523551941,0.004874877631664276,0.08812026679515839,9.264801025390625,0.20485924184322357,-2.9250130653381348
1413393888010760500,0.007312074303627014,0.017293354496359825,0.09046387672424316,9.835466384887695,0.0760922059416771,-3.1264705657958984
1413393888015760500,-0.011623986065387726,0.03157174587249756,0.08634699881076813,9.362893104553223,0.10169369727373123,-3.0789382457733154
1413393888020760500,-0.010171130299568176,0.0055641233921051025,0.10209724307060242,9.460359573364258,-0.25893402099609375,-2.9489805698394775
1413393888025760500,0.00020872056484222412,0.023599980399012566,0.08915911614894867,9.434252738952637,-0.5595211386680603,-2.9803426265716553
1413393888030760500,0.0016108229756355286,0.013507576659321785,0.0710717961192131,9.002031326293945,-0.12685710191726685,-2.6963841915130615
1413393888035760500,0.010096348822116852,0.002580380067229271,0.08388213813304901,9.321429252624512,0.16449777781963348,-3.038524627685547
1413393888040760500,-0.0018649622797966003,0.019439054653048515,0.08142239600419998,9.222898483276367,0.18155746161937714,-2.9157791137695312
1413393888045760500,-0.014521896839141846,0.012819567695260048,0.07320809364318848,9.068483352661133,-0.03583909571170807,-3.0142452716827393
1413393888050760500,-0.014362707734107971,0.025737358257174492,0.07983435690402985,9.459311485290527,-0.09423331916332245,-3.0139524936676025
1413393888055760500,-0.0018351301550865173,0.036417946219444275,0.077387236058712,8.96049690246582,-0.3072037398815155,-2.907553195953369
1413393888060760500,0.00935952365398407,0.015381624922156334,0.06965398788452148,9.25511646270752,-0.19379937648773193,-2.8913588523864746
1413393888065760500,0.01149711012840271,0.0208244901150465,0.07901614904403687,9.132007598876953,0.10026835650205612,-2.8914458751678467
1413393888070760500,0.007967643439769745,0.011876970529556274,0.08569587022066116,9.312759399414062,0.13238373398780823,-3.04687237739563
1413393888075760500,-0.009578093886375427,0.014567896723747253,0.07737524807453156,9.615335464477539,0.19224776327610016,-3.218050241470337
1413393888080760500,-0.0234668031334877,0.03701826184988022,0.08047112077474594,9.508628845214844,0.06929006427526474,-3.136235475540161
1413393888085760500,-0.014391273260116577,0.028127571567893028,0.08158126473426819,9.165724754333496,-0.3563080430030823,-3.0711417198181152
1413393888090760500,0.0016754940152168274,0.02499702386558056,0.07580915838479996,9.56515121459961,-0.2901964783668518,-3.0050461292266846
1413393888095760500,0.01287061721086502,0.022223742678761482,0.07755007594823837,9.132452011108398,-0.07048354297876358,-2.9240927696228027
1413393888100760500,0.01429874449968338,0.016656672582030296,0.08229753375053406,9.574734687805176,0.025108635425567627,-3.1281964778900146
1413393888105760500,0.0044149309396743774,0.020836738869547844,0.07877601683139801,9.590153694152832,0.13369157910346985,-3.135946750640869
1413393888110760500,-0.015096038579940796,0.04343800991773605,0.06783771514892578,9.680741310119629,0.27401474118232727,-3.226173162460327
1413393888115760500,-0.017835170030593872,0.05037003755569458,0.08093856275081635,9.190275192260742,-0.15125952661037445,-2.793766975402832
1413393888120760500,-0.005299560725688934,0.02432691864669323,0.0890633836388588,9.426240921020508,-0.44677600264549255,-2.8498952388763428
1413393888125760500,0.007208049297332764,0.03135572373867035,0.08790978044271469,9.116307258605957,-0.18464846909046173,-2.8179614543914795
1413393888130760500,0.012190848588943481,0.01794387958943844,0.09150682389736176,9.451977729797363,0.0431196354329586,-2.981342315673828
1413393888135760500,0.010701090097427368,0.025032488629221916,0.08648243546485901,9.426852226257324,-0.021659959107637405,-3.0708999633789062
1413393888140760500,-0.015168480575084686,0.028832485899329185,0.0732186883687973,9.558667182922363,0.2812212407588959,-3.1690924167633057
1413393888145760500,-0.02421388030052185,0.05317182093858719,0.07193624973297119,9.198423385620117,-0.03712015599012375,-2.8347678184509277
1413393888150760500,-0.009449280798435211,0.03628494590520859,0.0794699490070343,8.968623161315918,-0.4697731137275696,-2.8425419330596924
1413393888155760500,0.00932835042476654,0.018008554354310036,0.08156147599220276,9.067217826843262,-0.413659930229187,-2.8177008628845215
1413393888160760500,0.018451020121574402,0.022959673777222633,0.07901595532894135,9.06754207611084,0.01692810468375683,-2.7940990924835205
1413393888165760500,0.013541489839553833,0.017313098534941673,0.08099576085805893,9.362024307250977,0.010496589355170727,-3.1284327507019043
1413393888170760500,0.0001583695411682129,0.011906227096915245,0.07107257843017578,9.223443031311035,0.3632473647594452,-2.908629894256592
1413393888175760500,-0.021394386887550354,0.0267303716391325,0.07257136702537537,9.541857719421387,0.3131600022315979,-3.063323497772217
1413393888180760500,-0.034576304256916046,0.04122786968946457,0.0753856897354126,9.083270072937012,-0.28307342529296875,-2.7692973613739014
1413393888185760500,-0.013059563934803009,0.0054517872631549835,0.0906149372458458,9.230257034301758,-0.7309122681617737,-2.8742058277130127
1413393888190760500,0.015632525086402893,0.013854444026947021,0.08587852120399475,9.499898910522461,-0.20165163278579712,-2.9888975620269775
1413393888195760500,0.021283216774463654,0.013243021443486214,0.09144659340381622,9.329944610595703,0.049464333802461624,-2.9405930042266846
1413393888200760500,0.009389661252498627,-0.0008579827845096588,0.07383719831705093,9.696667671203613,0.11638051271438599,-3.1037325859069824
1413393888205760500,-0.007475435733795166,0.004327550530433655,0.062004782259464264,9.754609107971191,0.33922338485717773,-3.2256696224212646
1413393888210760500,-0.022801317274570465,0.04204719513654709,0.06356129795312881,9.517379760742188,0.10898949950933456,-3.0871269702911377
1413393888215760500,-0.019872158765792847,0.021618636325001717,0.085183285176754,8.969101905822754,-0.3636843264102936,-2.940397262573242
1413393888220760500,-0.00035563111305236816,0.008258217945694923,0.0850653350353241,9.459245681762695,-0.5523306131362915,-2.9309418201446533
1413393888225760500,0.0176398903131485,0.020944243296980858,0.09634720534086227,9.320942878723145,-0.15313580632209778,-2.9976751804351807
1413393888230760500,0.01632910966873169,0.017268480733036995,0.08785055577754974,9.452231407165527,0.13248127698898315,-3.2268075942993164
1413393888235760500,0.004472158849239349,0.013271471485495567,0.07657883316278458,9.468392372131348,0.26527783274650574,-3.079133987426758
1413393888240760500,-0.017241157591342926,0.015626227483153343,0.07123509794473648,9.73781681060791,0.24848686158657074,-3.290843963623047
1413393888245760500,-0.02769901603460312,0.05310094356536865,0.0789312943816185,9.017916679382324,-0.2246401160955429,-2.842458724975586
1413393888250760500,-0.005245566368103027,0.030624238774180412,0.09274545311927795,9.091598510742188,-0.6002731919288635,-2.8745627403259277
1413393888255760500,0.019149988889694214,0.019499296322464943,0.09845254570245743,9.165020942687988,-0.3240726888179779,-2.7770583629608154
1413393888260760500,0.02680075913667679,0.02369585447013378,0.08925572037696838,9.30438232421875,-0.02393469028174877,-2.99802827835083
1413393888265760500,0.014925315976142883,0.02351372502744198,0.07870197296142578,9.37022590637207,0.248205304145813,-3.1369524002075195
1413393888270760500,-0.013799801468849182,0.018893374130129814,0.04880687966942787,9.47664737701416,0.24926914274692535,-3.103485584259033
1413393888275760500,-0.022818975150585175,0.03792785108089447,0.055173832923173904,9.344977378845215,0.18275214731693268,-3.054598808288574
1413393888280760500,-0.02266015112400055,0.049688927829265594,0.06293860822916031,8.993317604064941,-0.2255471795797348,-2.671574354171753
1413393888285760500,-0.0074147433042526245,0.022117404267191887,0.0907725840806961,8.985291481018066,-0.5108654499053955,-2.6790871620178223
1413393888290760500,0.008618727326393127,0.010332368314266205,0.09909231215715408,9.459906578063965,0.20613446831703186,-3.0306637287139893
1413393888295760500,0.003710716962814331,0.02089405618607998,0.0871160626411438,9.240158081054688,0.2773635983467102,-2.9170475006103516
1413393888300760500,-0.013040140271186829,0.012417443096637726,0.07102538645267487,9.614795684814453,-0.0945059284567833,-3.316030979156494
1413393888305760500,-0.010916158556938171,0.01685955934226513,0.07815294712781906,9.631035804748535,-0.09173654764890671,-3.0213682651519775
1413393888310760500,0.0031418949365615845,0.04210243374109268,0.07108522951602936,9.703730583190918,-0.6992384791374207,-3.020465850830078
1413393888315760500,0.03321240097284317,0.04533572494983673,0.09987114369869232,9.16439437866211,-0.5528286695480347,-2.735921859741211
1413393888320760500,0.05206882953643799,0.00744643434882164,0.11450792849063873,9.353891372680664,-0.0953347235918045,-2.9724514484405518
1413393888325760500,0.02051118016242981,0.03131316602230072,0.0939977616071701,9.755509376525879,0.68643718957901,-3.2100093364715576
1413393888330760500,-0.034088462591171265,0.02361377142369747,0.065507672727108,9.274224281311035,0.8920579552650452,-3.137892484664917
1413393888335760500,-0.052186377346515656,0.02439802698791027,0.06419558078050613,9.379152297973633,0.1509542465209961,-3.1124582290649414
1413393888340760500,-0.0563485249876976,0.04283857345581055,0.04865486919879913,9.352473258972168,-0.4772890508174896,-2.7032625675201416
1413393888345760500,-0.018588729202747345,0.009206848219037056,0.0798131674528122,8.944233894348145,-0.7478379011154175,-2.882826566696167
1413393888350760500,0.03812491148710251,0.016475936397910118,0.11538058519363403,9.311456680297852,-0.39804741740226746,-2.899177074432373
1413393888355760500,0.0456102192401886,0.01032162830233574,0.10930756479501724,9.329277992248535,0.2784574627876282,-3.1114509105682373
1413393888360760500,0.014243289828300476,0.02373131550848484,0.086481474339962,9.533980369567871,0.44119569659233093,-3.1040945053100586
1413393888365760500,-0.0108213871717453,0.028729809448122978,0.07177311927080154,9.647490501403809,-0.043596502393484116,-3.2254889011383057
1413393888370760500,-0.012316867709159851,0.04759174585342407,0.050601162016391754,9.541622161865234,-0.2957229018211365,-2.866105079650879
1413393888375760500,0.011539369821548462,0.04057072103023529,0.08195461332798004,8.920108795166016,-0.02195757068693638,-2.720215320587158
1413393888380760500,0.006126701831817627,0.03478951007127762,0.0812988132238388,9.263792991638184,0.3679194152355194,-3.201889753341675
1413393888385760500,-0.03417150676250458,0.051672182977199554,0.06961317360401154,9.198719024658203,0.4423384666442871,-3.080134153366089
1413393888390760500,-0.05524689704179764,0.02984304539859295,0.07259275764226913,9.346060752868652,0.16651973128318787,-3.1540279388427734
1413393888395760500,-0.05074087530374527,0.04400017112493515,0.060404714196920395,9.311810493469238,-0.8619117736816406,-2.6465210914611816
1413393888400760500,-0.0052365511655807495,0.030894333496689796,0.0765519067645073,8.624627113342285,-0.8503855466842651,-2.622323989868164
1413393888405760500,0.04650992900133133,-0.0015754038468003273,0.09173668175935745,9.270454406738281,-0.6826978325843811,-2.9314026832580566
1413393888410760500,0.051956623792648315,-0.0007815249264240265,0.07626673579216003,9.287978172302246,0.07224902510643005,-2.9475502967834473
1413393888415760500,0.03653419017791748,0.001991128548979759,0.0726572647690773,9.591492652893066,0.2519459128379822,-3.054147720336914
1413393888420760500,0.005336113274097443,0.0035132355988025665,0.08516724407672882,9.63241195678711,0.5089143514633179,-2.932075262069702
1413393888425760500,-0.01634421944618225,0.017539693042635918,0.0958016961812973,9.339141845703125,0.46174320578575134,-2.834839105606079
1413393888430760500,-0.046506963670253754,0.005681751295924187,0.08630886673927307,9.077163696289062,0.5175400376319885,-2.9504051208496094
1413393888435760500,-0.06347661465406418,0.00894073210656643,0.07618813961744308,9.76136589050293,-0.34939152002334595,-3.1193912029266357
1413393888440760500,-0.05380421131849289,0.018823882564902306,0.051087841391563416,9.1485595703125,-0.6020044684410095,-2.859257698059082
1413393888445760500,0.006514988839626312,0.014019258320331573,0.08941376954317093,9.597859382629395,-0.8950499296188354,-2.980273962020874
1413393888450760500,0.043146319687366486,0.038416989147663116,0.09066302329301834,9.254720687866211,-0.1103551834821701,-2.95654296875
1413393888455760500,0.05555714666843414,0.030786024406552315,0.1070205345749855,9.24027156829834,0.2068072408437729,-3.039048671722412
1413393888460760500,0.023948445916175842,0.04464496672153473,0.06002103164792061,9.197999954223633,0.15713028609752655,-3.087144136428833
1413393888465760500,0.010559804737567902,0.015319308266043663,0.08247342705726624,9.403648376464844,0.3796531856060028,-3.1436736583709717
1413393888470760500,0.0032390952110290527,0.029300136491656303,0.08875750005245209,9.444511413574219,0.1902020126581192,-3.029897928237915
1413393888475760500,-0.021753378212451935,0.028588885441422462,0.09217898547649384,8.635172843933105,0.49234262108802795,-2.8848748207092285
1413393888480760500,-0.04859349876642227,0.0069514550268650055,0.08921607583761215,9.370591163635254,-0.015480056405067444,-3.1044909954071045
1413393888485760500,-0.05889487266540527,0.008510079234838486,0.05628933012485504,9.230359077453613,-0.5108647346496582,-3.103933334350586
1413393888490760500,-0.004233568906784058,-0.0015984084457159042,0.08224251866340637,9.56445026397705,-0.6564401984214783,-2.8743131160736084
1413393888495760500,0.022787898778915405,0.012442799285054207,0.08029291033744812,9.980923652648926,-0.582068145275116,-3.3218555450439453
1413393888500760500,0.030597105622291565,0.05314037203788757,0.07735667377710342,8.879375457763672,0.05160894989967346,-2.6304309368133545
1413393888505760500,0.013603344559669495,0.023174816742539406,0.06968336552381516,9.654982566833496,-0.08092138916254044,-3.209641456604004
1413393888510760500,0.00843706727027893,0.04258839040994644,0.07747948169708252,9.607070922851562,-0.04111761972308159,-3.1353442668914795
1413393888515760500,0.02834092080593109,0.02985636703670025,0.11171320825815201,9.567098617553711,0.2162562608718872,-3.03812575340271
1413393888520760500,0.00338687002658844,0.09077096730470657,0.10341425240039825,9.264163970947266,0.47038525342941284,-3.1941442489624023
1413393888525760500,-0.029754266142845154,0.05534268915653229,0.09966550022363663,8.724553108215332,0.2572691738605499,-2.590886116027832
1413393888530760500,-0.05385855585336685,0.030826380476355553,0.061148181557655334,9.459842681884766,-0.260057657957077,-3.40640926361084
1413393888535760500,-0.023747943341732025,0.057050466537475586,0.07117557525634766,9.188800811767578,-0.5031257271766663,-2.7615013122558594
1413393888540760500,0.013558313250541687,0.027548229321837425,0.08535879850387573,9.108473777770996,-0.6389486193656921,-2.9888558387756348
1413393888545760500,0.026952728629112244,0.04335848242044449,0.07681436836719513,8.600529670715332,-0.20730483531951904,-2.5410873889923096
1413393888550760500,0.01763269305229187,-0.0060866642743349075,0.05369473248720169,8.650788307189941,-0.1788790225982666,-2.5567846298217773
1413393888555760500,0.018201351165771484,-0.011337902396917343,0.05644376203417778,9.901455879211426,0.14609724283218384,-3.3401739597320557
1413393888560760500,0.016481585800647736,0.025664282962679863,0.07323877513408661,9.510205268859863,0.6067498922348022,-3.160691499710083
1413393888565760500,-0.0014951154589653015,0.03363378345966339,0.10970500111579895,9.149602890014648,0.4354093670845032,-2.647487163543701
1413393888570760500,-0.035841554403305054,0.04363331198692322,0.08238381147384644,9.091275215148926,-0.02112504653632641,-2.663259983062744
1413393888575760500,-0.0320877879858017,-0.005071584135293961,0.07237417250871658,9.44339370727539,-0.37368252873420715,-2.915297508239746
1413393888580760500,-0.0062408447265625,0.024898899719119072,0.0816161036491394,9.817953109741211,-0.46292102336883545,-3.1451046466827393
1413393888585760500,0.00868290662765503,0.0193661917001009,0.1088346466422081,9.590414047241211,-0.0528470054268837,-2.785619020462036
1413393888590760500,0.008069589734077454,0.03161271661520004,0.09755880385637283,9.638876914978027,-0.1670323759317398,-3.0045857429504395
1413393888595760500,-0.0025949478149414062,0.027439957484602928,0.06338095664978027,9.434412002563477,-0.5201987028121948,-2.629672050476074
1413393888600760500,0.013410821557044983,0.02628517337143421,0.04940250888466835,9.640473365783691,-0.37374347448349,-3.151658296585083
1413393888605760500,0.028324998915195465,0.011822188273072243,0.06773489713668823,9.664715766906738,0.0001971423625946045,-2.6300888061523438
1413393888610760500,0.010245665907859802,0.026465216651558876,0.07829733937978745,9.614827156066895,-0.006563526578247547,-2.7601633071899414
1413393888615760500,-0.012268416583538055,0.05589977651834488,0.07113249599933624,9.068291664123535,0.09277907013893127,-2.573749303817749
1413393888620760500,-0.01801108568906784,0.014024730771780014,0.08708085119724274,9.167205810546875,0.0435931421816349,-3.144338607788086
1413393888625760500,-0.007553704082965851,0.024491576477885246,0.11441773176193237,9.55095386505127,0.27219900488853455,-3.3410863876342773
1413393888630760500,-0.01864127814769745,0.026622695848345757,0.11593325436115265,9.312260627746582,-0.08426255732774734,-3.1043453216552734
1413393888635760500,-0.020689569413661957,0.038885556161403656,0.08176431804895401,9.099739074707031,-0.29689350724220276,-2.9398579597473145
1413393888640760500,0.015517890453338623,0.0007402114570140839,0.08148150146007538,8.984997749328613,-0.5445094108581543,-2.7512571811676025
1413393888645760500,0.03452938795089722,0.009138878434896469,0.08625902235507965,9.574085235595703,0.066041961312294,-3.1526083946228027
1413393888650760500,0.009484916925430298,0.031393155455589294,0.07616918534040451,9.28836441040039,0.24664992094039917,-2.9908950328826904
1413393888655760500,-0.017170939594507217,0.06278489530086517,0.05188440531492233,9.385419845581055,-0.012451219372451305,-3.242462396621704
1413393888660760500,0.0022214725613594055,0.0037863627076148987,0.0697716474533081,8.39677619934082,-0.028807610273361206,-2.3865301609039307
1413393888665760500,0.012304499745368958,0.02579480968415737,0.09812377393245697,9.762523651123047,0.40189310908317566,-3.1515614986419678
1413393888670760500,-0.019125640392303467,0.07102149724960327,0.06908506900072098,9.376975059509277,-0.19373735785484314,-3.0788681507110596
1413393888675760500,-0.0229741632938385,0.023638704791665077,0.08060727268457413,8.600980758666992,-0.615629255771637,-2.525728702545166
1413393888680760500,0.023701265454292297,0.016908129677176476,0.0962580069899559,9.49071979522705,-0.38551148772239685,-3.062028646469116
1413393888685760500,0.006637215614318848,0.01609601266682148,0.09746041893959045,9.232580184936523,0.5650790929794312,-3.13566255569458
1413393888690760500,-0.032367512583732605,0.040667250752449036,0.05451386421918869,9.631840705871582,-0.21162375807762146,-3.2020821571350098
1413393888695760500,-0.010356292128562927,-0.016754014417529106,0.05872905254364014,8.584893226623535,-0.5601078271865845,-2.4437286853790283
1413393888700760500,0.02518220990896225,0.024846205487847328,0.0645342692732811,9.851607322692871,-0.11671222746372223,-2.9794394969940186
1413393888705760500,0.006869509816169739,0.017440209165215492,0.0753994733095169,9.525757789611816,0.5145177245140076,-3.3974790573120117
1413393888710760500,-0.028016313910484314,0.02739338018000126,0.05474870651960373,9.0855131149292,-0.30385980010032654,-2.525261402130127
1413393888715760500,0.013177439570426941,-0.0011272421106696129,0.09048211574554443,9.744356155395508,-0.8305897116661072,-2.898081064224243
1413393888720760500,0.0335671603679657,0.012686101719737053,0.114311084151268,9.412091255187988,0.6615188121795654,-3.4227378368377686
1413393888725760500,-0.009776502847671509,0.0634097084403038,0.08439652621746063,9.9910306930542,0.2627774775028229,-2.9815382957458496
1413393888730760500,-0.029710717499256134,0.0312809944152832,0.09076859056949615,9.182570457458496,-0.7017282247543335,-3.0210704803466797
1413393888735760500,0.011651694774627686,0.04564771056175232,0.10328199714422226,8.847249031066895,0.09464454650878906,-2.4914867877960205
1413393888740760500,0.0030153244733810425,0.05820388346910477,0.10224515199661255,10.480162620544434,0.23457591235637665,-3.6671500205993652
1413393888745760500,-0.02311629056930542,0.0491524264216423,0.056872427463531494,8.397298812866211,-0.4147223234176636,-2.3875772953033447
1413393888750760500,0.0037939101457595825,0.014540709555149078,0.062316667288541794,8.732386589050293,-0.324930340051651,-2.671304941177368
1413393888755760500,0.03548174351453781,0.04229562729597092,0.1085343062877655,10.455920219421387,0.3705182671546936,-3.641094446182251
1413393888760760500,-0.010155409574508667,0.08115002512931824,0.060066502541303635,8.421710968017578,-0.04986416921019554,-2.558286190032959
1413393888765760500,-0.014693677425384521,-0.008781533688306808,0.035146575421094894,8.911513328552246,-0.521759569644928,-2.5981321334838867
1413393888770760500,0.014780893921852112,0.013469452038407326,0.0977533757686615,9.812722206115723,0.5389519929885864,-3.63197922706604
1413393888775760500,-0.008495062589645386,0.07894527167081833,0.07032594084739685,8.495569229125977,-0.27311745285987854,-2.7869012355804443
1413393888780760500,-0.03850939869880676,0.0178311076015234,0.0239223912358284,8.722264289855957,-0.5795075297355652,-2.5428810119628906
1413393888785760500,0.009402282536029816,0.012181725353002548,0.10575047880411148,9.88744831085205,0.40907880663871765,-3.476214647293091
1413393888790760500,0.011006109416484833,0.07295431196689606,0.11043945699930191,8.944169044494629,-0.29756322503089905,-2.778494358062744
1413393888795760500,-0.005881167948246002,0.010722648352384567,0.06346845626831055,8.803231239318848,-0.775221049785614,-2.380162239074707
1413393888800760500,0.01804497092962265,-0.0331355556845665,0.09705497324466705,8.9395112991333,0.5383821725845337,-2.995934009552002
1413393888805760500,0.011841371655464172,0.011605093255639076,0.11594350636005402,9.820500373840332,0.5306577682495117,-3.2508339881896973
1413393888810760500,-0.026386164128780365,0.013780085369944572,0.06228338181972504,9.563054084777832,-0.8581714034080505,-2.7455995082855225
1413393888815760500,-0.016907881945371628,-0.027539562433958054,0.051127512007951736,8.701403617858887,-0.20776593685150146,-2.8088550567626953
1413393888820760500,0.007893115282058716,0.012484626844525337,0.0923512876033783,10.335445404052734,0.43386849761009216,-3.469202756881714
1413393888825760500,-0.010294929146766663,0.03632647544145584,0.09921836853027344,9.702430725097656,-0.3883705735206604,-2.6633098125457764
1413393888830760500,-0.011325076222419739,-0.008848903700709343,0.049721360206604004,8.505097389221191,-0.3693060576915741,-2.867844820022583
1413393888835760500,0.030182279646396637,-0.001880698837339878,0.116377092897892,10.277742385864258,0.32481855154037476,-3.2802605628967285
1413393888840760500,0.002800069749355316,0.058934278786182404,0.1075480729341507,9.801161766052246,-0.1221846416592598,-3.348909854888916
1413393888845760500,-0.011929936707019806,0.022940775379538536,0.06264591962099075,7.980840682983398,-0.0693594291806221,-2.4299371242523193
1413393888850760500,0.016441524028778076,0.01193227432668209,0.11200326681137085,9.85335636138916,0.4124886393547058,-3.329669713973999
1413393888855760500,-0.002283945679664612,0.06656626611948013,0.09080812335014343,9.760664939880371,0.04213530942797661,-3.2091338634490967
1413393888860760500,-0.02675192430615425,0.03765368461608887,0.014830972999334335,7.72520637512207,-0.1991315633058548,-2.333132266998291
1413393888865760500,-0.0021791309118270874,-0.01693279668688774,0.08094332367181778,9.975423812866211,0.5016535520553589,-3.32987642288208
1413393888870760500,-0.008568711578845978,0.04420457035303116,0.08448020368814468,9.655823707580566,0.09815455228090286,-3.191527843475342
1413393888875760500,-0.02484596148133278,0.050284579396247864,0.03182079643011093,8.53458309173584,-0.46080145239830017,-2.3732213973999023
1413393888880760500,0.004243679344654083,-0.013418138027191162,0.08765202760696411,9.435236930847168,0.15311120450496674,-3.1272830963134766
1413393888885760500,0.022946566343307495,0.023255659267306328,0.11664309352636337,9.795007705688477,-0.29492396116256714,-3.173494815826416
1413393888890760500,-0.001945987343788147,0.04949074983596802,0.06082127243280411,8.680511474609375,-0.65931236743927,-2.217679500579834
1413393888895760500,0.005708873271942139,0.006004130467772484,0.08842720091342926,10.269179344177246,0.3921582102775574,-3.559615135192871
1413393888900760500,0.003549903631210327,0.037938088178634644,0.1181374117732048,9.723199844360352,0.11514954268932343,-3.1827709674835205
1413393888905760500,-0.037766680121421814,0.060885898768901825,0.04355819150805473,9.465801239013672,-0.7861088514328003,-3.0890467166900635
1413393888910760500,-0.030078835785388947,0.030479000881314278,0.038143932819366455,9.403424263000488,0.04876338317990303,-3.104088544845581
1413393888915760500,0.005758956074714661,0.013990376144647598,0.10537431389093399,9.070955276489258,-0.07705477625131607,-2.9057538509368896
1413393888920760500,-0.00709158182144165,0.0476064458489418,0.05587808042764664,9.91283893585205,-1.30012845993042,-3.029177665710449
1413393888925760500,-0.00018630176782608032,0.029893746599555016,0.0371500626206398,8.95455551147461,0.15098322927951813,-3.3167035579681396
1413393888930760500,0.037258148193359375,0.017463816329836845,0.1378653347492218,8.712554931640625,0.5159956216812134,-2.6960856914520264
1413393888935760500,0.009695164859294891,0.0272920373827219,0.09563028812408447,10.066905975341797,-0.8641742467880249,-2.782879114151001
1413393888940760500,-0.009295299649238586,0.03689722716808319,0.06188182160258293,9.444209098815918,0.29241397976875305,-2.957082748413086
1413393888945760500,0.03540857136249542,0.00902523659169674,0.15425395965576172,9.478811264038086,0.07250969111919403,-2.8672776222229004
1413393888950760500,-0.014757663011550903,0.023003676906228065,0.08169719576835632,9.56326675415039,-0.3341776728630066,-3.1839797496795654
1413393888955760500,-0.02900419384241104,0.04887085407972336,0.06570248305797577,9.003765106201172,0.8397030830383301,-2.844278335571289
1413393888960760500,0.003359667956829071,0.0036093611270189285,0.15663880109786987,10.05756664276123,-0.21265625953674316,-3.2663402557373047
1413393888965760500,-0.030951589345932007,0.0683361068367958,0.06762076914310455,9.817248344421387,-0.7901815176010132,-3.3547494411468506
1413393888970760500,-0.017232254147529602,0.08672298491001129,0.06775376200675964,8.659650802612305,0.32792216539382935,-2.6002089977264404
1413393888975760500,0.03699208050966263,0.04614297300577164,0.13373804092407227,9.555948257446289,-0.6785146594047546,-2.588740110397339
1413393888980760500,0.013123244047164917,0.056496888399124146,0.052246615290641785,9.203720092773438,-0.799160897731781,-2.9302847385406494
1413393888985760500,0.02109891176223755,0.049393780529499054,0.05669591203331947,8.95532512664795,0.5124367475509644,-2.6326324939727783
1413393888990760500,0.03919549286365509,0.025055522099137306,0.10315141081809998,10.03158187866211,0.01671723462641239,-3.266704559326172
1413393888995760500,-0.006351754069328308,0.08240074664354324,0.025058135390281677,8.92000675201416,0.5489373803138733,-3.1274640560150146
1413393889000760500,-0.017998874187469482,0.0387466624379158,0.09871936589479446,8.431514739990234,0.698451042175293,-2.494086265563965
1413393889005760500,-0.032883159816265106,0.03619684278964996,0.07288762181997299,9.983240127563477,0.03550110384821892,-3.5838820934295654
1413393889010760500,-0.055455587804317474,0.07610857486724854,0.043438367545604706,7.98803186416626,0.12622295320034027,-2.696558952331543
1413393889015760500,-0.019367866218090057,-0.012686440721154213,0.09978789836168289,8.747943878173828,-0.390746533870697,-2.453329563140869
1413393889020760500,-0.015475116670131683,0.02491387538611889,0.076481394469738,9.515074729919434,-0.6916311979293823,-3.3388421535491943
1413393889025760500,-0.00017451494932174683,0.009353023022413254,0.07866798341274261,8.209847450256348,-0.2234693020582199,-2.386467456817627
1413393889030760500,0.03385552018880844,-0.03861057758331299,0.10314997285604477,10.12722396850586,-0.7018162608146667,-2.9720406532287598
1413393889035760500,0.027789637446403503,0.05158846825361252,0.049282290041446686,9.702366828918457,-0.43953028321266174,-2.9130403995513916
1413393889040760500,0.03795374184846878,-0.010819239541888237,0.07475726306438446,8.97989559173584,0.32903724908828735,-2.264039993286133
1413393889045760500,0.009603261947631836,-0.010641312226653099,0.05995003506541252,11.03475284576416,0.17545005679130554,-3.7790162563323975
1413393889050760500,-0.030499182641506195,0.11647554486989975,0.02333899587392807,8.619634628295898,0.24763862788677216,-2.727344274520874
1413393889055760500,-0.02573011815547943,0.010186817497015,0.06980480253696442,9.453368186950684,-0.08096038550138474,-2.803208589553833
1413393889060760500,-0.032519735395908356,0.08304855972528458,0.06389106810092926,10.152356147766113,-0.04982853680849075,-3.3146276473999023
1413393889065760500,-0.023053869605064392,0.04212982952594757,0.10288337618112564,8.079427719116211,0.021890103816986084,-1.9545527696609497
1413393889070760500,-0.006095863878726959,-0.03250548988580704,0.11672033369541168,9.867194175720215,-0.7191282510757446,-3.0384521484375
1413393889075760500,0.009918004274368286,0.05190081149339676,0.10526972264051437,9.163823127746582,-0.5189621448516846,-3.224137783050537
1413393889080760500,0.037806764245033264,-0.004359619691967964,0.13009995222091675,8.76751708984375,-0.15994524955749512,-2.8521833419799805
1413393889085760500,0.03135645389556885,-0.006944103166460991,0.1063857153058052,10.34062385559082,-0.022671809419989586,-3.102050304412842
1413393889090760500,0.028947636485099792,0.04656987637281418,0.09962250292301178,8.741600036621094,0.07555941492319107,-2.7667367458343506
1413393889095760500,0.02405271679162979,-0.011515256017446518,0.09751388430595398,9.959541320800781,0.10592232644557953,-3.112332582473755
1413393889100760500,-0.007286578416824341,0.01574983261525631,0.06357817351818085,10.04780101776123,0.4458407461643219,-3.1758458614349365
1413393889105760500,-0.02065782994031906,0.024620911106467247,0.0695636123418808,9.820623397827148,0.5742244720458984,-2.914641857147217
1413393889110760500,-0.04378129541873932,0.035197727382183075,0.052360162138938904,10.316514015197754,-0.01557906623929739,-2.8904519081115723
1413393889115760500,-0.015231549739837646,0.08196685463190079,0.10050579160451889,9.245662689208984,-0.18830429017543793,-3.5035653114318848
1413393889120760500,-0.0011531263589859009,0.10745500028133392,0.1136411726474762,9.377495765686035,-0.7288610339164734,-2.8104746341705322
1413393889125760500,0.008580282330513,0.0956660583615303,0.10773833096027374,8.543965339660645,-0.510526716709137,-2.859403610229492
1413393889130760500,0.041396334767341614,0.08609028905630112,0.12296044081449509,8.503902435302734,0.2880834937095642,-3.038475513458252
1413393889135760500,0.01907084882259369,0.010610410943627357,0.10449245572090149,9.38764762878418,0.09675280004739761,-2.3368911743164062
1413393889140760500,-0.00041869282722473145,0.012821247801184654,0.09344032406806946,8.44746208190918,0.36134400963783264,-3.5288760662078857
1413393889145760500,-0.02413531392812729,-0.004892366006970406,0.07331666350364685,8.756814956665039,-0.02428443543612957,-2.4769229888916016
1413393889150760500,-0.03269078582525253,-0.03523848205804825,0.043123260140419006,9.224319458007812,-0.1036359891295433,-3.355900287628174
1413393889155760500,0.0030313655734062195,-0.024679720401763916,0.07326335459947586,9.458481788635254,-0.3211781680583954,-3.1184914112091064
1413393889160760500,-0.008593469858169556,-0.01941714994609356,0.03561260923743248,10.07121753692627,-0.03057546727359295,-2.8561620712280273
1413393889165760500,0.017809078097343445,0.04092774540185928,0.07880347967147827,9.535972595214844,0.939702033996582,-3.202324628829956
1413393889170760500,-0.001153498888015747,0.06351267546415329,0.06420229375362396,9.498766899108887,-0.021491000428795815,-2.4677882194519043
1413393889175760500,-0.00256367027759552,0.04505104571580887,0.09831545501947403,8.536457061767578,0.8000535368919373,-3.040302038192749
1413393889180760500,-0.0030749738216400146,0.10255181044340134,0.10816142708063126,10.569005966186523,-0.502470850944519,-3.6091883182525635
1413393889185760500,-0.01642341911792755,0.052274495363235474,0.07711154222488403,8.188981056213379,-0.5662297010421753,-1.44047212600708
1413393889190760500,0.03451915085315704,-0.004366297274827957,0.12624111771583557,9.567727088928223,-0.5773164629936218,-3.8875293731689453
1413393889195760500,0.019088953733444214,0.049417540431022644,0.057647209614515305,9.472821235656738,-0.9625320434570312,-2.3261444568634033
1413393889200760500,0.019751161336898804,-0.08722098171710968,0.09344138205051422,7.761753559112549,0.6559484601020813,-2.9753379821777344
1413393889205760500,-0.008111618459224701,0.018459422513842583,0.053005654364824295,11.231578826904297,-0.4164148271083832,-2.959953784942627
1413393889210760500,-0.040490128099918365,-0.01191108487546444,0.0478331595659256,8.135100364685059,0.7218369245529175,-2.206077814102173
1413393889215760500,-0.0058899372816085815,0.03626345098018646,0.08756452053785324,12.24394416809082,-0.8890103101730347,-4.124139785766602
1413393889220760500,-0.021208494901657104,0.05376873165369034,0.050249308347702026,8.870756149291992,-0.09383582323789597,-1.619821310043335
1413393889225760500,0.02817310392856598,0.025361990556120872,0.10641146451234818,10.818605422973633,-0.08636358380317688,-4.872453689575195
1413393889230760500,0.0009605586528778076,0.15925222635269165,0.019701063632965088,9.447835922241211,-0.4818941354751587,-2.3051679134368896
1413393889235760500,0.01696944236755371,0.01940811239182949,0.1108841598033905,8.301615715026855,0.8448727130889893,-3.455016851425171
1413393889240760500,-0.005952663719654083,0.15180031955242157,0.04671633988618851,9.655755996704102,-1.0752153396606445,-2.9088613986968994
1413393889245760500,0.0014366880059242249,-0.009333169087767601,0.10019000619649887,6.39710807800293,0.8552352786064148,-1.6476194858551025
1413393889250760500,0.011543311178684235,0.03437250852584839,0.10037706792354584,10.568918228149414,-0.8017895221710205,-3.357579469680786
1413393889255760500,0.007639467716217041,-0.029489709064364433,0.10382850468158722,7.181951522827148,0.5562228560447693,-1.299700379371643
1413393889260760500,0.03652945160865784,-0.08023504167795181,0.14516043663024902,10.180081367492676,-0.7977217435836792,-4.512742042541504
1413393889265760500,0.00638088583946228,0.025037026032805443,0.07464756071567535,7.755049705505371,0.5747362971305847,-1.4651813507080078
1413393889270760500,0.021859437227249146,-0.05231069028377533,0.11600710451602936,10.573539733886719,0.10380436480045319,-4.584782123565674
1413393889275760500,-0.049259841442108154,0.06598854064941406,-0.0013122670352458954,9.042874336242676,0.01878153346478939,-2.076873540878296
1413393889280760500,-0.008213333785533905,-0.02094026282429695,0.11229991912841797,9.283370971679688,0.4786755442619324,-3.453864812850952
1413393889285760500,-0.023976434022188187,0.08339577168226242,0.020895041525363922,9.56458854675293,-1.0865540504455566,-2.5739786624908447
1413393889290760500,0.025241844356060028,-0.02481972612440586,0.09977437555789948,7.6588358879089355,0.12552404403686523,-2.3629047870635986
1413393889295760500,0.04172873497009277,0.02466561831533909,0.0378507524728775,9.70394515991211,-0.8305084109306335,-2.852181911468506
1413393889300760500,0.047545984387397766,-0.053725287318229675,0.08406135439872742,8.610190391540527,0.7921864986419678,-2.59995698928833
1413393889305760500,0.014184162020683289,-0.03079131618142128,0.04344519227743149,9.673005104064941,0.2778514325618744,-3.3722116947174072
1413393889310760500,-0.008247017860412598,-0.05187869817018509,0.10208497196435928,8.34041690826416,0.5886425971984863,-2.3390069007873535
1413393889315760500,-0.0283273383975029,-0.058084532618522644,0.08618088811635971,9.960043907165527,-0.46344125270843506,-3.25508713722229
1413393889320760500,-0.03406679630279541,-0.04033326357603073,0.07853283733129501,10.333290100097656,-0.43538957834243774,-3.559297561645508
1413393889325760500,-0.009431950747966766,-0.03561984747648239,0.08681580424308777,8.506319046020508,0.040327075868844986,-2.5816991329193115
1413393889330760500,0.004344917833805084,-0.015555950812995434,0.07288707792758942,9.869850158691406,-0.8785195350646973,-3.821356773376465
1413393889335760500,0.0021925121545791626,-0.01142711378633976,0.07300177216529846,7.981954574584961,0.7855659127235413,-1.9711111783981323
1413393889340760500,0.0058402568101882935,-0.09578105807304382,0.1152968779206276,10.1068696975708,-0.048896417021751404,-4.0505900382995605
1413393889345760500,-0.015766680240631104,0.0012731608003377914,0.09475531429052353,9.24059772491455,0.44149520993232727,-2.794726610183716
1413393889350760500,-0.008946456015110016,-0.06378213316202164,0.11931105703115463,9.141032218933105,-0.5086408853530884,-3.5431618690490723
1413393889355760500,-0.014835193753242493,-0.047227002680301666,0.08529406785964966,9.834460258483887,-0.07540074735879898,-2.6549065113067627
1413393889360760500,0.007209554314613342,-0.046667058020830154,0.0942157655954361,10.193976402282715,-0.18354304134845734,-3.6800670623779297
1413393889365760500,-0.015583455562591553,0.00967717356979847,0.04172886908054352,9.690499305725098,-0.4880724251270294,-2.02022385597229
1413393889370760500,0.01561594009399414,-0.0405978225171566,0.1000337302684784,8.372262001037598,0.16589947044849396,-3.4623210430145264
1413393889375760500,-0.012382283806800842,-0.025651322677731514,0.07340379804372787,8.350208282470703,-0.24783110618591309,-2.451395034790039
1413393889380760500,0.0028282999992370605,-0.06750611960887909,0.14794273674488068,9.535178184509277,0.8350118398666382,-3.9277961254119873
1413393889385760500,-0.028342172503471375,-0.020875807851552963,0.120107501745224,9.640917778015137,-0.6491804718971252,-3.1592307090759277
1413393889390760500,0.0016478896141052246,-0.03466681391000748,0.15154409408569336,10.030730247497559,0.22854378819465637,-3.2663466930389404
1413393889395760500,-0.001800239086151123,0.0052494872361421585,0.0969536304473877,8.73930835723877,-1.2684502601623535,-2.9805102348327637
1413393889400760500,0.019239649176597595,-0.06650689244270325,0.09071800112724304,8.992355346679688,0.37077075242996216,-3.5128304958343506
1413393889405760500,0.007973209023475647,-0.03518611937761307,0.05377265810966492,9.160191535949707,-0.2622217535972595,-2.6788179874420166
1413393889410760500,0.00433918833732605,-0.08885275572538376,0.09287218749523163,9.975031852722168,0.3130691647529602,-3.610807418823242
1413393889415760500,-0.017141982913017273,0.016927333548665047,0.0969906598329544,9.346452713012695,0.07847639173269272,-2.997135877609253
1413393889420760500,-0.011657968163490295,-0.027524124830961227,0.14422982931137085,8.985855102539062,-0.04403678700327873,-2.934250593185425
1413393889425760500,-0.0031623467803001404,0.029340652748942375,0.14786428213119507,9.20651626586914,-0.367055207490921,-2.8819496631622314
1413393889430760500,0.014807373285293579,0.009776417165994644,0.14280344545841217,9.865406036376953,-0.3769819140434265,-3.6744697093963623
1413393889435760500,-0.015123352408409119,0.04100710153579712,0.056712307035923004,8.601984024047852,0.23149318993091583,-3.3170387744903564
1413393889440760500,-0.04533708095550537,-0.03173217922449112,0.026734333485364914,8.536054611206055,-0.00655359635129571,-2.9985954761505127
1413393889445760500,-0.057819150388240814,-0.021652603521943092,0.020111627876758575,8.816465377807617,0.4899837076663971,-2.696312427520752
1413393889450760500,-0.056331224739551544,-0.07054880261421204,0.02793004736304283,8.348271369934082,-1.1997506618499756,-2.2562577724456787
1413393889455760500,-0.050634898245334625,-0.12717057764530182,0.05171062797307968,8.863993644714355,0.2581695318222046,-2.8272433280944824
1413393889460760500,-0.008671179413795471,-0.1569766402244568,0.09305860847234726,8.757683753967285,-0.7673516869544983,-1.5366010665893555
1413393889465760500,-0.02006099373102188,-0.15475375950336456,0.08971302956342697,10.543266296386719,-0.10147673636674881,-4.471792697906494
1413393889470760500,0.007206067442893982,-0.0988074392080307,0.12583914399147034,9.331609725952148,0.09914961457252502,-2.4764297008514404
1413393889475760500,-0.02952500432729721,-0.12015979737043381,0.11659546941518784,9.764665603637695,0.34372055530548096,-4.587092876434326
1413393889480760500,-0.006655573844909668,-0.0195335540920496,0.15610694885253906,9.174904823303223,0.3669649660587311,-2.500609874725342
1413393889485760500,-0.03952903300523758,-0.07986898720264435,0.13317382335662842,10.351279258728027,-0.5084978342056274,-4.43123722076416
1413393889490760500,0.0038303136825561523,0.03591310977935791,0.11058603972196579,10.357396125793457,-0.4072146415710449,-2.6857781410217285
1413393889495760500,0.01637309044599533,-0.061172887682914734,0.11291632056236267,8.293824195861816,-0.685992419719696,-3.918619155883789
1413393889500760500,0.02754591405391693,0.006792303174734116,0.09261211007833481,9.638725280761719,0.22006337344646454,-2.632884979248047
1413393889505760500,0.002307780086994171,-0.1281391829252243,0.10539054870605469,7.629793167114258,0.5628687739372253,-3.0408377647399902
1413393889510760500,-0.017381347715854645,-0.09897859394550323,0.1287647932767868,11.258968353271484,0.8016710877418518,-3.621335029602051
1413393889515760500,-0.055184684693813324,-0.18169935047626495,0.08905753493309021,7.0716023445129395,0.043123725801706314,-1.977431297302246
1413393889520760500,-0.02415374666452408,-0.22798356413841248,0.13726791739463806,10.66372013092041,-0.6597735285758972,-3.7940874099731445
1413393889525760500,-0.023301266133785248,-0.25217917561531067,0.043566055595874786,6.899768829345703,-0.6174705624580383,-2.0246777534484863
1413393889530760500,0.010722637176513672,-0.3498925268650055,0.08383059501647949,10.453337669372559,-0.298321932554245,-4.211692810058594
1413393889535760500,-0.013724192976951599,-0.27791473269462585,0.01743496209383011,8.252693176269531,0.904204249382019,-2.0036630630493164
1413393889540760500,-0.02833835780620575,-0.335199773311615,0.062481097877025604,11.907929420471191,0.6494734287261963,-4.861384391784668
1413393889545760500,-0.08755486458539963,-0.19376447796821594,-0.013821378350257874,8.431405067443848,0.4032374918460846,-1.2640748023986816
1413393889550760500,-0.0665632039308548,-0.2843288481235504,0.12123272567987442,12.101325035095215,-0.35772648453712463,-3.715454578399658
1413393889555760500,-0.043382249772548676,-0.08202429860830307,0.05759692192077637,9.634665489196777,-1.059863567352295,-2.3282997608184814
1413393889560760500,0.007285326719284058,-0.2018468677997589,0.1697135716676712,10.767220497131348,-0.21988767385482788,-3.81284236907959
1413393889565760500,0.007342636585235596,-0.08419093489646912,0.08279915153980255,8.757222175598145,-0.000733515655156225,-3.064481019973755
1413393889570760500,-0.011727772653102875,-0.20391200482845306,0.1475740671157837,10.003450393676758,0.8032523393630981,-3.844935655593872
1413393889575760500,-0.0670621320605278,-0.1715877503156662,0.05755770206451416,8.116995811462402,0.6554296016693115,-3.692277669906616
1413393889580760500,-0.0920012965798378,-0.2795131206512451,0.09615124762058258,10.29686164855957,0.37814629077911377,-4.417094707489014
1413393889585760500,-0.0975593850016594,-0.20926101505756378,0.02234984189271927,7.21505880355835,-0.3259682357311249,-3.053176164627075
1413393889590760500,-0.055754564702510834,-0.3482052981853485,0.04720011353492737,10.03195571899414,-0.8826541900634766,-4.211589813232422
1413393889595760500,-0.03885658085346222,-0.29212716221809387,0.005700204521417618,9.437049865722656,0.058564573526382446,-3.2321293354034424
1413393889600760500,-0.03447902947664261,-0.32638493180274963,0.00606517493724823,10.605076789855957,0.4688134491443634,-4.925230979919434
1413393889605760500,-0.06806551665067673,-0.22427116334438324,-0.019728288054466248,9.910630226135254,1.338249683380127,-2.6807351112365723
1413393889610760500,-0.11784680932760239,-0.29703012108802795,0.014471583068370819,10.701927185058594,0.37441781163215637,-4.562099933624268
1413393889615760500,-0.11137290298938751,-0.16174271702766418,0.039531491696834564,9.714396476745605,0.027038952335715294,-2.5805535316467285
1413393889620760500,-0.09204614907503128,-0.2516016960144043,0.04818525165319443,9.94057846069336,-1.2144163846969604,-3.963104724884033
1413393889625760500,-0.027512721717357635,-0.211078941822052,0.06505872309207916,9.452779769897461,-0.3835447430610657,-2.8658511638641357
1413393889630760500,-0.01633787900209427,-0.24628524482250214,0.052703212946653366,10.583597183227539,-0.4725295305252075,-4.284997940063477
1413393889635760500,-0.02079281210899353,-0.22554822266101837,0.041635721921920776,8.522207260131836,0.988011360168457,-2.3797314167022705
1413393889640760500,-0.08851058036088943,-0.3045027554035187,0.001152273267507553,11.447332382202148,0.732009768486023,-4.36513614654541
1413393889645760500,-0.10543359816074371,-0.25606924295425415,0.02549384906888008,8.450312614440918,1.1862932443618774,-2.1107659339904785
1413393889650760500,-0.1658254861831665,-0.24538032710552216,-0.07558654993772507,12.47188663482666,-0.5696967840194702,-4.514028549194336
1413393889655760500,-0.13346385955810547,-0.3009587526321411,-0.08075901120901108,8.965741157531738,-0.3665958344936371,-3.3208377361297607
1413393889660760500,-0.1265539526939392,-0.1763610988855362,-0.1631912887096405,11.846322059631348,-0.8397032022476196,-3.5564820766448975
1413393889665760500,-0.07316239178180695,-0.20699633657932281,-0.11154981702566147,10.59412670135498,-0.3850223422050476,-3.5891215801239014
1413393889670760500,-0.09371306747198105,-0.1288396716117859,-0.15732219815254211,9.755644798278809,0.5548130869865417,-4.6655402183532715
1413393889675760500,-0.0829111710190773,-0.1599343717098236,-0.07950792461633682,10.408096313476562,0.6128303408622742,-2.7433905601501465
1413393889680760500,-0.11974181234836578,-0.10658519715070724,-0.06900209933519363,11.27363395690918,0.824955940246582,-5.491337299346924
1413393889685760500,-0.14298465847969055,-0.11237318068742752,-0.08378168195486069,9.79670524597168,0.07155055552721024,-2.7252557277679443
1413393889690760500,-0.13423490524291992,-0.11105579137802124,-0.07133740931749344,10.894587516784668,-0.32499149441719055,-3.81239652633667
1413393889695760500,-0.12206573784351349,-0.1431131809949875,-0.08181145042181015,10.145936965942383,-0.35628241300582886,-4.874256134033203
1413393889700760500,-0.07853949815034866,-0.07661488652229309,-0.01127072423696518,8.46839427947998,-0.3632546067237854,-2.305748224258423
1413393889705760500,-0.06171640008687973,-0.18474222719669342,0.01049724966287613,11.223722457885742,-0.5722990036010742,-4.1450910568237305
1413393889710760500,-0.010282911360263824,-0.17556752264499664,0.08179937303066254,8.11408805847168,0.34842467308044434,-2.8899998664855957
1413393889715760500,-0.035167478024959564,-0.26448261737823486,0.05336971580982208,10.980162620544434,0.06763012707233429,-4.326333522796631
1413393889720760500,-0.04628312587738037,-0.2511262595653534,0.03310918062925339,10.588359832763672,1.0355370044708252,-2.9154462814331055
1413393889725760500,-0.11884280294179916,-0.2877614200115204,-0.0549769401550293,12.930450439453125,0.33061760663986206,-5.839714527130127
1413393889730760500,-0.15783752501010895,-0.24314196407794952,-0.1405217945575714,8.559534072875977,0.8890898823738098,-3.507704973220825
1413393889735760500,-0.17975834012031555,-0.226859912276268,-0.20029574632644653,10.688016891479492,-0.6305913925170898,-3.792306423187256
1413393889740760500,-0.15022985637187958,-0.2125207781791687,-0.21200969815254211,13.115572929382324,-0.21424870193004608,-3.6653714179992676
1413393889745760500,-0.12182309478521347,-0.08301130682229996,-0.2232670783996582,11.975144386291504,-0.9587588310241699,-3.1368134021759033
1413393889750760500,-0.11062806844711304,-0.12743493914604187,-0.18076518177986145,11.845213890075684,0.3721844255924225,-4.968226432800293
1413393889755760500,-0.11131542921066284,-0.09671558439731598,-0.10327375680208206,9.30700397491455,1.0550527572631836,-3.9032142162323
1413393889760760500,-0.13745081424713135,-0.04444294795393944,-0.10218744724988937,10.66577434539795,0.10106313228607178,-2.7071380615234375
1413393889765760500,-0.11976814270019531,-0.11496786773204803,0.010779902338981628,11.715845108032227,0.20381073653697968,-4.815304756164551
1413393889770760500,-0.11075858771800995,-0.10241223126649857,-0.007152162492275238,9.359429359436035,-0.7056567072868347,-4.302388668060303
1413393889775760500,-0.053801827132701874,-0.09520107507705688,0.022377781569957733,10.630815505981445,-0.7022930383682251,-2.723020553588867
1413393889780760500,-0.04418719559907913,-0.12652169167995453,-0.049911461770534515,10.87878704071045,-0.4608704149723053,-3.145463705062866
1413393889785760500,-0.022061221301555634,-0.10118734836578369,-0.05736776441335678,12.99090576171875,0.4400303065776825,-4.4960737228393555
1413393889790760500,-0.06803491711616516,-0.06814955919981003,-0.11216682940721512,9.719823837280273,0.588000476360321,-3.262037515640259
1413393889795760500,-0.09902020543813705,-0.10705933719873428,-0.09842177480459213,12.197000503540039,0.5054446458816528,-4.39816951751709
1413393889800760500,-0.14149829745292664,-0.09941910952329636,-0.11153251677751541,9.837759971618652,0.9324692487716675,-3.9599790573120117
1413393889805760500,-0.15077003836631775,-0.07166460156440735,-0.12350448220968246,9.659058570861816,-0.4579908549785614,-3.486450672149658
1413393889810760500,-0.1373506486415863,-0.1964513212442398,-0.10021611303091049,9.76562213897705,-0.22238469123840332,-3.5256857872009277
1413393889815760500,-0.11637000739574432,-0.1714978665113449,-0.19048771262168884,11.074884414672852,-0.9441856145858765,-3.6449711322784424
1413393889820760500,-0.058754291385412216,-0.1646372377872467,-0.14020219445228577,12.190558433532715,0.0165135208517313,-4.517650604248047
1413393889825760500,-0.09028713405132294,-0.17012739181518555,-0.20198151469230652,9.862442016601562,0.36432114243507385,-4.108551979064941
1413393889830760500,-0.09340576827526093,-0.09039965271949768,-0.16514530777931213,12.328313827514648,0.8995690941810608,-3.4913241863250732
1413393889835760500,-0.14580915868282318,-0.04562888294458389,-0.17279207706451416,11.48071002960205,0.6297222375869751,-3.6124393939971924
1413393889840760500,-0.1554417610168457,-0.02946736291050911,-0.15518707036972046,12.554730415344238,-0.22485028207302094,-4.983389377593994
1413393889845760500,-0.14965784549713135,-0.023134617134928703,-0.13885769248008728,8.251432418823242,-0.12530094385147095,-3.252342700958252
1413393889850760500,-0.08408141881227493,0.047674380242824554,-0.13807585835456848,12.08875846862793,-1.4004169702529907,-2.8062710762023926
1413393889855760500,-0.03379211574792862,-0.09679802507162094,-0.10409452766180038,12.76271915435791,-0.3899102807044983,-4.750977993011475
1413393889860760500,-0.029659051448106766,0.008768416941165924,-0.1771007776260376,8.96181583404541,0.5267590880393982,-4.283444404602051
1413393889865760500,-0.06905688345432281,-0.02513330802321434,-0.1428598165512085,10.826170921325684,1.585683822631836,-4.035253524780273
1413393889870760500,-0.16839195787906647,-0.009404225274920464,-0.2098318338394165,10.729705810546875,1.0832109451293945,-2.959343194961548
1413393889875760500,-0.20446498692035675,-0.022819718345999718,-0.20502087473869324,12.73116683959961,0.4208248555660248,-4.557032108306885
1413393889880760500,-0.20200297236442566,0.009760981425642967,-0.22959822416305542,9.136323928833008,-0.7258719205856323,-4.157927513122559
1413393889885760500,-0.1281479001045227,-0.004399828612804413,-0.21688055992126465,10.877449989318848,-1.5978624820709229,-3.872715711593628
1413393889890760500,-0.0728440061211586,0.0190707016736269,-0.2194274663925171,11.039287567138672,-0.5906478762626648,-2.673513412475586
1413393889895760500,-0.05490385740995407,0.06045250594615936,-0.22391849756240845,12.72412395477295,0.02739570662379265,-3.810211658477783
1413393889900760500,-0.10142107307910919,0.061651475727558136,-0.20719900727272034,10.473198890686035,1.7914624214172363,-4.449737071990967
1413393889905760500,-0.16525590419769287,0.16262249648571014,-0.21233698725700378,10.972040176391602,1.0479371547698975,-3.3960509300231934
1413393889910760500,-0.18881241977214813,0.15689067542552948,-0.1648394763469696,11.811929702758789,-0.11200712621212006,-4.156062126159668
1413393889915760500,-0.1805858314037323,0.20802880823612213,-0.19891121983528137,9.374959945678711,-1.1320128440856934,-2.8652422428131104
1413393889920760500,-0.06816406548023224,0.17713643610477448,-0.16902968287467957,11.468608856201172,-1.8160064220428467,-3.0053701400756836
1413393889925760500,-0.03788674622774124,0.10998120158910751,-0.18904519081115723,10.22641372680664,-0.3448484241962433,-3.7317755222320557
1413393889930760500,-0.02964664250612259,0.16476982831954956,-0.18216145038604736,10.343400955200195,0.7211951017379761,-4.39625883102417
1413393889935760500,-0.10292750597000122,0.10731541365385056,-0.18786829710006714,10.350401878356934,1.8136653900146484,-3.301212787628174
1413393889940760500,-0.16423556208610535,0.22518609464168549,-0.17289933562278748,12.16769790649414,0.929741382598877,-3.5029897689819336
1413393889945760500,-0.20074515044689178,0.19025485217571259,-0.19971829652786255,11.465048789978027,0.21471410989761353,-4.206733226776123
1413393889950760500,-0.16307522356510162,0.2689625918865204,-0.22199949622154236,9.143908500671387,-1.658457636833191,-2.8514840602874756
1413393889955760500,-0.09933701157569885,0.23378686606884003,-0.22737285494804382,11.557905197143555,-1.038820505142212,-3.4747157096862793
1413393889960760500,-0.04998195543885231,0.25816047191619873,-0.2301030457019806,11.143512725830078,-0.5806298851966858,-3.9758310317993164
1413393889965760500,-0.07142766565084457,0.24493809044361115,-0.22445601224899292,9.01130485534668,1.3081481456756592,-3.8391966819763184
1413393889970760500,-0.125544011592865,0.20561528205871582,-0.22352680563926697,8.916135787963867,1.5531854629516602,-2.656013011932373
1413393889975760500,-0.1723707914352417,0.26794111728668213,-0.17727598547935486,11.752416610717773,0.18776080012321472,-3.7694811820983887
1413393889980760500,-0.20151521265506744,0.14321447908878326,-0.197117418050766,9.801787376403809,-0.10194195061922073,-4.23260498046875
1413393889985760500,-0.1336974948644638,0.283683717250824,-0.15246662497520447,9.857251167297363,-1.5797739028930664,-2.6920318603515625
1413393889990760500,-0.0852525606751442,0.17613737285137177,-0.1458803117275238,11.881221771240234,-1.0335084199905396,-4.290957927703857
1413393889995760500,-0.012886017560958862,0.3316037654876709,-0.10255812853574753,9.271505355834961,-0.5931466817855835,-2.8503012657165527
1413393890000760500,-0.03229227289557457,0.23964793980121613,-0.09384579211473465,12.238985061645508,0.6902590990066528,-3.856393337249756
1413393890005760500,-0.04372691363096237,0.3348647356033325,-0.08282770961523056,9.120874404907227,0.7257021069526672,-2.9382317066192627
1413393890010760500,-0.09947460889816284,0.28733891248703003,-0.06974843889474869,10.328152656555176,1.0694149732589722,-4.577527046203613
1413393890015760500,-0.10933832824230194,0.2846192419528961,-0.04586727172136307,8.7977933883667,-0.3018869161605835,-2.9680392742156982
1413393890020760500,-0.09582360833883286,0.2900817394256592,0.003398418426513672,10.018592834472656,-0.5542786121368408,-3.7400357723236084
1413393890025760500,-0.04881022870540619,0.17988668382167816,0.06778377294540405,8.707077980041504,-0.3951891362667084,-2.0751473903656006
1413393890030760500,0.012414827942848206,0.3163210451602936,0.09291437268257141,10.258581161499023,-0.6494394540786743,-3.6758453845977783
1413393890035760500,0.03246387839317322,0.16705378890037537,0.13271066546440125,9.932169914245605,0.3892577588558197,-3.398624897003174
1413393890040760500,0.02696876972913742,0.32267484068870544,0.1284346878528595,9.829237937927246,0.1064419075846672,-3.1752517223358154
1413393890045760500,-0.0009195655584335327,0.1596267968416214,0.1721976399421692,9.486937522888184,1.2356432676315308,-3.6095633506774902
1413393890050760500,-0.0164453387260437,0.2767132520675659,0.17928214371204376,9.72507095336914,-0.09850116074085236,-2.475179433822632
1413393890055760500,-0.0367669016122818,0.14562532305717468,0.18400779366493225,9.630254745483398,0.076481893658638,-4.165673732757568
1413393890060760500,-0.0018944218754768372,0.2482367902994156,0.17875909805297852,9.136054039001465,-0.7079623341560364,-2.630058765411377
1413393890065760500,0.02961939573287964,0.1480109989643097,0.19932004809379578,10.481291770935059,-0.837992250919342,-3.477755546569824
1413393890070760500,0.0629890114068985,0.22578716278076172,0.182876855134964,8.795563697814941,-0.060689475387334824,-3.3757472038269043
1413393890075760500,0.0808238834142685,0.17927442491054535,0.2512030601501465,10.163087844848633,0.38172128796577454,-3.528297185897827
1413393890080760500,0.06303277611732483,0.20023547112941742,0.2869863212108612,8.946978569030762,0.5901815891265869,-3.343751907348633
1413393890085760500,0.030929967761039734,0.24247683584690094,0.3239003121852875,9.075841903686523,0.22630125284194946,-3.34212327003479
1413393890090760500,0.030772536993026733,0.17213250696659088,0.33184075355529785,9.011112213134766,0.0161251500248909,-2.637068271636963
1413393890095760500,0.04560438543558121,0.23759420216083527,0.3090347349643707,9.912982940673828,-0.7712308168411255,-3.35589861869812
1413393890100760500,0.06636621057987213,0.1882736086845398,0.28447747230529785,8.738191604614258,-0.24693739414215088,-2.762296438217163
1413393890105760500,0.0672556459903717,0.2491544634103775,0.258288711309433,9.289615631103516,-0.062408700585365295,-2.770683765411377
1413393890110760500,0.05798785388469696,0.19237565994262695,0.25845688581466675,8.028687477111816,0.3705087900161743,-3.383551597595215
1413393890115760500,0.039177924394607544,0.27277448773384094,0.2592035233974457,8.969392776489258,0.48688527941703796,-2.8834030628204346
1413393890120760500,0.03582969307899475,0.19614484906196594,0.30168280005455017,7.0598063468933105,0.08626417070627213,-3.424118757247925
1413393890125760500,0.044737815856933594,0.2575260400772095,0.3162273168563843,8.710089683532715,-0.44057705998420715,-2.4080779552459717
1413393890130760500,0.05515646934509277,0.18875716626644135,0.33491581678390503,6.420172691345215,-0.16927564144134521,-2.8590166568756104
1413393890135760500,0.07546035945415497,0.23790301382541656,0.2898640036582947,8.642838478088379,-0.4069373607635498,-2.6314008235931396
1413393890140760500,0.07181787490844727,0.14926819503307343,0.3006367087364197,7.121359825134277,0.06268944591283798,-2.516791820526123
1413393890145760500,0.054686859250068665,0.21622547507286072,0.27794790267944336,9.65583610534668,0.2972331643104553,-3.325706720352173
1413393890150760500,0.04325495660305023,0.18888038396835327,0.27930277585983276,6.3664774894714355,0.7252267599105835,-2.1013576984405518
1413393890155760500,0.027427978813648224,0.21206562221050262,0.27866384387016296,8.26868724822998,-0.1186966821551323,-3.349644660949707
1413393890160760500,0.026075325906276703,0.17735667526721954,0.2823595106601715,6.391157627105713,0.19430242478847504,-1.2823184728622437
1413393890165760500,0.05381765961647034,0.1926039159297943,0.28808969259262085,9.387344360351562,-1.0180270671844482,-3.4123549461364746
1413393890170760500,0.06505608558654785,0.16594640910625458,0.28677743673324585,5.2852091789245605,0.3174891769886017,-1.1520485877990723
1413393890175760500,0.08666735887527466,0.12464820593595505,0.317899227142334,8.915611267089844,-0.9772871136665344,-3.665910243988037
1413393890180760500,0.0666554719209671,0.16523173451423645,0.29272976517677307,5.596611499786377,0.8108129501342773,-1.125801682472229
1413393890185760500,0.06562575697898865,0.06188388168811798,0.3048330843448639,9.757473945617676,-0.3132529556751251,-4.0831074714660645
1413393890190760500,0.027721308171749115,0.14261175692081451,0.28830134868621826,5.227027893066406,1.2631152868270874,-1.0047205686569214
1413393890195760500,0.0470331609249115,0.09559781104326248,0.3083166778087616,10.051420211791992,-1.3947826623916626,-4.128534317016602
1413393890200760500,0.03678613901138306,0.19394569098949432,0.24122178554534912,5.441243648529053,0.7377949357032776,-0.8885063529014587
1413393890205760500,0.08447884023189545,0.0734729990363121,0.3178549110889435,8.942692756652832,-1.2542608976364136,-3.4619619846343994
1413393890210760500,0.06829531490802765,0.2253069132566452,0.22884505987167358,6.694018840789795,0.7674551010131836,-1.6416956186294556
1413393890215760500,0.09821771085262299,0.0874541699886322,0.34998175501823425,7.950840473175049,-0.23190805315971375,-3.0474250316619873
1413393890220760500,0.03781655430793762,0.21752607822418213,0.24134564399719238,7.7972025871276855,1.0269931554794312,-2.1817574501037598
1413393890225760500,0.04591614753007889,0.09997426718473434,0.3191696107387543,6.076831340789795,0.17567262053489685,-2.5451743602752686
1413393890230760500,-0.012984581291675568,0.17838598787784576,0.20880341529846191,8.771649360656738,0.6288705468177795,-2.092498779296875
1413393890235760500,0.027839437127113342,0.1063695177435875,0.27456724643707275,7.147034645080566,-1.2639155387878418,-2.7187206745147705
1413393890240760500,0.02047981321811676,0.1380632370710373,0.1801975667476654,8.224869728088379,-0.06309673190116882,-1.9300321340560913
1413393890245760500,0.08558869361877441,0.07339803874492645,0.2763109803199768,6.296392917633057,-0.4554153382778168,-1.9173412322998047
1413393890250760500,0.06040006875991821,0.15971308946609497,0.213731586933136,8.692366600036621,0.39207929372787476,-2.8496763706207275
1413393890255760500,0.07354828715324402,0.11148323863744736,0.3090958297252655,5.938302516937256,0.5289334654808044,-2.383502960205078
1413393890260760500,0.02683302015066147,0.15434718132019043,0.2520795166492462,8.907350540161133,0.03485674038529396,-3.3566017150878906
1413393890265760500,0.03294821083545685,0.13562019169330597,0.30503347516059875,5.640719890594482,0.9945997595787048,-1.6502959728240967
1413393890270760500,0.01918136328458786,0.12496057897806168,0.26632484793663025,9.617252349853516,-1.1971747875213623,-3.249391555786133
1413393890275760500,0.049130722880363464,0.1323743760585785,0.26414230465888977,5.381526947021484,0.3129029870033264,-1.2761144638061523
