#timestamp [ns],w_RS_S_x [rad s^-1],w_RS_S_y [rad s^-1],w_RS_S_z [rad s^-1],a_RS_S_x [m s^-2],a_RS_S_y [m s^-2],a_RS_S_z [m s^-2]
1413393885975760500,0.050963614158234416,0.041887902047863905,0.06841690667817772,9.438900625,-0.4004382083333333,-2.729517583333333
1413393885980760500,0.05375614096142535,0.03630284844148206,0.07051130178057091,9.398039583333333,0.032688833333333334,-3.195333458333333
1413393885985760500,0.03839724354387525,0.04258603374866164,0.04677482395344803,9.561483749999999,0.2533384583333333,-3.015544875
1413393885990760500,0.028623399732707,0.047472955654245766,0.07120943348136866,9.283628666666665,0.269682875,-3.0890947499999997
1413393885995760500,0.0027925268031909274,0.06562437987498679,0.06213372137099814,9.610517,0.4985047083333333,-3.0400614999999998
1413393886000760500,-0.025132741228718346,0.03839724354387525,0.08377580409572781,9.161045541666667,0.7681875833333334,-3.2280222916666665
1413393886005760500,-0.05235987755982988,0.04817108735504349,0.08936085770210968,9.283628666666665,0.3350605416666666,-3.0809225416666663
1413393886010760500,-0.05585053606381855,0.03839724354387525,0.08098327729253688,9.054806833333332,-0.35140495833333335,-2.7867230416666664
1413393886015760500,-0.04049163864626844,0.009075712110370514,0.0747000919853573,9.259112041666667,-0.5720545833333333,-2.754034208333333
1413393886020760500,-0.013264502315156905,0.00767944870877505,0.08656833089891874,9.357178541666666,-0.6701210833333332,-2.7376897916666665
1413393886025760500,0.023038346126325153,0.010471975511965976,0.07819075048934597,9.520622708333333,-0.612915625,-2.9093061666666666
1413393886030760500,0.0439822971502571,0.032114058236695664,0.08307767239493008,9.586000375,-0.3759215833333333,-2.941995
1413393886035760500,0.04049163864626844,0.028623399732707,0.07819075048934597,9.250939833333334,0.18796079166666665,-2.811239666666667
1413393886040760500,0.021642082724729686,0.02652900463031381,0.07190756518216637,9.259112041666667,0.416782625,-3.023717083333333
1413393886045760500,-0.005585053606381855,0.04677482395344803,0.06911503837897544,9.373522958333332,0.367749375,-3.0400614999999998
1413393886050760500,-0.023736477827122883,0.03420845333908886,0.06771877497737998,9.144701125,0.057205458333333334,-2.982856041666666
1413393886055760500,-0.03490658503988659,0.01884955592153876,0.06981317007977318,9.07115125,0.10623870833333333,-2.7376897916666665
1413393886060760500,-0.03490658503988659,0.013962634015954637,0.08237954069413235,9.1201845,-0.2533384583333333,-2.9093061666666666
1413393886065760500,-0.021642082724729686,0.009075712110370514,0.08028514559173915,9.242767624999999,-0.4004382083333333,-2.999200458333333
1413393886070760500,-0.008377580409572781,0.006981317007977318,0.08726646259971647,9.536967125,-0.392266,-2.9583394166666666
1413393886075760500,0.00767944870877505,0.02234021442552742,0.08307767239493008,9.406211791666665,-0.3105439166666667,-2.974683833333333
1413393886080760500,0.017453292519943295,0.02234021442552742,0.07260569688296412,9.349006333333334,-0.3023717083333333,-3.015544875
1413393886085760500,0.025132741228718346,0.02722713633111154,0.06562437987498679,9.520622708333333,-0.17978858333333333,-2.974683833333333
1413393886090760500,0.02652900463031381,0.02234021442552742,0.08098327729253688,9.291800875,0.17161637500000002,-2.9338227916666666
1413393886095760500,0.009773843811168246,0.017453292519943295,0.08517206749732328,9.234595416666666,0.35957716666666667,-2.8766173333333334
1413393886100760500,-0.013264502315156905,0.02024581932313422,0.09564404300928926,8.989429166666666,0.3840937916666667,-2.8684451249999996
1413393886105760500,-0.033510321638291124,0.008377580409572781,0.09215338450530061,9.635033625,0.08989429166666667,-3.1299557916666663
1413393886110760500,-0.04537856055185257,0.009075712110370514,0.08237954069413235,9.5124505,-0.20430520833333332,-3.0645781249999997
1413393886115760500,-0.02722713633111154,0.016755160819145562,0.07330382858376185,9.398039583333333,-0.661948875,-2.8766173333333334
1413393886120760500,0.0014188140630722046,0.024809803813695908,0.06377438455820084,9.468987464904785,-0.5635519623756409,-3.0398218631744385
1413393886125760500,0.026580780744552612,0.02692423015832901,0.07360780984163284,9.31442642211914,-0.08976133167743683,-2.9421520233154297
1413393886130760500,0.04122056066989899,0.02202945575118065,0.08827041834592819,9.159558296203613,-0.08975651115179062,-2.7868239879608154
1413393886135760500,0.032909661531448364,0.0129969771951437,0.077132947742939,9.510652542114258,0.21251735091209412,-3.0979020595550537
1413393886140760500,0.002899736166000366,0.030451908707618713,0.07997813075780869,9.28971004486084,0.49868109822273254,-2.975675344467163
1413393886145760500,-0.020799294114112854,0.013683721423149109,0.08132638782262802,9.567083358764648,0.3188187777996063,-3.245182752609253
1413393886150760500,-0.033423230051994324,0.02551649510860443,0.07218224555253983,9.452505111694336,-0.20409564673900604,-3.0647099018096924
1413393886155760500,-0.02296881377696991,0.035980287939310074,0.07497482746839523,9.411678314208984,-0.20408834517002106,-3.0972647666931152
1413393886160760500,-0.013193473219871521,0.042263567447662354,0.07989116758108139,9.224014282226562,-0.03248745575547218,-2.8849570751190186
1413393886165760500,-0.0034332573413848877,0.028303585946559906,0.07638267427682877,9.224209785461426,-0.1958783119916916,-2.827634811401367
1413393886170760500,0.002820819616317749,0.017123598605394363,0.07147415727376938,9.248821258544922,-0.40825775265693665,-2.9908854961395264
1413393886175760500,0.012627020478248596,0.023428374901413918,0.07848479598760605,9.444775581359863,0.008376652374863625,-3.3425161838531494
1413393886180760500,0.0084322988986969,0.04226316884160042,0.08618759363889694,9.150792121887207,0.03283844143152237,-2.852292060852051
1413393886185760500,0.0007644444704055786,0.019943296909332275,0.0889410600066185,9.44495677947998,-0.1143912747502327,-2.9585838317871094
1413393886190760500,0.005642637610435486,0.03599746897816658,0.08264758437871933,9.501823425292969,-0.21247310936450958,-2.9093551635742188
1413393886195760500,0.009849682450294495,0.04437941312789917,0.08480607718229294,9.289645195007324,0.16353996098041534,-2.893380641937256
1413393886200760500,-0.002709895372390747,0.035299498587846756,0.08272609859704971,9.167134284973145,0.2208309918642044,-2.8934848308563232
1413393886205760500,-0.018045559525489807,0.017861736938357353,0.06802573055028915,9.395747184753418,-0.04066280275583267,-2.877037525177002
1413393886210760500,-0.020865052938461304,0.017836768180131912,0.06591518968343735,9.281274795532227,-0.1794683337211609,-2.9993624687194824
1413393886215760500,-0.013898015022277832,0.02551448345184326,0.07148612290620804,9.379233360290527,-0.2285851091146469,-3.0564396381378174
1413393886220760500,-0.015303418040275574,0.032478347420692444,0.07777547091245651,9.15050983428955,-0.22034762799739838,-2.819369316101074
1413393886225760500,4.1097402572631836e-05,0.02271997183561325,0.08752774447202682,9.37948226928711,-0.2695732116699219,-2.974668502807617
1413393886230760500,0.01609291136264801,0.024813707917928696,0.08545181900262833,9.248993873596191,-0.22048957645893097,-2.860269069671631
1413393886235760500,0.027291104197502136,0.02414255030453205,0.08618500083684921,9.339085578918457,0.05726167932152748,-2.909666061401367
1413393886240760500,0.018923327326774597,0.026231154799461365,0.08133196085691452,9.200021743774414,0.24532023072242737,-3.007930278778076
1413393886245760500,0.002203434705734253,0.018571127206087112,0.08550142496824265,9.477709770202637,0.20434945821762085,-3.032564878463745
1413393886250760500,-0.014589890837669373,0.02689756639301777,0.08199531584978104,9.118021965026855,0.04110768809914589,-3.0158238410949707
1413393886255760500,-0.018043488264083862,0.015073435381054878,0.09665634483098984,9.436841011047363,0.1880362182855606,-2.950864553451538
1413393886260760500,-0.022971078753471375,0.026897648349404335,0.09664107114076614,9.158867835998535,0.016530459746718407,-2.9013993740081787
1413393886265760500,-0.014624372124671936,0.005257781594991684,0.09727378934621811,9.289592742919922,-0.400189071893692,-2.7703800201416016
1413393886270760500,-0.0006570518016815186,0.010158423334360123,0.0742507353425026,9.43661117553711,-0.4247249662876129,-2.950178384780884
1413393886275760500,0.011922091245651245,0.010871607810258865,0.06449935585260391,9.510300636291504,-0.3103794753551483,-3.0564987659454346
1413393886280760500,0.014042198657989502,0.0220489464700222,0.05267005413770676,9.420337677001953,-0.11419953405857086,-3.048440456390381
1413393886285760500,0.018935516476631165,0.006002744659781456,0.060360826551914215,9.33906364440918,-0.007968567311763763,-2.9832732677459717
1413393886290760500,0.0077904462814331055,0.02974000945687294,0.06039430946111679,9.395713806152344,0.2208244949579239,-3.0815231800079346
1413393886295760500,-0.011744782328605652,0.01580139994621277,0.08765443414449692,9.338822364807129,0.5313733816146851,-3.0003318786621094
1413393886300760500,-0.02574935555458069,0.0338888019323349,0.09455890208482742,9.215962409973145,0.11456380784511566,-2.901546001434326
1413393886305760500,-0.02648136019706726,0.019902195781469345,0.09102358669042587,9.142435073852539,-0.25303521752357483,-2.909261465072632
1413393886310760500,-0.01533515751361847,0.026893500238656998,0.08680764585733414,9.387359619140625,-0.42470964789390564,-3.1378390789031982
1413393886315760500,-0.0013723224401474,0.022005192935466766,0.09241164475679398,9.265183448791504,-0.2858251929283142,-3.08893084526062
1413393886320760500,0.01328420639038086,0.029695119708776474,0.08123873919248581,9.354905128479004,-0.40843334794044495,-2.917295217514038
1413393886325760500,0.02933529019355774,0.02131795883178711,0.08893878012895584,9.25737190246582,-0.2695418894290924,-2.9827558994293213
1413393886330760500,0.030086994171142578,0.03182082995772362,0.08620498329401016,9.322636604309082,0.1798488199710846,-2.9833264350891113
1413393886335760500,0.016133040189743042,0.024848099797964096,0.10368617624044418,9.240981101989746,0.4413886070251465,-2.967369318008423
1413393886340760500,-0.013893142342567444,0.03248424828052521,0.08687310665845871,9.215938568115234,0.04920600354671478,-3.097524881362915
1413393886345760500,-0.028539016842842102,0.015047688037157059,0.07218629866838455,9.436358451843262,-0.17954857647418976,-3.170987367630005
1413393886350760500,-0.02853110432624817,0.029011080041527748,0.06311482936143875,9.542230606079102,-0.2122524529695511,-3.2035629749298096
1413393886355760500,-0.015996158123016357,0.02620585262775421,0.06379612535238266,9.281033515930176,-0.37555086612701416,-2.827531576156616
1413393886360760500,-0.0013538897037506104,0.021321263164281845,0.06239809840917587,9.346620559692383,-0.4246242940425873,-2.974585771560669
1413393886365760500,0.020301371812820435,0.02832522615790367,0.07777469605207443,9.428637504577637,-0.1715543121099472,-2.8685760498046875
1413393886370760500,0.020317837595939636,0.038796257227659225,0.08691536635160446,9.273407936096191,0.27794188261032104,-3.016126871109009
1413393886375760500,0.00845634937286377,0.03392019867897034,0.08833727985620499,9.134692192077637,0.3761361837387085,-2.8037474155426025
1413393886380760500,-0.0054999589920043945,0.024836940690875053,0.09314525872468948,9.444928169250488,0.032706063240766525,-2.917894124984741
1413393886385760500,-0.011092409491539001,0.02761935256421566,0.08964740484952927,9.403928756713867,-0.04078919440507889,-2.9341061115264893
1413393886390760500,-0.010411888360977173,0.03877776116132736,0.08893126994371414,9.428186416625977,-0.16338881850242615,-2.9583756923675537
1413393886395760500,-0.009029239416122437,0.028282972052693367,0.08615783601999283,9.085370063781738,-0.1876785159111023,-2.8357160091400146
1413393886400760500,0.007010892033576965,0.021327655762434006,0.08541705459356308,9.493792533874512,-0.3921832740306854,-2.9827704429626465
1413393886405760500,0.016121134161949158,0.02413216605782509,0.07920242100954056,9.257240295410156,-0.00800733920186758,-2.9014034271240234
1413393886410760500,0.007773876190185547,0.02135710045695305,0.07574213296175003,9.306164741516113,0.20446175336837769,-2.999799966812134
1413393886415760500,-0.008974730968475342,0.009488336741924286,0.07711005955934525,9.371542930603027,0.04918709397315979,-2.92618465423584
1413393886420760500,-0.012470081448554993,0.010875603184103966,0.06941045075654984,9.501936912536621,-0.08156605064868927,-3.1548070907592773
1413393886425760500,-0.011795714497566223,0.01783972606062889,0.060318686068058014,9.289433479309082,-0.285677969455719,-2.844017744064331
1413393886430760500,-0.006210699677467346,0.021333131939172745,0.05963412672281265,9.362995147705078,-0.17950229346752167,-3.1218819618225098
1413393886435760500,0.008430197834968567,0.01924053207039833,0.07636379450559616,9.355052947998047,-0.2776831388473511,-2.8113155364990234
1413393886440760500,0.013343557715415955,0.016465436667203903,0.08407936245203018,9.437007904052734,0.01638435572385788,-2.991438627243042
1413393886445760500,0.006363913416862488,0.02344614453613758,0.08830416947603226,9.200156211853027,0.196320578455925,-2.7790520191192627
1413393886450760500,-0.004101976752281189,0.01645738072693348,0.08967118710279465,9.363327980041504,0.1063288077712059,-3.0405609607696533
1413393886455760500,-0.013194665312767029,0.015743952244520187,0.09312868863344193,9.395838737487793,-0.05711221694946289,-3.1220178604125977
1413393886460760500,-0.015285223722457886,0.022029314190149307,0.0889376774430275,9.444727897644043,-0.10616540163755417,-3.0402839183807373
1413393886465760500,-0.011137336492538452,0.026883304119110107,0.08473696559667587,9.166926383972168,-0.35109683871269226,-2.900947093963623
1413393886470760500,0.0077004581689834595,0.0282977893948555,0.0889076367020607,9.363028526306152,-0.40846049785614014,-2.876444101333618
1413393886475760500,0.018875911831855774,0.01852564513683319,0.0924290344119072,9.224637985229492,-0.2368544340133667,-2.892934799194336
1413393886480760500,0.02171941101551056,0.01577068865299225,0.08408673852682114,9.4452486038208,0.05723108723759651,-3.0323190689086914
1413393886485760500,0.011265099048614502,0.024154258891940117,0.07435081154108047,9.298055648803711,0.20446445047855377,-2.909895896911621
1413393886490760500,-0.001279875636100769,0.01578167825937271,0.07435614615678787,9.387712478637695,0.29435473680496216,-3.1062171459198
1413393886495760500,-0.01665276288986206,0.016457492485642433,0.07781132310628891,9.363076210021973,0.10640912503004074,-3.1059601306915283
1413393886500760500,-0.02434726059436798,0.02203255146741867,0.07288070768117905,9.54246711730957,-0.19599075615406036,-3.1219425201416016
1413393886505760500,-0.02017080783843994,0.04297037422657013,0.0763682946562767,9.395245552062988,-0.19597060978412628,-2.8276166915893555
1413393886510760500,-0.006933912634849548,0.029694020748138428,0.08265044540166855,9.297652244567871,-0.24496990442276,-2.9419658184051514
1413393886515760500,0.01120440661907196,0.037378132343292236,0.08753543347120285,9.354928016662598,-0.2369040846824646,-2.925568103790283
1413393886520760500,0.018184736371040344,0.03248172253370285,0.08895831555128098,9.191813468933105,-0.07338880002498627,-3.0564239025115967
1413393886525760500,0.013346508145332336,0.03322078287601471,0.08410055190324783,9.37149715423584,0.13082104921340942,-2.909761428833008
1413393886530760500,-0.0006001293659210205,0.019955111667513847,0.07712403684854507,9.379522323608398,0.15540309250354767,-3.105987310409546
1413393886535760500,-0.00480787456035614,0.038090966641902924,0.07640453428030014,9.313981056213379,-0.01619509980082512,-2.885030746459961
1413393886540760500,-0.013205155730247498,0.03177379444241524,0.07569953054189682,9.101581573486328,-0.04054481163620949,-3.1055307388305664
1413393886545760500,-0.010397061705589294,0.04437059909105301,0.08266308158636093,9.436280250549316,-0.09801144152879715,-2.909430503845215
1413393886550760500,-0.011121034622192383,0.024098701775074005,0.0826641246676445,9.142550468444824,-0.20402708649635315,-2.9338152408599854
1413393886555760500,-0.002737566828727722,0.033895500004291534,0.08263491839170456,9.223999977111816,-0.2938821017742157,-2.574164390563965
1413393886560760500,0.00215071439743042,0.0031692367047071457,0.07919298857450485,9.085819244384766,-0.1141238883137703,-2.9340028762817383
1413393886565760500,0.008477374911308289,0.02485412359237671,0.07430168241262436,9.591931343078613,-0.016366394236683846,-2.9260573387145996
1413393886570760500,-0.0048096925020217896,0.015752112492918968,0.07290749996900558,9.306044578552246,-0.07335054129362106,-3.007648229598999
1413393886575760500,0.002866998314857483,0.025533903390169144,0.06590693444013596,9.403885841369629,-0.20412412285804749,-2.81955885887146
1413393886580760500,-0.0027074217796325684,0.015055730938911438,0.0680462196469307,9.183588027954102,0.04929559305310249,-2.975081205368042
1413393886585760500,-0.00128859281539917,0.04228958487510681,0.08897652477025986,9.60793399810791,0.1715354025363922,-3.1140778064727783
1413393886590760500,-0.009022757411003113,0.035267069935798645,0.0861673429608345,9.060800552368164,-0.12230997532606125,-2.745854139328003
1413393886595760500,-0.0034464746713638306,0.013643406331539154,0.09311128407716751,9.297928810119629,-0.2613513469696045,-2.843986988067627
1413393886600760500,0.0007425546646118164,0.010149963200092316,0.08335583657026291,9.232695579528809,-0.21224749088287354,-3.0237679481506348
1413393886605760500,0.0049645304679870605,0.01924901269376278,0.09662274271249771,9.575676918029785,-8.323788642883301e-05,-3.1221072673797607
1413393886610760500,-0.003438696265220642,0.031093865633010864,0.0826582983136177,9.314024925231934,-0.18781103193759918,-2.966526985168457
1413393886615760500,0.004945099353790283,0.01365811750292778,0.07916378229856491,9.379668235778809,-0.22050556540489197,-2.9013004302978516
1413393886620760500,0.008436143398284912,0.02132536470890045,0.07780107110738754,9.208111763000488,-0.007953964173793793,-3.097468376159668
1413393886625760500,0.007056400179862976,0.031806930899620056,0.09316358715295792,9.387664794921875,0.15530627965927124,-3.130363941192627
1413393886630760500,-0.010402053594589233,0.031088508665561676,0.08200066536664963,9.118038177490234,0.04925105348229408,-2.9504525661468506
1413393886635760500,-0.00831054151058197,0.0073639508336782455,0.08547214418649673,9.175552368164062,-0.07332294434309006,-2.909583806991577
1413393886640760500,-0.005535617470741272,0.015727542340755463,0.0826658383011818,9.16723346710205,-0.1631769984960556,-3.0319478511810303
1413393886645760500,-0.0048010945320129395,0.014361662790179253,0.08267515152692795,9.46937370300293,9.090453386306763e-05,-3.162994861602783
1413393886650760500,-0.015268638730049133,0.02832140028476715,0.0673108622431755,9.460834503173828,-0.14694809913635254,-2.9667274951934814
1413393886655760500,0.004946812987327576,0.022032983601093292,0.07917275279760361,9.346909523010254,-0.17146793007850647,-2.893115997314453
1413393886660760500,0.008425131440162659,0.034586817026138306,0.07219728082418442,9.314067840576172,-0.18775677680969238,-3.0318679809570312
1413393886665760500,0.006373941898345947,0.027630392462015152,0.08061239868402481,9.403990745544434,0.17171026766300201,-3.122285842895508
1413393886670760500,-0.0034163296222686768,0.02970723621547222,0.07640980929136276,9.240598678588867,0.00018662810907699168,-2.958613872528076
1413393886675760500,-0.0013329535722732544,0.017846062779426575,0.08265281468629837,9.461219787597656,-0.1878831684589386,-3.0075457096099854
1413393886680760500,-0.004139363765716553,0.02410845458507538,0.08196388930082321,9.240633010864258,-0.17957019805908203,-3.0155739784240723
1413393886685760500,-0.006185159087181091,0.020652487874031067,0.08197516947984695,9.56734561920166,-0.016348285600543022,-3.040473461151123
1413393886690760500,-0.009700849652290344,0.03040933609008789,0.07986963540315628,9.395635604858398,-0.13881823420524597,-2.9094693660736084
1413393886695760500,0.006338298320770264,0.03320026397705078,0.08126186579465866,9.420262336730957,-0.1797143965959549,-2.950232982635498
1413393886700760500,0.008427619934082031,0.03249276429414749,0.08127710968255997,9.273343086242676,-0.11425531655550003,-2.9829277992248535
1413393886705760500,0.004286974668502808,0.037406958639621735,0.07852175086736679,9.452887535095215,0.17166930437088013,-3.0650811195373535
1413393886710760500,-0.002021878957748413,0.03110513836145401,0.07991112023591995,9.110018730163574,0.0329490602016449,-2.7134008407592773
1413393886715760500,-0.0013201385736465454,0.015062402933835983,0.08195396512746811,9.583744049072266,-0.16344285011291504,-3.0484910011291504
1413393886720760500,-0.002022981643676758,0.026215936988592148,0.08409110456705093,9.216201782226562,0.05738040432333946,-2.9750173091888428
1413393886725760500,-0.007589235901832581,0.031116709113121033,0.07640082389116287,9.428354263305664,-0.00807283353060484,-2.9831855297088623
1413393886730760500,0.0007527321577072144,0.02411266416311264,0.07988103479146957,9.191694259643555,-0.1468677818775177,-2.893047332763672
1413393886735760500,0.003580152988433838,0.02763337641954422,0.07499995082616806,9.534647941589355,-0.040825117379426956,-3.0240368843078613
1413393886740760500,0.011928915977478027,0.03040415048599243,0.086186982691288,9.224453926086426,0.06552041321992874,-2.9913225173950195
1413393886745760500,0.0014856457710266113,0.0318191722035408,0.07502049952745438,9.371305465698242,0.065500408411026,-2.958738088607788
1413393886750760500,-0.0020160824060440063,0.013661269098520279,0.08410833030939102,9.110309600830078,0.09016101807355881,-2.7462518215179443
1413393886755760500,-0.0020119547843933105,0.012971894815564156,0.08127186447381973,9.436860084533691,-0.08162358403205872,-2.909670114517212
1413393886760760500,-0.004134804010391235,0.01643397845327854,0.09033968299627304,9.281576156616211,-0.08154326677322388,-3.1382477283477783
1413393886765760500,-0.01109875738620758,0.02482328936457634,0.0798618271946907,9.477322578430176,-0.17151568830013275,-3.0565385818481445
1413393886770760500,-0.003448769450187683,0.012244343757629395,0.08194785565137863,9.306079864501953,-0.28580087423324585,-3.048229932785034
1413393886775760500,0.004261314868927002,0.026229247450828552,0.0784798189997673,9.453024864196777,-0.10617270320653915,-2.96673846244812
1413393886780760500,0.014723628759384155,0.01505526527762413,0.08827296644449234,9.281858444213867,0.03279755264520645,-3.0158851146698
1413393886785760500,0.004287019371986389,0.029034016653895378,0.07362262159585953,9.477506637573242,0.06544265151023865,-3.0078108310699463
1413393886790760500,-0.0034075379371643066,0.008074002340435982,0.07992269843816757,9.126585960388184,0.13099095225334167,-2.950676918029785
1413393886795760500,-0.008312627673149109,0.01784292608499527,0.07846095412969589,9.4447660446167,-0.22868923842906952,-2.999338388442993
1413393886800760500,-0.007632613182067871,0.020616142079234123,0.08893377333879471,9.289626121520996,-0.13871842622756958,-3.195328950881958
1413393886805760500,-0.009004905819892883,0.028315264731645584,0.08195400983095169,9.501805305480957,-0.17156919836997986,-3.0156805515289307
1413393886810760500,-0.003432542085647583,0.01434076577425003,0.08406903594732285,9.208138465881348,-0.10602922737598419,-2.991206645965576
1413393886815760500,0.000761076807975769,0.035296134650707245,0.07497818022966385,9.485435485839844,-0.20422984659671783,-2.99924635887146
1413393886820760500,0.004928916692733765,0.028287161141633987,0.08058127015829086,9.126354217529297,-0.1223231852054596,-3.031893730163574
1413393886825760500,0.0077580660581588745,0.035306334495544434,0.0784904882311821,9.501937866210938,-0.03268364816904068,-3.023966073989868
1413393886830760500,0.0028486698865890503,0.02271326817572117,0.08338568359613419,9.142763137817383,-0.024310573935508728,-3.0075650215148926
1413393886835760500,-0.0006178021430969238,0.02623080089688301,0.08267808705568314,9.412209510803223,-0.024451859295368195,-2.942321538925171
1413393886840760500,-0.010427266359329224,0.02618527039885521,0.08545730262994766,9.109896659851074,-0.1468239724636078,-3.0563793182373047
1413393886845760500,-0.008320793509483337,0.031093288213014603,0.08894281834363937,9.33035659790039,-0.11429445445537567,-3.040144920349121
1413393886850760500,-0.006228610873222351,0.028303835541009903,0.08544833213090897,9.34670639038086,-0.17966409027576447,-2.991084098815918
1413393886855760500,0.001453489065170288,0.02830507420003414,0.08616716414690018,9.240697860717773,-0.07340099662542343,-2.925809621810913
1413393886860760500,0.004926800727844238,0.03177874535322189,0.07708679884672165,9.158950805664062,-0.17952309548854828,-3.0154852867126465
1413393886865760500,0.009145304560661316,0.0234327744692564,0.07640963047742844,9.265318870544434,-0.016173047944903374,-2.9341063499450684
1413393886870760500,0.007043361663818359,0.019933998584747314,0.07081655412912369,9.248921394348145,-0.08148697018623352,-3.064748764038086
1413393886875760500,0.0028695017099380493,0.017843935638666153,0.07503195852041245,9.142814636230469,0.08195953071117401,-2.950565814971924
1413393886880760500,-0.007598176598548889,0.025525057688355446,0.07849163562059402,9.37940788269043,-0.03256310150027275,-3.040350914001465
1413393886885760500,-0.009702354669570923,0.02202853187918663,0.07917953282594681,9.322266578674316,-0.11423436552286148,-2.9667153358459473
1413393886890760500,-0.008288264274597168,0.024830829352140427,0.07567935436964035,9.681411743164062,-0.14709587395191193,-3.2118239402770996
1413393886895760500,-0.004808470606803894,0.02970997802913189,0.08130671828985214,9.207979202270508,0.08190710097551346,-2.9096839427948
1413393886900760500,-0.002027541399002075,0.027618328109383583,0.07358438521623611,9.45285701751709,-0.19601406157016754,-3.0074806213378906
1413393886905760500,0.0035537034273147583,0.029013898223638535,0.07498633116483688,9.338600158691406,-0.17144697904586792,-2.860386610031128
1413393886910760500,0.016111314296722412,0.022735044360160828,0.08126767724752426,9.461359024047852,-0.13887329399585724,-3.0810492038726807
1413393886915760500,0.009140074253082275,0.024815745651721954,0.0778261348605156,9.05300235748291,0.05746159702539444,-2.827857494354248
1413393886920760500,8.656084537506104e-05,0.022042322903871536,0.08477766066789627,9.461219787597656,0.04908114671707153,-3.1140010356903076
1413393886925760500,-0.006915837526321411,0.024815235286951065,0.08267582207918167,9.224309921264648,-0.08969291299581528,-2.884967088699341
1413393886930760500,-0.004802405834197998,0.01855391636490822,0.09243827313184738,9.502142906188965,-0.016351718455553055,-2.975083351135254
1413393886935760500,-0.006919786334037781,0.02689427137374878,0.08828263729810715,9.060986518859863,0.05742494389414787,-2.9422597885131836
1413393886940760500,-0.0069340914487838745,0.021323051303625107,0.0826401486992836,9.395724296569824,-0.2940411865711212,-3.007359504699707
1413393886945760500,0.0028239786624908447,0.017109062522649765,0.0826636329293251,9.061116218566895,-0.2611856758594513,-2.958228349685669
1413393886950760500,0.01054130494594574,0.017854496836662292,0.07569260150194168,9.412364959716797,-0.10613327473402023,-2.9831113815307617
1413393886955760500,0.006349608302116394,0.019236639142036438,0.07850802689790726,9.167359352111816,-0.007960609160363674,-2.9014101028442383
1413393886960760500,0.0014740824699401855,0.014365360140800476,0.07637537270784378,9.591906547546387,-0.16342496871948242,-3.1056742668151855
1413393886965760500,6.002187728881836e-05,0.020616773515939713,0.07570969313383102,9.069236755371094,-0.08959799259901047,-2.8604068756103516
1413393886970760500,-0.0013062208890914917,0.0122672189027071,0.09175360947847366,9.502008438110352,0.13082097470760345,-3.293800115585327
1413393886975760500,-0.013177067041397095,0.03948621824383736,0.08548233658075333,9.354762077331543,0.07363399118185043,-2.942365884780884
1413393886980760500,-0.013209357857704163,0.022712215781211853,0.08684558421373367,9.240564346313477,-0.18775583803653717,-2.9093780517578125
1413393886985760500,-0.004845127463340759,0.026904389262199402,0.07216490060091019,9.371023178100586,-0.4001726508140564,-2.9337053298950195
1413393886990760500,0.012610629200935364,0.024112587794661522,0.0798824205994606,9.224482536315918,-0.11420398950576782,-3.056469202041626
1413393886995760500,0.013337761163711548,0.024837294593453407,0.08477672189474106,9.428711891174316,0.00819418579339981,-2.991363286972046
1413393887000760500,0.002176150679588318,0.017854969948530197,0.07570568472146988,9.363306045532227,-0.024381691589951515,-2.9832122325897217
1413393887005760500,0.0028526633977890015,0.024120774120092392,0.07848479598760605,9.306042671203613,-0.10606324672698975,-3.0402066707611084
1413393887010760500,0.0007778555154800415,0.020640555769205093,0.08969972282648087,9.191789627075195,0.24532140791416168,-3.0243213176727295
1413393887015760500,-0.013145789504051208,0.02903447486460209,0.09175484627485275,9.64892292022705,0.11432512104511261,-3.007946014404297
1413393887020760500,-0.017387211322784424,0.03179080784320831,0.08406161516904831,9.264909744262695,-0.12239116430282593,-2.909423828125
1413393887025760500,-0.004850208759307861,0.01782967895269394,0.07634948939085007,9.387535095214844,-0.4083622992038727,-3.00728178024292
1413393887030760500,0.010513126850128174,0.03178554028272629,0.07220112532377243,9.18348217010498,-0.2040250450372696,-2.950117826461792
1413393887035760500,0.014030426740646362,0.0199484471231699,0.08407845348119736,9.3634614944458,-0.01627366431057453,-2.958657741546631
1413393887040760500,0.006347104907035828,0.029016440734267235,0.07428928464651108,9.436617851257324,-0.16334538161754608,-2.999316930770874
1413393887045760500,0.007739245891571045,0.02062944509088993,0.08268795162439346,9.200032234191895,-0.024330580607056618,-2.966747283935547
1413393887050760500,0.0021718740463256836,0.027616793289780617,0.0827287957072258,9.12635612487793,0.25353217124938965,-2.9916036128997803
1413393887055760500,-0.017341256141662598,0.021353619173169136,0.08689125627279282,9.43664836883545,0.17986969649791718,-3.0162007808685303
1413393887060760500,-0.02087685465812683,0.034582167863845825,0.08056395500898361,9.35460376739502,-0.15508978068828583,-3.0646233558654785
1413393887065760500,-0.006938636302947998,0.019218172878026962,0.08264779299497604,9.224254608154297,-0.3020963668823242,-2.892921209335327
1413393887070760500,0.005626201629638672,0.022710513323545456,0.07638148218393326,9.18354606628418,-0.24488995969295502,-2.9256205558776855
1413393887075760500,0.014009237289428711,0.011552266776561737,0.08197634667158127,9.192014694213867,-0.1468977928161621,-2.933950901031494
1413393887080760500,0.008448213338851929,0.022042643278837204,0.07638265937566757,9.518403053283691,-0.1388881802558899,-3.048433780670166
1413393887085760500,0.011228322982788086,0.013649832457304,0.07640386372804642,9.183777809143066,-0.07331833988428116,-2.9748895168304443
1413393887090760500,0.005667462944984436,0.0220416858792305,0.08061755448579788,9.257137298583984,0.155426025390625,-3.016049861907959
1413393887095760500,-0.009679555892944336,0.008782127872109413,0.08551023155450821,9.216384887695312,0.2044818252325058,-2.975336790084839
1413393887100760500,-0.025732651352882385,0.02413208968937397,0.07916835695505142,9.550674438476562,-0.11434892565011978,-3.0158450603485107
1413393887105760500,-0.015317603945732117,0.019919242709875107,0.0854174867272377,9.37105941772461,-0.3838828504085541,-2.941915273666382
1413393887110760500,0.0021225661039352417,0.03179221972823143,0.08262700587511063,9.469085693359375,-0.4003177285194397,-3.007181406021118
1413393887115760500,0.009112045168876648,0.019214317202568054,0.08476310223340988,9.093835830688477,-0.22039639949798584,-2.8357293605804443
1413393887120760500,0.014725565910339355,0.022046305239200592,0.0784638300538063,9.60012149810791,-0.19618454575538635,-2.9993765354156494
1413393887125760500,0.01611672341823578,0.017843838781118393,0.07570979744195938,9.191961288452148,-0.06516971439123154,-2.8768317699432373
1413393887130760500,0.01265348494052887,0.023444322869181633,0.08270665258169174,9.404123306274414,0.17986677587032318,-3.130467176437378
1413393887135760500,-0.0054945796728134155,0.031116440892219543,0.08203207701444626,9.199801445007324,0.2616848647594452,-2.942620038986206
1413393887140760500,-0.02570389211177826,0.02345188707113266,0.08270064741373062,9.510040283203125,0.1553470939397812,-2.9917001724243164
1413393887145760500,-0.022975191473960876,0.0331842377781868,0.0819532498717308,9.297416687011719,-0.21225909888744354,-2.9011476039886475
1413393887150760500,-0.006947636604309082,0.01921580359339714,0.08333846181631088,9.265110969543457,-0.32661816477775574,-3.039940595626831
1413393887155760500,3.649294376373291e-05,0.03665934503078461,0.07707808166742325,9.134292602539062,-0.26120808720588684,-2.9009764194488525
1413393887160760500,0.01330500841140747,0.02063269168138504,0.07845944911241531,9.371437072753906,-0.29405301809310913,-2.9093236923217773
1413393887165760500,0.017500609159469604,0.030407201498746872,0.06870823353528976,9.36319351196289,-0.20412953197956085,-3.0237202644348145
1413393887170760500,0.017522722482681274,0.01994280517101288,0.0827183797955513,9.191855430603027,0.22082245349884033,-3.097775936126709
1413393887175760500,-0.0047801584005355835,0.03881585970520973,0.07996069639921188,9.297720909118652,0.40059444308280945,-2.9510042667388916
1413393887180760500,-0.02503398060798645,0.025525206699967384,0.08618774265050888,9.322141647338867,0.1308971345424652,-3.0242464542388916
1413393887185760500,-0.02855125069618225,0.0283037256449461,0.07636391371488571,9.444353103637695,-0.23678894340991974,-3.1054604053497314
1413393887190760500,-0.016707703471183777,0.0129326693713665,0.08334348350763321,9.199725151062012,-0.310237318277359,-2.8929526805877686
1413393887195760500,-0.0013470649719238281,0.0366886630654335,0.07495751231908798,9.566933631896973,-0.34316548705101013,-3.0236032009124756
1413393887200760500,0.015367507934570312,0.023387551307678223,0.08335032314062119,9.085597038269043,-0.40011700987815857,-2.900867462158203
1413393887205760500,0.023791760206222534,0.019258208572864532,0.07286696881055832,9.632814407348633,-0.2942322790622711,-2.9339661598205566
1413393887210760500,0.024518489837646484,0.015080761164426804,0.0743541345000267,9.232955932617188,0.20449146628379822,-2.901707649230957
1413393887215760500,0.012689709663391113,0.026262406259775162,0.08413641899824142,9.551095962524414,0.4004606306552887,-3.122653007507324
1413393887220760500,-0.02014164626598358,0.02902255207300186,0.0841195210814476,9.273154258728027,0.26984307169914246,-3.0162432193756104
1413393887225760500,-0.026435717940330505,0.02901396155357361,0.08128327876329422,9.346574783325195,-0.008004856295883656,-2.917827844619751
1413393887230760500,-0.02018885314464569,0.015031829476356506,0.08963216096162796,9.191573143005371,-0.22037990391254425,-2.7949717044830322
1413393887235760500,-0.003459528088569641,0.021323304623365402,0.0903003141283989,9.518229484558105,-0.36768269538879395,-3.0971388816833496
1413393887240760500,0.013277187943458557,0.03316444158554077,0.0854419395327568,9.134449005126953,-0.3674658536911011,-2.868170738220215
1413393887245760500,0.02028954029083252,0.024131491780281067,0.07496028393507004,9.395874977111816,-0.3267243504524231,-2.770402193069458
1413393887250760500,0.026571035385131836,0.015043824911117554,0.07500580698251724,9.143074035644531,-0.14685769379138947,-2.8848814964294434
1413393887255760500,0.016147345304489136,0.010889027267694473,0.07854834944009781,9.265338897705078,0.35157954692840576,-3.15521502494812
1413393887260760500,-0.006882146000862122,0.03323327749967575,0.0855601504445076,9.199848175048828,0.4823704957962036,-2.893885850906372
1413393887265760500,-0.03059062361717224,0.019261181354522705,0.07711730152368546,9.461008071899414,0.12272382527589798,-2.9835093021392822
1413393887270760500,-0.02996167540550232,0.02061283215880394,0.07914816588163376,9.272929191589355,-0.32656800746917725,-2.9256184101104736
1413393887275760500,-0.01670585572719574,0.012237876653671265,0.07147497683763504,9.248702049255371,-0.3428645133972168,-3.0400164127349854
1413393887280760500,0.0014329850673675537,0.03458171337842941,0.0756584033370018,9.338350296020508,-0.36752447485923767,-2.884629964828491
1413393887285760500,0.01050509512424469,0.015047062188386917,0.07565750926733017,9.453102111816406,-0.367596834897995,-3.0563626289367676
1413393887290760500,0.023090079426765442,0.025534607470035553,0.07148388773202896,9.510272979736328,-0.2532855272293091,-2.925733804702759
1413393887295760500,0.021713390946388245,0.010872328653931618,0.07364850491285324,9.118547439575195,0.16367357969284058,-2.991504192352295
1413393887300760500,0.009905770421028137,0.035348743200302124,0.08833851665258408,9.583745956420898,0.4985136091709137,-3.041062355041504
1413393887305760500,-0.022243604063987732,0.024131154641509056,0.09040208905935287,9.207905769348145,0.2861931025981903,-2.991746664047241
1413393887310760500,-0.03062938153743744,0.019240450114011765,0.08822617679834366,9.55072021484375,-0.1552223116159439,-2.9913065433502197
1413393887315760500,-0.021603211760520935,0.026178568601608276,0.0854387953877449,9.117880821228027,-0.30202406644821167,-2.9663448333740234
1413393887320760500,-0.009029746055603027,0.02272409200668335,0.09378895908594131,9.640652656555176,-0.3105887472629547,-3.138072967529297
1413393887325760500,0.008393704891204834,0.024088025093078613,0.08055198937654495,9.109938621520996,-0.4327693283557892,-2.8436825275421143
1413393887330760500,0.025858700275421143,0.017849694937467575,0.07983914762735367,9.575716018676758,-0.37591347098350525,-2.9991939067840576
1413393887335760500,0.02867160737514496,0.03668401390314102,0.06874183565378189,9.14279556274414,-0.032457444816827774,-2.9012529850006104
1413393887340760500,0.016873374581336975,0.0206967294216156,0.09044083207845688,9.477869033813477,0.5312731862068176,-3.0166213512420654
1413393887345760500,-0.015243902802467346,0.03950037434697151,0.07993850857019424,9.387307167053223,0.31064942479133606,-3.081646203994751
1413393887350760500,-0.031313374638557434,0.02761414460837841,0.07362931221723557,9.240333557128906,0.09831789135932922,-2.999680280685425
1413393887355760500,-0.025790199637413025,0.03175798058509827,0.0819501057267189,9.093293190002441,-0.27747225761413574,-3.048030138015747
1413393887360760500,-0.013907775282859802,0.021318156272172928,0.07986008375883102,9.297686576843262,-0.22858057916164398,-3.031914710998535
1413393887365760500,0.0028115510940551758,0.04084765166044235,0.08124034851789474,9.215764999389648,-0.44099849462509155,-2.835439682006836
1413393887370760500,0.012590408325195312,0.01922539621591568,0.0784449502825737,9.322332382202148,-0.4328807592391968,-2.8683393001556396
1413393887375760500,0.030760720372200012,0.028316203504800797,0.07360520213842392,9.26543140411377,-0.14693203568458557,-2.8766937255859375
1413393887380760500,0.0182381272315979,0.00949862040579319,0.07648024708032608,9.126615524291992,0.43334951996803284,-3.016402006149292
1413393887385760500,-0.0005693435668945312,0.03325445204973221,0.08973865956068039,9.493902206420898,0.5067534446716309,-2.992069959640503
1413393887390760500,-0.031301528215408325,0.016457954421639442,0.07991240173578262,9.346641540527344,0.1554587334394455,-3.065218210220337
1413393887395760500,-0.03062877058982849,0.020632626488804817,0.0826655849814415,9.379244804382324,-0.0733720064163208,-3.0076797008514404
1413393887400760500,-0.025076955556869507,0.006659418344497681,0.07774194329977036,9.354781150817871,-0.38379815220832825,-2.9502205848693848
1413393887405760500,-0.004830598831176758,0.02203352376818657,0.08471941202878952,9.68147087097168,-0.31876203417778015,-3.0727832317352295
1413393887410760500,0.00490906834602356,0.019212212413549423,0.07914259284734726,9.216065406799316,-0.4654780328273773,-2.8355860710144043
1413393887415760500,0.026555702090263367,0.015755511820316315,0.07355514913797379,9.559361457824707,-0.41670727729797363,-2.9828460216522217
1413393887420760500,0.030081167817115784,0.022741222754120827,0.07083525508642197,9.265507698059082,0.024681348353624344,-2.9831480979919434
1413393887425760500,0.018271908164024353,0.007422252558171749,0.09111987799406052,9.526833534240723,0.4740387499332428,-3.179978847503662
1413393887430760500,-0.0068773627281188965,0.03810684755444527,0.08552134782075882,9.354866027832031,0.31063511967658997,-2.999920129776001
1413393887435760500,-0.030627503991127014,0.01783718913793564,0.08337520807981491,9.305809020996094,0.00019904077635146677,-3.0567853450775146
1413393887440760500,-0.02716219425201416,0.028289981186389923,0.08266101032495499,9.22400188446045,-0.1386653333902359,-3.031963348388672
1413393887445760500,-0.0125407874584198,0.014325186610221863,0.09030549973249435,9.281436920166016,-0.3838454484939575,-3.0725815296173096
1413393887450760500,0.006288811564445496,0.037364136427640915,0.08611048012971878,9.379165649414062,-0.5064799785614014,-2.9661474227905273
1413393887455760500,0.020952671766281128,0.01572086289525032,0.08264120668172836,9.175509452819824,-0.4573450982570648,-2.8437516689300537
1413393887460760500,0.03494492173194885,0.025528669357299805,0.07638711482286453,9.40434741973877,-0.17971505224704742,-2.9992635250091553
1413393887465760500,0.021010711789131165,0.018543850630521774,0.07995366305112839,9.028533935546875,0.327097088098526,-3.0161690711975098
1413393887470760500,-0.001969844102859497,0.02488727495074272,0.08418052643537521,9.379620552062988,0.5967355370521545,-2.9922099113464355
1413393887475760500,-0.0271264910697937,0.02482505515217781,0.07991652935743332,9.240448951721191,0.14730733633041382,-2.991579532623291
1413393887480760500,-0.03691135346889496,0.024114621803164482,0.07149960845708847,9.313708305358887,-0.11411819607019424,-3.0729598999023438
1413393887485760500,-0.02437986433506012,0.015727069228887558,0.079850934445858,9.256762504577637,-0.3020668029785156,-2.9746813774108887
1413393887490760500,-0.005538180470466614,0.029705949127674103,0.07983214408159256,9.53429126739502,-0.3758276104927063,-2.9500975608825684
1413393887495760500,0.013270974159240723,0.02549489587545395,0.07774416357278824,9.281404495239258,-0.5145471692085266,-2.9335479736328125
1413393887500760500,0.030744433403015137,0.026223592460155487,0.07357051223516464,9.477668762207031,-0.3431420624256134,-2.9664511680603027
1413393887505760500,0.029393211007118225,0.022748565301299095,0.07363762706518173,9.306328773498535,0.11454497277736664,-3.015965223312378
1413393887510760500,0.013389930129051208,0.017908761277794838,0.08067842572927475,9.445133209228516,0.5313209295272827,-3.024811029434204
1413393887515760500,-0.012445122003555298,0.032538145780563354,0.08971748501062393,9.42846965789795,0.3841867446899414,-2.975572347640991
1413393887520760500,-0.034788236021995544,0.026921674609184265,0.07780956476926804,9.43616008758545,0.1391075998544693,-3.195854425430298
1413393887525760500,-0.027168244123458862,0.028995856642723083,0.08682367950677872,9.354562759399414,-0.26948368549346924,-2.9092953205108643
1413393887530760500,-0.017413288354873657,0.023406919091939926,0.07844526320695877,9.346564292907715,-0.3592844307422638,-3.1216228008270264
1413393887535760500,0.00559978187084198,0.03875407204031944,0.08193332701921463,9.223962783813477,-0.4736705422401428,-2.819091558456421
1413393887540760500,0.02374301850795746,0.022016741335392,0.08193852752447128,9.355180740356445,-0.42477330565452576,-2.9990057945251465
1413393887545760500,0.035658180713653564,0.029728364199399948,0.07709366828203201,9.388011932373047,-0.08983339369297028,-2.8441073894500732
1413393887550760500,0.01821981370449066,0.014373287558555603,0.0841745063662529,9.020277976989746,0.5640957951545715,-3.0573830604553223
1413393887555760500,-0.009629875421524048,0.03604789078235626,0.0925372913479805,9.559042930603027,0.5802890658378601,-3.0657308101654053
1413393887560760500,-0.041089996695518494,0.02760431356728077,0.08550246804952621,9.183053016662598,0.22904767096042633,-3.0815536975860596
1413393887565760500,-0.03275980055332184,0.03458143025636673,0.08330752700567245,9.525686264038086,-0.43294253945350647,-2.9745030403137207
1413393887570760500,-0.018810167908668518,0.022696256637573242,0.06936145573854446,9.19926929473877,-0.5470240116119385,-2.8110361099243164
1413393887575760500,0.006982699036598206,0.028978120535612106,0.07494869083166122,9.264958381652832,-0.5716893076896667,-2.990650177001953
1413393887580760500,0.021670296788215637,0.020625479519367218,0.07009481638669968,9.289875030517578,-0.2857765555381775,-3.0644853115081787
1413393887585760500,0.027322635054588318,0.008795051835477352,0.07573602348566055,9.526482582092285,0.3107336759567261,-3.408304214477539
1413393887590760500,0.0029359012842178345,0.03813517093658447,0.07089289277791977,9.575276374816895,0.42502155900001526,-3.098165512084961
1413393887595760500,-0.027746334671974182,0.029059357941150665,0.06740417331457138,9.615888595581055,0.4087478220462799,-3.1391305923461914
1413393887600760500,-0.03481723368167877,0.04157281294465065,0.060298852622509,10.007153511047363,-0.5147624611854553,-3.3828823566436768
1413393887605760500,-0.009036436676979065,0.0206245519220829,0.06793301552534103,9.501287460327148,-0.6452318429946899,-2.8193280696868896
1413393887610760500,0.015369102358818054,0.05132390186190605,0.08404476195573807,9.346667289733887,-0.2858780324459076,-3.1622743606567383
1413393887615760500,0.03280861675739288,0.057573989033699036,0.12457262724637985,8.938621520996094,0.016360552981495857,-2.8274874687194824
1413393887620760500,0.023019686341285706,0.035928502678871155,0.15315690636634827,8.987775802612305,-0.03277915343642235,-2.949934482574463
1413393887625760500,0.023018479347229004,0.05900034308433533,0.14333710074424744,9.4284029006958,-0.2454662024974823,-2.9497129917144775
1413393887630760500,0.01606820523738861,0.03244515508413315,0.11898813396692276,8.873353958129883,-0.05708257108926773,-2.7947921752929688
1413393887635760500,0.000766456127166748,0.02482873946428299,0.10927023738622665,9.134540557861328,0.4822523593902588,-3.0572915077209473
1413393887640760500,-0.03970038890838623,0.05134169012308121,0.08202850073575974,9.068655014038086,0.20462830364704132,-2.6726553440093994
1413393887645760500,-0.051590755581855774,0.0338587686419487,0.053320564329624176,9.174325942993164,-0.4896816909313202,-2.958073616027832
1413393887650760500,-0.020184412598609924,0.03172862157225609,0.023984111845493317,9.019013404846191,-1.0774749517440796,-2.7131099700927734
1413393887655760500,0.015417858958244324,0.011505380272865295,0.032436855137348175,8.636329650878906,-0.3016739785671234,-2.6475915908813477
1413393887660760500,0.03079049289226532,0.049275003373622894,0.05059374123811722,9.460932731628418,-0.040775831788778305,-3.0238113403320312
1413393887665760500,0.01123414933681488,0.03593211621046066,0.055531032383441925,8.513566970825195,0.18023185431957245,-2.6315033435821533
1413393887670760500,0.012661203742027283,-0.0002775751054286957,0.06872978061437607,9.49413013458252,0.03282646834850311,-3.212118625640869
1413393887675760500,-0.0005674064159393311,0.033271804451942444,0.07020781189203262,9.387852668762207,0.4579169452190399,-2.771216630935669
1413393887680760500,-0.009011492133140564,0.004585897549986839,0.13437888026237488,9.167359352111816,0.5475959777832031,-3.122748613357544
1413393887685760500,-0.03902655839920044,0.03389015048742294,0.1098332330584526,9.542263984680176,-0.171647846698761,-2.835869550704956
1413393887690760500,-0.019544869661331177,-0.014999940991401672,0.10910766571760178,9.395772933959961,-0.6290889382362366,-2.974620819091797
1413393887695760500,9.529292583465576e-05,0.004591029137372971,0.07283598929643631,10.187638282775879,-0.40076473355293274,-3.0649285316467285
1413393887700760500,0.00987127423286438,-0.0072549208998680115,0.10851538926362991,9.519018173217773,0.23694723844528198,-3.0898592472076416
1413393887705760500,-0.007622197270393372,0.042971171438694,0.06797084957361221,9.983026504516602,-0.4985564649105072,-3.292991876602173
1413393887710760500,0.011939838528633118,0.008079491555690765,0.06938564032316208,8.922393798828125,-0.3098617196083069,-2.2718496322631836
1413393887715760500,0.02591526508331299,0.007390361279249191,0.05334556847810745,10.351258277893066,-0.4416181743144989,-3.432227373123169
1413393887720760500,0.020991668105125427,0.036038562655448914,0.067479707300663,8.889396667480469,0.8257501721382141,-2.8286545276641846
1413393887725760500,0.001506119966506958,0.03181970864534378,0.09598731249570847,9.526188850402832,0.4494931995868683,-3.302332878112793
1413393887730760500,-0.021587058901786804,0.07710917294025421,0.07851716130971909,8.700759887695312,-0.04036884382367134,-2.4595255851745605
1413393887735760500,-0.010414138436317444,-0.0003319699317216873,0.09595111757516861,9.012296676635742,0.016595298424363136,-3.0076568126678467
1413393887740760500,-0.013919919729232788,0.04504300281405449,0.07636237889528275,9.37080192565918,-0.22851596772670746,-3.2849161624908447
1413393887745760500,-0.00905369222164154,0.026123136281967163,0.10921000689268112,8.668957710266113,-0.09780284017324448,-2.917273998260498
1413393887750760500,-0.014666140079498291,0.05965130776166916,0.0854174867272377,9.035619735717773,-0.6696035861968994,-2.892226219177246
1413393887755760500,0.0007375478744506836,0.014969255775213242,0.07991708070039749,8.570992469787598,-0.24467791616916656,-2.6393978595733643
1413393887760760500,0.020280376076698303,-0.0044714100658893585,0.05611231178045273,9.747224807739258,-0.45750513672828674,-3.399562358856201
1413393887765760500,0.01963663101196289,0.015078934840857983,0.0639120563864708,9.09384822845459,0.3435058891773224,-2.950864553451538
1413393887770760500,0.005697488784790039,0.020635413005948067,0.07709988206624985,9.844527244567871,0.06543315947055817,-3.563077926635742
1413393887775760500,-0.01666794717311859,0.04712780937552452,0.04365559667348862,8.578512191772461,0.12326925247907639,-2.345196008682251
1413393887780760500,-0.010377705097198486,-0.02122671902179718,0.07637900859117508,9.486173629760742,-0.13882173597812653,-2.999781847000122
1413393887785760500,-0.0180041640996933,0.011575624346733093,0.04986456781625748,10.056790351867676,-0.24524977803230286,-3.285478115081787
1413393887790760500,-0.0027077198028564453,0.00459950789809227,0.09944327920675278,9.314706802368164,0.11451481282711029,-2.8118021488189697
1413393887795760500,-0.013178929686546326,0.04646126180887222,0.09029858559370041,9.983077049255371,-0.27002832293510437,-3.097221851348877
1413393887800760500,-0.01391775906085968,0.01638578251004219,0.08407937735319138,8.79959774017334,-0.2365458756685257,-2.7212131023406982
1413393887805760500,0.013282492756843567,0.003887500613927841,0.09097058326005936,10.253135681152344,-0.6378152370452881,-3.285107135772705
1413393887810760500,0.021676063537597656,0.033871863037347794,0.1001545712351799,9.00407886505127,0.057354919612407684,-2.8032052516937256
1413393887815760500,0.021746933460235596,0.035311054438352585,0.11201106756925583,9.730768203735352,0.35118526220321655,-3.212305784225464
1413393887820760500,-0.006227463483810425,0.05342450365424156,0.08757057040929794,9.076972007751465,-0.04061271622776985,-2.6477677822113037
1413393887825760500,-0.006911620497703552,0.012951845303177834,0.08477549999952316,9.232658386230469,-0.024322038516402245,-3.015845775604248
1413393887830760500,6.374716758728027e-05,0.02901645004749298,0.07566720992326736,9.640606880187988,-0.25332143902778625,-3.146287202835083
1413393887835760500,0.0007466226816177368,0.037310462445020676,0.08133826404809952,8.619845390319824,0.1637418568134308,-2.852283000946045
1413393887840760500,-0.008296594023704529,0.031107155606150627,0.09039900451898575,9.167158126831055,0.22898392379283905,-2.9180359840393066
1413393887845760500,-0.020880088210105896,0.03244452551007271,0.06734105199575424,8.782944679260254,-0.1629302054643631,-2.688551187515259
1413393887850760500,-0.01110924780368805,-0.008006397634744644,0.07220344990491867,9.03675365447998,-0.16303658485412598,-3.040210008621216
1413393887855760500,0.0063256919384002686,0.012949764728546143,0.07497615367174149,9.330629348754883,-0.2449236959218979,-3.129946231842041
1413393887860760500,0.010531604290008545,0.0038537289947271347,0.07784532755613327,8.783699035644531,0.057548340409994125,-2.7378933429718018
1413393887865760500,0.007820338010787964,0.012999095022678375,0.0708349272608757,9.771697998046875,0.1061592623591423,-3.0815913677215576
1413393887870760500,-0.004105105996131897,0.004572989419102669,0.06387408822774887,8.946877479553223,0.03309837728738785,-2.762515068054199
1413393887875760500,-0.008969783782958984,-0.011452842503786087,0.07848387211561203,9.575708389282227,0.008281148038804531,-3.285717725753784
1413393887880760500,-0.008300423622131348,0.02971077524125576,0.0882316306233406,9.648762702941895,-0.13899120688438416,-3.1382505893707275
1413393887885760500,-0.005550399422645569,0.010134443640708923,0.08404462784528732,9.159109115600586,-0.30207154154777527,-3.0154800415039062
1413393887890760500,-0.004748255014419556,0.01507652923464775,0.07776113599538803,10.016392707824707,-0.09836535155773163,-2.9834399223327637
1413393887895760500,-0.003412902355194092,0.019248850643634796,0.07707958668470383,9.41220474243164,-0.13063383102416992,-2.885058879852295
1413393887900760500,-0.011064976453781128,0.01576380804181099,0.07428499311208725,9.714218139648438,-0.11443252861499786,-3.154799461364746
1413393887905760500,-0.00413648784160614,0.03110579401254654,0.08471538871526718,9.689482688903809,-0.3433034121990204,-3.040010929107666
1413393887910760500,0.012575805187225342,0.024090003222227097,0.09102260321378708,9.142799377441406,-0.3593394160270691,-2.9254157543182373
1413393887915760500,0.014070108532905579,0.0234626904129982,0.07362153381109238,9.600207328796387,0.0735149011015892,-2.9997167587280273
1413393887920760500,0.004258021712303162,0.025514984503388405,0.07922930270433426,9.036649703979492,0.1064881980419159,-2.8033969402313232
1413393887925760500,-0.008972525596618652,0.01297287829220295,0.0854724571108818,9.542896270751953,0.06540818512439728,-3.154959201812744
1413393887930760500,-0.010378137230873108,0.04995268955826759,0.09592738002538681,9.664881706237793,0.040716249495744705,-3.1383450031280518
1413393887935760500,-0.004175886511802673,0.04005233198404312,0.10153263062238693,8.513714790344238,-0.19581158459186554,-2.8925533294677734
1413393887940760500,0.0014440864324569702,0.022728458046913147,0.08821915835142136,9.461125373840332,-0.27780476212501526,-2.9011871814727783
1413393887945760500,0.00981256365776062,0.05061745271086693,0.08269122987985611,9.044468879699707,-0.08149653673171997,-2.843881368637085
1413393887950760500,0.006333082914352417,0.005926564335823059,0.08691344410181046,8.718305587768555,0.04933568090200424,-2.827725887298584
1413393887955760500,-0.007554367184638977,0.02693769708275795,0.07222967594861984,9.648709297180176,0.09810322523117065,-3.212130546569824
1413393887960760500,-0.006229788064956665,0.04013765975832939,0.08060508221387863,8.970927238464355,0.04114412143826485,-2.9993438720703125
1413393887965760500,0.0035360753536224365,0.0024540871381759644,0.07989086955785751,8.955126762390137,-0.2121134251356125,-2.819443464279175
1413393887970760500,0.00013534724712371826,0.022777022793889046,0.0561990961432457,9.518321990966797,0.14724694192409515,-2.9426331520080566
1413393887975760500,-0.0006202608346939087,0.008755035698413849,0.07017985731363297,8.832551956176758,0.15565887093544006,-2.7216789722442627
1413393887980760500,-0.0144805908203125,0.005308728665113449,0.0638517215847969,9.983722686767578,0.04075655713677406,-3.2041890621185303
1413393887985760500,-0.018732860684394836,0.04788085073232651,0.06660956889390945,9.640117645263672,-0.08988063782453537,-2.852329730987549
1413393887990760500,-0.010437443852424622,0.005956854671239853,0.08261203020811081,9.330342292785645,-0.498191237449646,-2.835731029510498
1413393887995760500,0.0007412433624267578,0.029714085161685944,0.0804847851395607,10.007412910461426,-0.5967214107513428,-2.9909050464630127
1413393888000760500,0.011240214109420776,0.03878409042954445,0.07503563910722733,9.191632270812988,0.13909825682640076,-2.97505259513855
1413393888005760500,0.016838401556015015,0.00460771843791008,0.08830177038908005,9.26578140258789,0.20442721247673035,-2.926276683807373
1413393888010760500,0.007800057530403137,0.017170773819088936,0.09104939550161362,9.837051391601562,0.0733276903629303,-3.13049578666687
1413393888015760500,-0.01108446717262268,0.03110717236995697,0.08687657862901688,9.363021850585938,0.09817061573266983,-3.0813231468200684
1413393888020760500,-0.00972755253314972,0.005271404981613159,0.1021680012345314,9.461328506469727,-0.2614938020706177,-2.950312614440918
1413393888025760500,0.0007037371397018433,0.023405514657497406,0.08958583325147629,9.436412811279297,-0.5637122988700867,-2.9825668334960938
1413393888030760500,0.002157643437385559,0.01294272392988205,0.07152309268712997,9.004011154174805,-0.13038164377212524,-2.696932792663574
1413393888035760500,0.010561570525169373,0.0025102440267801285,0.0841049775481224,9.322799682617188,0.1635666787624359,-3.0406765937805176
1413393888040760500,-0.001307174563407898,0.019253091886639595,0.08201973885297775,9.22452449798584,0.1799706071615219,-2.918039321899414
1413393888045760500,-0.013892218470573425,0.012238003313541412,0.07361353188753128,9.069178581237793,-0.040526703000068665,-3.0157766342163086
1413393888050760500,-0.013879671692848206,0.02552521787583828,0.07987207919359207,9.460984230041504,-0.09796705096960068,-3.0157907009124756
1413393888055760500,-0.001370951533317566,0.035935528576374054,0.07777910679578781,8.962808609008789,-0.31015145778656006,-2.909019708633423
1413393888060760500,0.009831219911575317,0.015049964189529419,0.07010505348443985,9.25717544555664,-0.19589371979236603,-2.893090009689331
1413393888065760500,0.011938363313674927,0.020637672394514084,0.07922331243753433,9.134745597839355,0.09827671200037003,-2.8933444023132324
1413393888070760500,0.008459284901618958,0.011574951931834221,0.08619152754545212,9.314481735229492,0.13087719678878784,-3.048748016357422
1413393888075760500,-0.008943378925323486,0.014379411935806274,0.0778200700879097,9.616228103637695,0.18802227079868317,-3.2204909324645996
1413393888080760500,-0.022931456565856934,0.03669413924217224,0.08059098571538925,9.509708404541016,0.06545798480510712,-3.1385061740875244
1413393888085760500,-0.013935446739196777,0.02757662534713745,0.08194134384393692,9.166940689086914,-0.35921770334243774,-3.07248592376709
1413393888090760500,0.0021514147520065308,0.024828124791383743,0.0763576552271843,9.567193031311035,-0.29415202140808105,-3.0074236392974854
1413393888095760500,0.013316452503204346,0.022019699215888977,0.0778031125664711,9.134706497192383,-0.07331731915473938,-2.9258010387420654
1413393888100760500,0.014748185873031616,0.016468187794089317,0.08268136531114578,9.575764656066895,0.02449924685060978,-3.1303586959838867
1413393888105760500,0.0049987733364105225,0.02066144160926342,0.07920955866575241,9.591906547546387,0.1307654082775116,-3.1386799812316895
1413393888110760500,-0.014505654573440552,0.042996086180210114,0.0680738314986229,9.68102741241455,0.269741952419281,-3.2286415100097656
1413393888115760500,-0.017394274473190308,0.049932077527046204,0.0812690481543541,9.191123962402344,-0.15503932535648346,-2.794843912124634
1413393888120760500,-0.004856899380683899,0.02411261573433876,0.08959073573350906,9.428189277648926,-0.44931715726852417,-2.8519809246063232
1413393888125760500,0.0077158063650131226,0.031081920489668846,0.0882531926035881,9.11819076538086,-0.18774211406707764,-2.81935715675354
1413393888130760500,0.012643218040466309,0.01786091923713684,0.09175462275743484,9.453362464904785,0.04085162281990051,-2.9832794666290283
1413393888135760500,0.011235952377319336,0.02482966147363186,0.08686336129903793,9.428659439086914,-0.02447894774377346,-3.07299542427063
1413393888140760500,-0.014521017670631409,0.028342902660369873,0.0736527219414711,9.558847427368164,0.2779562771320343,-3.1715505123138428
1413393888145760500,-0.023657023906707764,0.05273159593343735,0.07221602648496628,9.199213981628418,-0.040616147220134735,-2.8358616828918457
1413393888150760500,-0.009058520197868347,0.03592967242002487,0.07985516637563705,8.970771789550781,-0.4735085964202881,-2.8435111045837402
1413393888155760500,0.009791955351829529,0.017805684357881546,0.08195243030786514,9.0692138671875,-0.41642534732818604,-2.8192007541656494
1413393888160760500,0.018906638026237488,0.022725090384483337,0.07921800762414932,9.06945514678955,0.016581352800130844,-2.7951152324676514
1413393888165760500,0.01402987539768219,0.017152026295661926,0.08128853887319565,9.363388061523438,0.008282899856567383,-3.1302335262298584
1413393888170760500,0.0008098036050796509,0.011603678576648235,0.0715891495347023,9.224611282348633,0.3598344624042511,-2.9101479053497314
1413393888175760500,-0.020792901515960693,0.026259873062372208,0.07296482473611832,9.542612075805664,0.31066539883613586,-3.065443277359009
1413393888180760500,-0.034149035811424255,0.04084033519029617,0.07567306607961655,9.084779739379883,-0.2856101393699646,-2.7702009677886963
1413393888185760500,-0.01256309449672699,0.005231976509094238,0.0909717008471489,9.23210620880127,-0.7351052761077881,-2.876373767852783
1413393888190760500,0.016107961535453796,0.013663426041603088,0.08613797277212143,9.502303123474121,-0.20430564880371094,-2.9911887645721436
1413393888195760500,0.02170690894126892,0.012971246615052223,0.09176353365182877,9.331024169921875,0.04907603561878204,-2.9423935413360596
1413393888200760500,0.009904995560646057,-0.0009599458426237106,0.07432184368371964,9.698448181152344,0.11438243836164474,-3.1061606407165527
1413393888205760500,-0.006794795393943787,0.003937583416700363,0.06250462681055069,9.755127906799316,0.33516281843185425,-3.228959798812866
1413393888210760500,-0.02221234142780304,0.04159308969974518,0.06386115401983261,9.517762184143066,0.10637254267930984,-3.0895566940307617
1413393888215760500,-0.01951923966407776,0.021273359656333923,0.08544046431779861,8.970966339111328,-0.367327481508255,-2.941723346710205
1413393888220760500,1.8388032913208008e-05,0.008055225014686584,0.0853947177529335,9.461060523986816,-0.5555279850959778,-2.933741331100464
1413393888225760500,0.018184930086135864,0.020626459270715714,0.096617691218853,9.322659492492676,-0.15522179007530212,-2.9992542266845703
1413393888230760500,0.016832083463668823,0.017156504094600677,0.08827351778745651,9.45319938659668,0.13081367313861847,-3.2284131050109863
1413393888235760500,0.005005732178688049,0.012995125725865364,0.07714096456766129,9.469552993774414,0.26161208748817444,-3.081697702407837
1413393888240760500,-0.016590222716331482,0.015080535784363747,0.07155350595712662,9.738508224487305,0.24523897469043732,-3.2941107749938965
1413393888245760500,-0.027178913354873657,0.05269277095794678,0.07917378097772598,9.019475936889648,-0.22845375537872314,-2.8437042236328125
1413393888250760500,-0.00489121675491333,0.030350226908922195,0.09309247881174088,9.093277931213379,-0.6043567657470703,-2.876143217086792
1413393888255760500,0.01956181228160858,0.01921594887971878,0.09870021790266037,9.167399406433105,-0.3267211318016052,-2.7784202098846436
1413393888260760500,0.02727431058883667,0.023429324850440025,0.08966376632452011,9.306386947631836,-0.024461206048727036,-2.999412775039673
1413393888265760500,0.015449702739715576,0.023448189720511436,0.07923103123903275,9.371419906616211,0.24528087675571442,-3.138720750808716
1413393888270760500,-0.013112187385559082,0.018585937097668648,0.04923870414495468,9.477222442626953,0.24540384113788605,-3.1062121391296387
1413393888275760500,-0.022214636206626892,0.03740641102194786,0.055505238473415375,9.346290588378906,0.1800435483455658,-3.056976556777954
1413393888280760500,-0.022274285554885864,0.049219872802495956,0.06312950700521469,8.99494743347168,-0.2283574491739273,-2.6721367835998535
1413393888285760500,-0.006961792707443237,0.021979741752147675,0.09101168066263199,8.987161636352539,-0.5143876075744629,-2.6801748275756836
1413393888290760500,0.009168624877929688,0.010191325098276138,0.09944913536310196,9.46160888671875,0.204299658536911,-3.032548427581787
1413393888295760500,0.004278331995010376,0.020657995715737343,0.08761651068925858,9.240921020507812,0.27801039814949036,-2.918156862258911
1413393888300760500,-0.012471750378608704,0.012268031015992165,0.07149603217840195,9.616129875183105,-0.09791433066129684,-3.31811261177063
1413393888305760500,-0.010372459888458252,0.016464311629533768,0.07847189158201218,9.632622718811035,-0.09806248545646667,-3.0241053104400635
1413393888310760500,0.003502592444419861,0.041568197309970856,0.07142778486013412,9.705297470092773,-0.7026065587997437,-3.0233075618743896
1413393888315760500,0.033487722277641296,0.04502979293465614,0.10007540136575699,9.166998863220215,-0.555483877658844,-2.737224578857422
1413393888320760500,0.05237336456775665,0.007375847548246384,0.11476876586675644,9.35597038269043,-0.09819120913743973,-2.974809408187866
1413393888325760500,0.02109605073928833,0.031165987253189087,0.09464260190725327,9.75513744354248,0.6864338517189026,-3.212822437286377
1413393888330760500,-0.033376544713974,0.0235106460750103,0.0660947784781456,9.27281379699707,0.8909773826599121,-3.1397433280944824
1413393888335760500,-0.0515226274728775,0.024134639650583267,0.06456393748521805,9.37886905670166,0.14738991856575012,-3.1142663955688477
1413393888340760500,-0.05575115978717804,0.04226303473114967,0.04911027103662491,9.353484153747559,-0.4815559387207031,-2.7048447132110596
1413393888345760500,-0.018143758177757263,0.008691217750310898,0.07983163744211197,8.946287155151367,-0.7512511014938354,-2.8844170570373535
1413393888350760500,0.038377076387405396,0.016427792608737946,0.11543028801679611,9.314658164978027,-0.40046799182891846,-2.900890588760376
1413393888355760500,0.04612809419631958,0.010180145502090454,0.10993077605962753,9.33120346069336,0.2778579890727997,-3.11417555809021
1413393888360760500,0.014781787991523743,0.02347473055124283,0.08693348616361618,9.53483772277832,0.44135400652885437,-3.1063766479492188
1413393888365760500,-0.010368138551712036,0.02832307666540146,0.07220620661973953,9.648660659790039,-0.04896899685263634,-3.2282607555389404
1413393888370760500,-0.011780709028244019,0.047170884907245636,0.05123899132013321,9.541958808898926,-0.3021712005138397,-2.868398427963257
1413393888375760500,0.011913225054740906,0.0401482954621315,0.08200954645872116,8.922142028808594,-0.024232594296336174,-2.7213706970214844
1413393888380760500,0.00636620819568634,0.034602947533130646,0.08133628219366074,9.264893531799316,0.36790531873703003,-3.2041757106781006
1413393888385760500,-0.03339532017707825,0.051353245973587036,0.07019408792257309,9.199048042297363,0.4415190815925598,-3.081814765930176
1413393888390760500,-0.05432698130607605,0.029707733541727066,0.07293262332677841,9.346092224121094,0.16372081637382507,-3.155078887939453
1413393888395760500,-0.050193652510643005,0.04364205151796341,0.06092854589223862,9.312254905700684,-0.8653287291526794,-2.6475536823272705
1413393888400760500,-0.00488165020942688,0.030296295881271362,0.07706781476736069,8.627494812011719,-0.8573222756385803,-2.6228220462799072
1413393888405760500,0.046732887625694275,-0.0017299018800258636,0.09168864041566849,9.273857116699219,-0.686305820941925,-2.933584690093994
1413393888410760500,0.05242075026035309,-0.0009712241590023041,0.07642633467912674,9.290576934814453,0.07365399599075317,-2.9506099224090576
1413393888415760500,0.037120163440704346,0.001848345622420311,0.07295423001050949,9.592543601989746,0.2533482313156128,-3.0571930408477783
1413393888420760500,0.005746960639953613,0.0032711829990148544,0.08555329591035843,9.633352279663086,0.5068015456199646,-2.9349989891052246
1413393888425760500,-0.01593911647796631,0.01719598099589348,0.09671137481927872,9.339035034179688,0.4578544497489929,-2.83673357963562
1413393888430760500,-0.04596531391143799,0.005300402641296387,0.08696170896291733,9.077293395996094,0.5151434540748596,-2.9512648582458496
1413393888435760500,-0.06272377073764801,0.008761454373598099,0.07633406668901443,9.762513160705566,-0.35128018260002136,-3.1220126152038574
1413393888440760500,-0.05298541486263275,0.018498264253139496,0.05121014267206192,9.149882316589355,-0.6039568185806274,-2.8600926399230957
1413393888445760500,0.006962582468986511,0.013631727546453476,0.08954360336065292,9.599425315856934,-0.8986992239952087,-2.982614755630493
1413393888450760500,0.043298378586769104,0.03807500749826431,0.09105030447244644,9.257369041442871,-0.11434213072061539,-2.958305597305298
1413393888455760500,0.05587635934352875,0.030405903235077858,0.10783634334802628,9.241272926330566,0.20429643988609314,-3.0404226779937744
1413393888460760500,0.02449992299079895,0.04436913877725601,0.06038527935743332,9.1996488571167,0.1555226892232895,-3.0894126892089844
1413393888465760500,0.011277198791503906,0.015086488798260689,0.08273816853761673,9.404151916503906,0.37603694200515747,-3.147141933441162
1413393888470760500,0.003586128354072571,0.02903200127184391,0.0889870896935463,9.444915771484375,0.18798138201236725,-3.0324642658233643
1413393888475760500,-0.02158677577972412,0.028255049139261246,0.09254705160856247,8.636041641235352,0.49058783054351807,-2.8854990005493164
1413393888480760500,-0.048071250319480896,0.00666852667927742,0.0896451398730278,9.37108039855957,-0.016154063865542412,-3.1058907508850098
1413393888485760500,-0.05787324905395508,0.008038971573114395,0.05679725855588913,9.23180866241455,-0.5141932368278503,-3.1053476333618164
1413393888490760500,-0.0034674406051635742,-0.0017141886055469513,0.08257868140935898,9.567049980163574,-0.6617234945297241,-2.876680374145508
1413393888495760500,0.023045122623443604,0.012269202619791031,0.08051811903715134,9.983840942382812,-0.5885530114173889,-3.325850486755371
1413393888500760500,0.03075478971004486,0.05271821841597557,0.07783666998147964,8.881314277648926,0.04933582618832588,-2.6314563751220703
1413393888505760500,0.014047399163246155,0.022746816277503967,0.07011189311742783,9.657188415527344,-0.08172924071550369,-3.211883068084717
1413393888510760500,0.00915592908859253,0.0422830730676651,0.07779120653867722,9.607942581176758,-0.040909670293331146,-3.1382739543914795
1413393888515760500,0.02869771420955658,0.02972983382642269,0.11200093477964401,9.567768096923828,0.2122907191514969,-3.040602445602417
1413393888520760500,0.0035409629344940186,0.09040787070989609,0.10366912931203842,9.264261245727539,0.4657817780971527,-3.195974826812744
1413393888525760500,-0.029267728328704834,0.05478003993630409,0.10019472986459732,8.725716590881348,0.25370359420776367,-2.590771436691284
1413393888530760500,-0.05297057330608368,0.03039475902915001,0.06170051544904709,9.46023178100586,-0.26103928685188293,-3.407660722732544
1413393888535760500,-0.02300022542476654,0.05689636245369911,0.07145894318819046,9.190572738647461,-0.5061830878257751,-2.7617664337158203
1413393888540760500,0.01393859088420868,0.027560975402593613,0.08542142063379288,9.109926223754883,-0.6452112793922424,-2.990518569946289
1413393888545760500,0.02725014090538025,0.042902521789073944,0.07712889462709427,8.603575706481934,-0.21202924847602844,-2.541257619857788
1413393888550760500,0.018214210867881775,-0.006621595472097397,0.054097674787044525,8.653024673461914,-0.1792471706867218,-2.557865619659424
1413393888555760500,0.019013911485671997,-0.011423397809267044,0.05689125508069992,9.90241813659668,0.1471000462770462,-3.3430798053741455
1413393888560760500,0.016886964440345764,0.025584127753973007,0.07371071726083755,9.510072708129883,0.6048578023910522,-3.163760185241699
1413393888565760500,-0.0013238638639450073,0.03322868421673775,0.10996856540441513,9.151193618774414,0.43341493606567383,-2.64841365814209
1413393888570760500,-0.035524964332580566,0.042955078184604645,0.08268452435731888,9.09315013885498,-0.0241896603256464,-2.6642329692840576
1413393888575760500,-0.03134050965309143,-0.005197122693061829,0.07285287231206894,9.44465446472168,-0.37563082575798035,-2.9177207946777344
1413393888580760500,-0.005541086196899414,0.024822719395160675,0.08191201835870743,9.82005786895752,-0.4658765494823456,-3.1461434364318848
1413393888585760500,0.009144380688667297,0.019258085638284683,0.10915670543909073,9.592172622680664,-0.05734550207853317,-2.7870712280273438
1413393888590760500,0.00843280553817749,0.031111327931284904,0.0979914739727974,9.640851974487305,-0.17178373038768768,-3.0074753761291504
1413393888595760500,-0.0020344555377960205,0.02692238986492157,0.06374985724687576,9.435985565185547,-0.522604763507843,-2.6314337253570557
1413393888600760500,0.01401740312576294,0.026231635361909866,0.04984477907419205,9.640620231628418,-0.37574175000190735,-3.15436053276062
1413393888605760500,0.028740063309669495,0.011624949052929878,0.06800145655870438,9.665868759155273,2.65777107415488e-05,-2.631913661956787
1413393888610760500,0.010576128959655762,0.0262596495449543,0.07847786694765091,9.616511344909668,-0.008228722028434277,-2.7626278400421143
1413393888615760500,-0.011786699295043945,0.05553865432739258,0.07154164463281631,9.068767547607422,0.09023549407720566,-2.574312448501587
1413393888620760500,-0.017383486032485962,0.013637853786349297,0.08756370097398758,9.16714096069336,0.04109286516904831,-3.146576166152954
1413393888625760500,-0.0068930089473724365,0.02412109076976776,0.1147763654589653,9.550768852233887,0.26965752243995667,-3.3428258895874023
1413393888630760500,-0.01811133325099945,0.026192113757133484,0.11614007502794266,9.314055442810059,-0.08986953645944595,-3.1054458618164062
1413393888635760500,-0.0202082097530365,0.03873969614505768,0.0819522812962532,9.101396560668945,-0.302009254693985,-2.941753387451172
1413393888640760500,0.016064465045928955,0.0003446638584136963,0.08194649964570999,8.987719535827637,-0.5470744967460632,-2.753848075866699
1413393888645760500,0.03498201072216034,0.008796809241175652,0.08687347918748856,9.57607364654541,0.06534028053283691,-3.154895544052124
1413393888650760500,0.009864583611488342,0.0311264768242836,0.07644786685705185,9.289704322814941,0.24530446529388428,-2.991633415222168
1413393888655760500,-0.016664519906044006,0.06250346451997757,0.0519823357462883,9.386679649353027,-0.016039356589317322,-3.2443699836730957
1413393888660760500,0.002855435013771057,0.003126157447695732,0.07018806785345078,8.399579048156738,-0.03216428682208061,-2.3861353397369385
1413393888665760500,0.012706786394119263,0.025561776012182236,0.09877469390630722,9.76347827911377,0.40032538771629333,-3.1553359031677246
1413393888670760500,-0.018788516521453857,0.07086905837059021,0.06939984112977982,9.378521919250488,-0.1959497332572937,-3.080648899078369
1413393888675760500,-0.022302404046058655,0.023333851248025894,0.08056960254907608,8.603034973144531,-0.6203213930130005,-2.524815320968628
1413393888680760500,0.02444058656692505,0.016440458595752716,0.09658543020486832,9.494136810302734,-0.3922702968120575,-3.064422369003296
1413393888685760500,0.0070657432079315186,0.01577850989997387,0.09811604768037796,9.232560157775879,0.5640116930007935,-3.139177083969116
1413393888690760500,-0.03200457990169525,0.04088050127029419,0.05474735051393509,9.631742477416992,-0.21229641139507294,-3.203498125076294
1413393888695760500,-0.009711787104606628,-0.017122671008110046,0.05894165486097336,8.587335586547852,-0.563025951385498,-2.4434168338775635
1413393888700760500,0.02593483030796051,0.024163194000720978,0.06521416455507278,9.85326862335205,-0.12278567254543304,-2.9832122325897217
1413393888705760500,0.00710393488407135,0.017176680266857147,0.0757688507437706,9.526004791259766,0.5150163769721985,-3.4004313945770264
1413393888710760500,-0.027836427092552185,0.027607884258031845,0.0547313317656517,9.084883689880371,-0.30181190371513367,-2.5251576900482178
1413393888715760500,0.013960868120193481,-0.0017103403806686401,0.09092608839273453,9.746598243713379,-0.8334593176841736,-2.9011762142181396
1413393888720760500,0.03427128493785858,0.012271960265934467,0.11484510451555252,9.412152290344238,0.6539537310600281,-3.4250123500823975
1413393888725760500,-0.00959421694278717,0.06324836611747742,0.08479829877614975,9.991400718688965,0.26117339730262756,-2.983461380004883
1413393888730760500,-0.0293198823928833,0.03104839101433754,0.09097708016633987,9.18281364440918,-0.702377438545227,-3.0231542587280273
1413393888735760500,0.012603655457496643,0.04503966122865677,0.10365696996450424,8.848726272583008,0.0902334451675415,-2.492479085922241
1413393888740760500,0.0036897659301757812,0.05755366012454033,0.10294664651155472,10.48083782196045,0.22841191291809082,-3.6688437461853027
1413393888745760500,-0.022974982857704163,0.04915253072977066,0.05686863511800766,8.398693084716797,-0.41598156094551086,-2.3858561515808105
1413393888750760500,0.004234403371810913,0.014294419437646866,0.06244827061891556,8.734355926513672,-0.32631683349609375,-2.672132730484009
1413393888755760500,0.03648671507835388,0.04151996225118637,0.10923034697771072,10.456830978393555,0.36735624074935913,-3.644526720046997
1413393888760760500,-0.009721606969833374,0.0805467963218689,0.060386963188648224,8.423124313354492,-0.05673297122120857,-2.5576012134552
1413393888765760500,-0.014580324292182922,-0.008713752031326294,0.0351841077208519,8.913839340209961,-0.5221828818321228,-2.59879994392395
1413393888770760500,0.015489563345909119,0.012957928702235222,0.09807711094617844,9.811647415161133,0.539567768573761,-3.6369986534118652
1413393888775760500,-0.007654651999473572,0.07843093574047089,0.07082491368055344,8.496858596801758,-0.2773953080177307,-2.7861900329589844
1413393888780760500,-0.038302674889564514,0.017779376357793808,0.024021528661251068,8.725383758544922,-0.5873345136642456,-2.5413753986358643
1413393888785760500,0.009919166564941406,0.011569783091545105,0.1057354137301445,9.885590553283691,0.40855687856674194,-3.4818711280822754
1413393888790760500,0.011858150362968445,0.07222011685371399,0.1112770065665245,8.946191787719727,-0.2940388023853302,-2.777998685836792
1413393888795760500,-0.005531609058380127,0.010819710791110992,0.06377089768648148,8.80731201171875,-0.7835413813591003,-2.3781449794769287
1413393888800760500,0.0182257741689682,-0.03308122605085373,0.09674198180437088,8.939251899719238,0.5313835740089417,-3.0001165866851807
1413393888805760500,0.012715786695480347,0.0109024066478014,0.11691875010728836,9.82071590423584,0.539256751537323,-3.25351619720459
1413393888810760500,-0.025772839784622192,0.0136408731341362,0.06300760060548782,9.565999031066895,-0.8574745655059814,-2.7458999156951904
1413393888815760500,-0.016674533486366272,-0.02757798135280609,0.05058696120977402,8.702011108398438,-0.22003242373466492,-2.811330795288086
1413393888820760500,0.008620306849479675,0.011561473831534386,0.09320171922445297,10.334755897521973,0.43288397789001465,-3.473721742630005
1413393888825760500,-0.009714633226394653,0.03600229695439339,0.10001633316278458,9.705347061157227,-0.3841760754585266,-2.6641552448272705
1413393888830760500,-0.011114537715911865,-0.008782554417848587,0.049174778163433075,8.505894660949707,-0.3752383589744568,-2.8681821823120117
1413393888835760500,0.030893072485923767,-0.002377515658736229,0.11687400192022324,10.278438568115234,0.3182567059993744,-3.285970449447632
1413393888840760500,0.0035407692193984985,0.05830830708146095,0.10845857113599777,9.803659439086914,-0.12284824252128601,-3.3502490520477295
1413393888845760500,-0.011801227927207947,0.022586632519960403,0.06250637024641037,7.982661247253418,-0.07311996072530746,-2.426866292953491
1413393888850760500,0.016892701387405396,0.011583354324102402,0.11201455444097519,9.853330612182617,0.408481240272522,-3.3349814414978027
1413393888855760500,-0.0013020634651184082,0.06600241363048553,0.09174691885709763,9.762664794921875,0.040655430406332016,-3.211719274520874
1413393888860760500,-0.026430144906044006,0.037217311561107635,0.014993660151958466,7.72917366027832,-0.20363368093967438,-2.3287055492401123
1413393888865760500,-0.001869112253189087,-0.016996286809444427,0.08066079765558243,9.975896835327148,0.49855589866638184,-3.3353769779205322
1413393888870760500,-0.007570892572402954,0.04367774724960327,0.0854789987206459,9.656744956970215,0.09802152216434479,-3.1956655979156494
1413393888875760500,-0.024353086948394775,0.04987630620598793,0.03241800516843796,8.53739070892334,-0.4648086130619049,-2.369605302810669
1413393888880760500,0.004290416836738586,-0.013537075370550156,0.08688437193632126,9.437227249145508,0.14720919728279114,-3.1306540966033936
1413393888885760500,0.023752212524414062,0.02272830903530121,0.11750905960798264,9.796256065368652,-0.2945522367954254,-3.178842067718506
1413393888890760500,-0.0013331025838851929,0.04922099784016609,0.061688460409641266,8.684560775756836,-0.6608608365058899,-2.2145726680755615
1413393888895760500,0.005812928080558777,0.005972195416688919,0.08761612325906754,10.269272804260254,0.3839654326438904,-3.5634708404541016
1413393888900760500,0.0042699724435806274,0.037386730313301086,0.11894602328538895,9.722439765930176,0.11413184553384781,-3.1874351501464844
1413393888905760500,-0.03695400059223175,0.06039193272590637,0.04492142051458359,9.46782398223877,-0.7838307023048401,-3.088426113128662
1413393888910760500,-0.02988123893737793,0.03042779117822647,0.037342630326747894,9.40327262878418,0.041199468076229095,-3.105860948562622
1413393888915760500,0.006316468119621277,0.013626355677843094,0.10570987313985825,9.069515228271484,-0.08159328252077103,-2.9093949794769287
1413393888920760500,-0.0062355101108551025,0.04715685918927193,0.05741610378026962,9.916264533996582,-1.2985448837280273,-3.0315048694610596
1413393888925760500,6.255507469177246e-05,0.02968415431678295,0.03661883622407913,8.954232215881348,0.14763349294662476,-3.3180510997772217
1413393888930760500,0.03770112991333008,0.017113633453845978,0.13792887330055237,8.710347175598145,0.5150051712989807,-2.6973495483398438
1413393888935760500,0.010496661067008972,0.026934675872325897,0.09716711193323135,10.072004318237305,-0.8662221431732178,-2.786682367324829
1413393888940760500,-0.00893905758857727,0.03673389554023743,0.06180516630411148,9.444605827331543,0.28618231415748596,-2.959076166152954
1413393888945760500,0.03562860190868378,0.008773198351264,0.15382927656173706,9.478426933288574,0.07324138283729553,-2.868743658065796
1413393888950760500,-0.013913214206695557,0.02272237092256546,0.08332701772451401,9.5670804977417,-0.3349810838699341,-3.1870474815368652
1413393888955760500,-0.028533294796943665,0.0486082062125206,0.06609167903661728,9.003457069396973,0.8338900804519653,-2.845198154449463
1413393888960760500,0.0035164058208465576,0.0031646601855754852,0.15586432814598083,10.057578086853027,-0.21315331757068634,-3.2688395977020264
1413393888965760500,-0.02999614179134369,0.06809131801128387,0.06934156268835068,9.81905460357666,-0.7923091053962708,-3.3578336238861084
1413393888970760500,-0.016696453094482422,0.08618363738059998,0.06810162216424942,8.659948348999023,0.3191288113594055,-2.598939895629883
1413393888975760500,0.036984264850616455,0.045778851956129074,0.132793128490448,9.558554649353027,-0.6783059239387512,-2.5902786254882812
1413393888980760500,0.013947740197181702,0.056179892271757126,0.05401384085416794,9.20730972290039,-0.8002058863639832,-2.9332051277160645
1413393888985760500,0.0217151939868927,0.049293700605630875,0.056969501078128815,8.95473861694336,0.5071629881858826,-2.631922483444214
1413393888990760500,0.0391872376203537,0.02483862079679966,0.1022067740559578,10.033184051513672,0.015872223302721977,-3.269092082977295
1413393888995760500,-0.005505174398422241,0.08204065263271332,0.026921667158603668,8.92070198059082,0.5478121042251587,-3.130709648132324
1413393889000760500,-0.017429113388061523,0.0380355529487133,0.09889369457960129,8.431829452514648,0.69524747133255,-2.4928531646728516
1413393889005760500,-0.03264898061752319,0.03597509115934372,0.07222341746091843,9.982657432556152,0.0327971875667572,-3.5875205993652344
1413393889010760500,-0.05437225103378296,0.07555510103702545,0.045010946691036224,7.990173816680908,0.12302932143211365,-2.6967756748199463
1413393889015760500,-0.018806427717208862,-0.012920059263706207,0.09941842406988144,8.750757217407227,-0.3916904032230377,-2.451549530029297
1413393889020760500,-0.015360668301582336,0.024807840585708618,0.07631639391183853,9.51789665222168,-0.6942564845085144,-3.34192156791687
1413393889025760500,0.0007445961236953735,0.008667215704917908,0.07994916290044785,8.21155834197998,-0.2283368557691574,-2.385983467102051
1413393889030760500,0.03421054780483246,-0.03869255632162094,0.10278480499982834,10.131145477294922,-0.7031585574150085,-2.9751596450805664
1413393889035760500,0.02797219157218933,0.051362231373786926,0.04983172565698624,9.705470085144043,-0.4412451386451721,-2.9172487258911133
1413393889040760500,0.0384746789932251,-0.011404041200876236,0.07578200846910477,8.980525016784668,0.3275642395019531,-2.2636547088623047
1413393889045760500,0.010088443756103516,-0.010842874646186829,0.05975130945444107,11.037266731262207,0.171176016330719,-3.7836594581604004
1413393889050760500,-0.029932111501693726,0.11615779995918274,0.024098344147205353,8.618385314941406,0.24553526937961578,-2.729551315307617
1413393889055760500,-0.025020241737365723,0.009488247334957123,0.07010424882173538,9.45297622680664,-0.08153282850980759,-2.803534746170044
1413393889060760500,-0.03193165361881256,0.08274387568235397,0.06385422497987747,10.15373706817627,-0.05748189613223076,-3.3176825046539307
1413393889065760500,-0.02229084074497223,0.04149782285094261,0.1036960706114769,8.080358505249023,0.016950519755482674,-1.952646255493164
1413393889070760500,-0.00559408962726593,-0.032435476779937744,0.11674734205007553,9.869551658630371,-0.7193639278411865,-3.0402743816375732
1413393889075760500,0.010428279638290405,0.05198770761489868,0.10564500838518143,9.167043685913086,-0.5227267146110535,-3.227144241333008
1413393889080760500,0.038377344608306885,-0.00525333546102047,0.13084900379180908,8.767812728881836,-0.1633792519569397,-2.851862668991089
1413393889085760500,0.03154505789279938,-0.007263742387294769,0.10636458545923233,10.343788146972656,-0.025227723643183708,-3.106172561645508
1413393889090760500,0.029339507222175598,0.046398378908634186,0.10017763823270798,8.742608070373535,0.07373285293579102,-2.770392894744873
1413393889095760500,0.024564892053604126,-0.012130491435527802,0.0980231836438179,9.960195541381836,0.10593152791261673,-3.114398956298828
1413393889100760500,-0.006730660796165466,0.015811055898666382,0.06392810493707657,10.049090385437012,0.4412579834461212,-3.180020570755005
1413393889105760500,-0.02001875638961792,0.02422308921813965,0.07022670656442642,9.82068920135498,0.5722181797027588,-2.918710947036743
1413393889110760500,-0.04303330183029175,0.03461702913045883,0.05266309529542923,10.317447662353516,-0.016619686037302017,-2.893746852874756
1413393889115760500,-0.014668360352516174,0.08199480175971985,0.10075172036886215,9.248065948486328,-0.1956811100244522,-3.505019187927246
1413393889120760500,-0.000733792781829834,0.1064559817314148,0.11398782581090927,9.377872467041016,-0.7352850437164307,-2.810135841369629
1413393889125760500,0.009037092328071594,0.09517037123441696,0.10779865831136703,8.545948028564453,-0.5145169496536255,-2.859281539916992
1413393889130760500,0.04186701774597168,0.0861179381608963,0.1232183501124382,8.505426406860352,0.2860989272594452,-3.0401792526245117
1413393889135760500,0.019635602831840515,0.010223232209682465,0.10498998314142227,9.388540267944336,0.0983799546957016,-2.337412118911743
1413393889140760500,-1.2993812561035156e-05,0.012852542102336884,0.0938212051987648,8.448155403137207,0.36000490188598633,-3.5301930904388428
1413393889145760500,-0.023654818534851074,-0.0052139125764369965,0.0736517384648323,8.759048461914062,-0.02397623471915722,-2.4762613773345947
1413393889150760500,-0.03201095759868622,-0.03588861972093582,0.04357645660638809,9.224295616149902,-0.10572759807109833,-3.359159231185913
1413393889155760500,0.0035444945096969604,-0.02472836524248123,0.07356419414281845,9.461705207824707,-0.32672566175460815,-3.122063398361206
1413393889160760500,-0.008161425590515137,-0.019789274781942368,0.0359114333987236,10.073822021484375,-0.03271840512752533,-2.861309051513672
1413393889165760500,0.01826655864715576,0.040962375700473785,0.07934766262769699,9.534299850463867,0.939870297908783,-3.2049918174743652
1413393889170760500,-0.0005873292684555054,0.06326194107532501,0.06450318545103073,9.50129222869873,-0.0243439432233572,-2.4679911136627197
1413393889175760500,-0.002086952328681946,0.04430034011602402,0.0988534465432167,8.537775993347168,0.7929239273071289,-3.041142463684082
1413393889180760500,-0.0027453452348709106,0.10226168483495712,0.10847378522157669,10.570338249206543,-0.5072554349899292,-3.6106185913085938
1413393889185760500,-0.015874460339546204,0.052155494689941406,0.07698329538106918,8.196340560913086,-0.5628312826156616,-1.4396021366119385
1413393889190760500,0.03483079373836517,-0.004476666450500488,0.12652206420898438,9.56784439086914,-0.5799628496170044,-3.8890466690063477
1413393889195760500,0.01963213086128235,0.049304381012916565,0.05807151645421982,9.475916862487793,-0.9632328748703003,-2.329514503479004
1413393889200760500,0.020279452204704285,-0.0876559242606163,0.09396155923604965,7.7626752853393555,0.6536533236503601,-2.9744455814361572
1413393889205760500,-0.007478460669517517,0.018501967191696167,0.053306110203266144,11.23051929473877,-0.4175465703010559,-2.9672844409942627
1413393889210760500,-0.039762288331985474,-0.012909416109323502,0.04865945130586624,8.137621879577637,0.7201329469680786,-2.205805778503418
1413393889215760500,-0.005605980753898621,0.036023467779159546,0.08849044889211655,12.247469902038574,-0.8904948234558105,-4.1249566078186035
1413393889220760500,-0.02076108753681183,0.053538866341114044,0.050500623881816864,8.873472213745117,-0.09749412536621094,-1.6178832054138184
1413393889225760500,0.028692200779914856,0.02463933452963829,0.10708717256784439,10.814240455627441,-0.08926292508840561,-4.876240253448486
1413393889230760500,0.0014948993921279907,0.15884482860565186,0.019782654941082,9.44970417022705,-0.48174941539764404,-2.303889036178589
1413393889235760500,0.01740095019340515,0.019137067720294,0.11137152463197708,8.30112075805664,0.8420599699020386,-3.4574382305145264
1413393889240760500,-0.005565330386161804,0.15111872553825378,0.0470113530755043,9.654046058654785,-1.0777326822280884,-2.907844066619873
1413393889245760500,0.0019618719816207886,-0.010213449597358704,0.10023296624422073,6.403481483459473,0.8519084453582764,-1.6417832374572754
1413393889250760500,0.011869177222251892,0.03460388630628586,0.10075167566537857,10.570821762084961,-0.8013250827789307,-3.3580801486968994
1413393889255760500,0.0083514004945755,-0.030392050743103027,0.10455245524644852,7.187405109405518,0.5550106167793274,-1.299160361289978
1413393889260760500,0.036969587206840515,-0.07976469397544861,0.14536985754966736,10.179679870605469,-0.8013898730278015,-4.519339561462402
1413393889265760500,0.006990537047386169,0.024064194411039352,0.07516754418611526,7.76017951965332,0.5726704597473145,-1.4616433382034302
1413393889270760500,0.022427648305892944,-0.05274329334497452,0.11682397872209549,10.570771217346191,0.09839185327291489,-4.591477394104004
1413393889275760500,-0.04869876801967621,0.06536568701267242,-0.00108327716588974,9.043171882629395,0.017070775851607323,-2.07513165473938
1413393889280760500,-0.007600843906402588,-0.02123717963695526,0.11271465569734573,9.281514167785645,0.4741893708705902,-3.4575445652008057
1413393889285760500,-0.023619607090950012,0.08345005661249161,0.021134324371814728,9.564231872558594,-1.085433840751648,-2.5740725994110107
1413393889290760500,0.025844424962997437,-0.02555067092180252,0.10026220232248306,7.664783000946045,0.12249229103326797,-2.361578941345215
1413393889295760500,0.04190334677696228,0.024830952286720276,0.037911660969257355,9.705516815185547,-0.8331003189086914,-2.8519976139068604
1413393889300760500,0.04820714890956879,-0.05469281226396561,0.08496703952550888,8.612749099731445,0.7931883931159973,-2.599123477935791
1413393889305760500,0.01482883095741272,-0.030252691358327866,0.04364264756441116,9.673718452453613,0.27808019518852234,-3.375936269760132
1413393889310760500,-0.007650285959243774,-0.05266563594341278,0.10241896659135818,8.343005180358887,0.5889071226119995,-2.3371171951293945
1413393889315760500,-0.027856051921844482,-0.058244556188583374,0.08678113669157028,9.959755897521973,-0.46600526571273804,-3.2613778114318848
1413393889320760500,-0.033406734466552734,-0.040803276002407074,0.07913636416196823,10.334909439086914,-0.44160765409469604,-3.5634171962738037
1413393889325760500,-0.009011149406433105,-0.03595688194036484,0.0869462862610817,8.5062894821167,0.04121560603380203,-2.582538366317749
1413393889330760500,0.004865512251853943,-0.015625540167093277,0.07349870353937149,9.869571685791016,-0.8824581503868103,-3.8243863582611084
1413393889335760500,0.0027711987495422363,-0.01220686361193657,0.0738106295466423,7.981987953186035,0.7856003046035767,-1.9682188034057617
1413393889340760500,0.006352871656417847,-0.09591562300920486,0.11539391428232193,10.106742858886719,-0.05731585621833801,-4.053391456604004
1413393889345760500,-0.015248537063598633,0.0011373236775398254,0.09531974047422409,9.241220474243164,0.44160589575767517,-2.7958285808563232
1413393889350760500,-0.008398070931434631,-0.06384959816932678,0.11956468969583511,9.143418312072754,-0.5146282911300659,-3.546543598175049
1413393889355760500,-0.014521613717079163,-0.047735005617141724,0.08540800958871841,9.837798118591309,-0.07346408069133759,-2.657071113586426
1413393889360760500,0.007769748568534851,-0.04706531763076782,0.09519798308610916,10.196639060974121,-0.18827760219573975,-3.6858813762664795
1413393889365760500,-0.015150785446166992,0.009574025869369507,0.041993118822574615,9.688850402832031,-0.4896957278251648,-2.0190799236297607
1413393889370760500,0.016064882278442383,-0.040885258466005325,0.10009746998548508,8.375500679016113,0.16382582485675812,-3.464611291885376
1413393889375760500,-0.011806279420852661,-0.026213645935058594,0.07365580648183823,8.350794792175293,-0.2527775466442108,-2.4515044689178467
1413393889380760500,0.003549441695213318,-0.0680449977517128,0.14831528067588806,9.53480052947998,0.8343376517295837,-3.9313724040985107
1413393889385760500,-0.02793225646018982,-0.02057938277721405,0.12025231868028641,9.640726089477539,-0.653855562210083,-3.1625704765319824
1413393889390760500,0.0022116154432296753,-0.0351986438035965,0.15241298079490662,10.03368091583252,0.22841417789459229,-3.269645929336548
1413393889395760500,-0.0014311224222183228,0.004430413246154785,0.09726745635271072,8.741716384887695,-1.2750779390335083,-2.982591390609741
1413393889400760500,0.019602417945861816,-0.06660418957471848,0.0910649225115776,8.996238708496094,0.36812832951545715,-3.5144379138946533
1413393889405760500,0.008461162447929382,-0.03519592806696892,0.05404672771692276,9.159751892089844,-0.26110565662384033,-2.6809051036834717
1413393889410760500,0.005058944225311279,-0.08890499174594879,0.09315114468336105,9.976452827453613,0.31058013439178467,-3.6130306720733643
1413393889415760500,-0.016671419143676758,0.016446111723780632,0.09733784943819046,9.346909523010254,0.07361113280057907,-2.9996790885925293
1413393889420760500,-0.011151567101478577,-0.0282733216881752,0.14477968215942383,8.988166809082031,-0.048975128680467606,-2.933945417404175
1413393889425760500,-0.002817198634147644,0.028959494084119797,0.1482146680355072,9.2078857421875,-0.36781835556030273,-2.884307622909546
1413393889430760500,0.015334740281105042,0.009451285004615784,0.14329537749290466,9.869562149047852,-0.3842993974685669,-3.6767449378967285
1413393889435760500,-0.014625534415245056,0.040777042508125305,0.05684453994035721,8.602991104125977,0.2292683869600296,-3.317988634109497
1413393889440760500,-0.04457157850265503,-0.031783755868673325,0.026848353445529938,8.53829288482666,-0.007535146549344063,-2.999410629272461
1413393889445760500,-0.05710814893245697,-0.021910138428211212,0.020683206617832184,8.81592082977295,0.4909785985946655,-2.6975409984588623
1413393889450760500,-0.05571885406970978,-0.0708598718047142,0.028185628354549408,8.350417137145996,-1.2000316381454468,-2.2566335201263428
1413393889455760500,-0.05013258755207062,-0.12729564309120178,0.05206338316202164,8.866288185119629,0.25363826751708984,-2.8285446166992188
1413393889460760500,-0.00820043683052063,-0.15643970668315887,0.09291177242994308,8.762918472290039,-0.7593176960945129,-1.538314700126648
1413393889465760500,-0.019435793161392212,-0.15524713695049286,0.09028919786214828,10.547202110290527,-0.10693833976984024,-4.478641510009766
1413393889470760500,0.007748082280158997,-0.09868662059307098,0.12594088912010193,9.332956314086914,0.09828729927539825,-2.4769511222839355
1413393889475760500,-0.029301345348358154,-0.12109217047691345,0.11676660925149918,9.763599395751953,0.33574536442756653,-4.5922417640686035
1413393889480760500,-0.0062376707792282104,-0.01983129233121872,0.15667805075645447,9.17657470703125,0.36802756786346436,-2.501096725463867
1413393889485760500,-0.03905929625034332,-0.08055903017520905,0.13350743055343628,10.350797653198242,-0.5154512524604797,-4.4374847412109375
1413393889490760500,0.0042756348848342896,0.03599591925740242,0.11112853139638901,10.357701301574707,-0.4091757833957672,-2.6889894008636475
1413393889495760500,0.016660332679748535,-0.061877064406871796,0.11323858052492142,8.29434585571289,-0.6944749355316162,-3.9217402935028076
1413393889500760500,0.02804107964038849,0.0067427996546030045,0.09315379709005356,9.641813278198242,0.22072862088680267,-2.632106065750122
1413393889505760500,0.0028368383646011353,-0.1288406401872635,0.10582680255174637,7.6321868896484375,0.563614010810852,-3.039703607559204
1413393889510760500,-0.016316697001457214,-0.09873777627944946,0.12879598140716553,11.258662223815918,0.8010427951812744,-3.629448175430298
1413393889515760500,-0.05441609025001526,-0.1824072003364563,0.08924906700849533,7.07771635055542,0.04068777337670326,-1.9780441522598267
1413393889520760500,-0.023737788200378418,-0.22789019346237183,0.1377384066581726,10.662003517150879,-0.6630852222442627,-3.8010756969451904
1413393889525760500,-0.02299058437347412,-0.2528156638145447,0.04378262907266617,6.907284259796143,-0.6118181347846985,-2.026764392852783
1413393889530760500,0.011251211166381836,-0.34984856843948364,0.08465901762247086,10.449149131774902,-0.30401474237442017,-4.21757173538208
1413393889535760500,-0.013358473777770996,-0.27800339460372925,0.018016301095485687,8.253687858581543,0.9069671034812927,-1.9999403953552246
1413393889540760500,-0.027631744742393494,-0.3360118865966797,0.06313670426607132,11.904603004455566,0.6451178193092346,-4.872511863708496
1413393889545760500,-0.08723822236061096,-0.1936105489730835,-0.013470925390720367,8.432923316955566,0.39903491735458374,-1.258312463760376
1413393889550760500,-0.06631498038768768,-0.2851865887641907,0.12175209075212479,12.098674774169922,-0.3689345717430115,-3.727670907974243
1413393889555760500,-0.043143823742866516,-0.08195695281028748,0.05796017497777939,9.640395164489746,-1.061232566833496,-2.3306851387023926
1413393889560760500,0.007685169577598572,-0.20277366042137146,0.17052805423736572,10.768982887268066,-0.22178268432617188,-3.817011833190918
1413393889565760500,0.0077352374792099,-0.08409835398197174,0.08268176764249802,8.760082244873047,0.00029301198082976043,-3.0648040771484375
1413393889570760500,-0.010997802019119263,-0.2048439383506775,0.14832723140716553,10.001811027526855,0.8015210628509521,-3.850522518157959
1413393889575760500,-0.06630325317382812,-0.17140017449855804,0.057526104152202606,8.112865447998047,0.6538402438163757,-3.693635940551758
1413393889580760500,-0.09130382537841797,-0.2801783084869385,0.0965992882847786,10.293990135192871,0.3748195469379425,-4.422149658203125
1413393889585760500,-0.09680485725402832,-0.2098475694656372,0.022659890353679657,7.216336250305176,-0.3259134888648987,-3.0565884113311768
1413393889590760500,-0.05499255657196045,-0.34848737716674805,0.04762095957994461,10.031501770019531,-0.884719729423523,-4.218328952789307
1413393889595760500,-0.03824374079704285,-0.29191893339157104,0.0058362409472465515,9.438204765319824,0.05688316747546196,-3.237758159637451
1413393889600760500,-0.03405499458312988,-0.32698482275009155,0.0065411850810050964,10.604562759399414,0.46457889676094055,-4.929690837860107
1413393889605760500,-0.06743860244750977,-0.22411175072193146,-0.01887962967157364,9.913834571838379,1.3407176733016968,-2.6808109283447266
1413393889610760500,-0.11702781915664673,-0.29762715101242065,0.015002138912677765,10.700922966003418,0.36624109745025635,-4.569497585296631
1413393889615760500,-0.11078351736068726,-0.1621944010257721,0.0401046946644783,9.716132164001465,0.0251625943928957,-2.5845746994018555
1413393889620760500,-0.09127691388130188,-0.25159162282943726,0.04829532653093338,9.941779136657715,-1.2193796634674072,-3.974184274673462
1413393889625760500,-0.02714000642299652,-0.2110895812511444,0.06513684242963791,9.455422401428223,-0.3838130533695221,-2.87025785446167
1413393889630760500,-0.015967577695846558,-0.24660499393939972,0.0532601997256279,10.587961196899414,-0.47551214694976807,-4.291449069976807
1413393889635760500,-0.020256444811820984,-0.22565804421901703,0.04244556277990341,8.52396011352539,0.9890304803848267,-2.377105951309204
1413393889640760500,-0.08752962946891785,-0.3046584129333496,0.001808948814868927,11.44542121887207,0.7273670434951782,-4.37355375289917
1413393889645760500,-0.10487198829650879,-0.2563944458961487,0.026487194001674652,8.450987815856934,1.1850271224975586,-2.1060690879821777
1413393889650760500,-0.1651521921157837,-0.24512149393558502,-0.07440368086099625,12.473164558410645,-0.5735483765602112,-4.5175461769104
1413393889655760500,-0.13237264752388,-0.30101311206817627,-0.08076643198728561,8.963375091552734,-0.36754104495048523,-3.3265812397003174
1413393889660760500,-0.12587472796440125,-0.1761474758386612,-0.16266223788261414,11.84278392791748,-0.8333413600921631,-3.561566114425659
1413393889665760500,-0.07224583625793457,-0.20757928490638733,-0.11084417253732681,10.594380378723145,-0.3843975365161896,-3.596730947494507
1413393889670760500,-0.09342426061630249,-0.1287582367658615,-0.15735259652137756,9.749364852905273,0.5483344793319702,-4.666370868682861
1413393889675760500,-0.0818653404712677,-0.16072236001491547,-0.0790632888674736,10.409268379211426,0.6138342022895813,-2.747419834136963
1413393889680760500,-0.11899058520793915,-0.10734598338603973,-0.06855412572622299,11.270620346069336,0.8190734386444092,-5.500327110290527
1413393889685760500,-0.14201954007148743,-0.11262087523937225,-0.08340051025152206,9.79494571685791,0.0743226706981659,-2.730790376663208
1413393889690760500,-0.13360735774040222,-0.11133278906345367,-0.0708574429154396,10.896031379699707,-0.3269539773464203,-3.8171849250793457
1413393889695760500,-0.12128147482872009,-0.14407466351985931,-0.08143321424722672,10.144513130187988,-0.36019283533096313,-4.878637313842773
1413393889700760500,-0.07802838087081909,-0.07641853392124176,-0.010876215994358063,8.473382949829102,-0.36654338240623474,-2.304863214492798
1413393889705760500,-0.06124375760555267,-0.18526466190814972,0.010772638022899628,11.2246732711792,-0.5731987953186035,-4.152167320251465
1413393889710760500,-0.009701728820800781,-0.175501748919487,0.08210217207670212,8.114920616149902,0.34298068284988403,-2.892852306365967
1413393889715760500,-0.034719377756118774,-0.2647896409034729,0.05401939898729324,10.979986190795898,0.06403133273124695,-4.3321099281311035
1413393889720760500,-0.045686930418014526,-0.2506938576698303,0.03400813788175583,10.590997695922852,1.0386557579040527,-2.919118642807007
1413393889725760500,-0.11838629841804504,-0.2875298261642456,-0.05356975644826889,12.922974586486816,0.32483547925949097,-5.854635238647461
1413393889730760500,-0.15694695711135864,-0.24314908683300018,-0.13988831639289856,8.559643745422363,0.8893300294876099,-3.5062155723571777
1413393889735760500,-0.1788937747478485,-0.2270992249250412,-0.2002672553062439,10.681401252746582,-0.6303147673606873,-3.7998688220977783
1413393889740760500,-0.14900337159633636,-0.21168555319309235,-0.21157225966453552,13.121427536010742,-0.2207779884338379,-3.676922082901001
1413393889745760500,-0.1208348423242569,-0.08320020884275436,-0.2227887213230133,11.970193862915039,-0.9557603001594543,-3.1434104442596436
1413393889750760500,-0.10972349345684052,-0.12808941304683685,-0.18034881353378296,11.841750144958496,0.3680683672428131,-4.9691243171691895
1413393889755760500,-0.11087536811828613,-0.09658945351839066,-0.10289857536554337,9.301005363464355,1.0544637441635132,-3.9076225757598877
1413393889760760500,-0.13624951243400574,-0.04494696855545044,-0.1015145406126976,10.667158126831055,0.10670973360538483,-2.7143030166625977
1413393889765760500,-0.11895926296710968,-0.11565202474594116,0.010962851345539093,11.713363647460938,0.19598820805549622,-4.822104454040527
1413393889770760500,-0.11023464798927307,-0.1028495579957962,-0.007556520402431488,9.354496002197266,-0.7106608748435974,-4.30684232711792
1413393889775760500,-0.05355854332447052,-0.09526577591896057,0.023128516972064972,10.635391235351562,-0.7024219632148743,-2.731078624725342
1413393889780760500,-0.043664753437042236,-0.12664678692817688,-0.049371205270290375,10.881271362304688,-0.45759063959121704,-3.155813455581665
1413393889785760500,-0.02115270495414734,-0.10072731971740723,-0.05607631057500839,12.99458122253418,0.4335465133190155,-4.503030300140381
1413393889790760500,-0.06731310486793518,-0.06858628988265991,-0.11123145371675491,9.720056533813477,0.5890029072761536,-3.261842727661133
1413393889795760500,-0.09773799777030945,-0.1071784645318985,-0.09788268059492111,12.197404861450195,0.4994482696056366,-4.405071258544922
1413393889800760500,-0.14068546891212463,-0.09940124303102493,-0.11114492267370224,9.831274032592773,0.9322984218597412,-3.965021848678589
1413393889805760500,-0.14974960684776306,-0.07218676805496216,-0.123341403901577,9.653507232666016,-0.45668432116508484,-3.4896397590637207
1413393889810760500,-0.1364935040473938,-0.1963711678981781,-0.10026150196790695,9.761061668395996,-0.22063793241977692,-3.531388521194458
1413393889815760500,-0.11536988615989685,-0.17124518752098083,-0.1899259090423584,11.074188232421875,-0.9400221109390259,-3.6519861221313477
1413393889820760500,-0.05814275145530701,-0.16501204669475555,-0.13931459188461304,12.19687557220459,0.016072360798716545,-4.519028663635254
1413393889825760500,-0.08969169855117798,-0.16988274455070496,-0.2020227611064911,9.855344772338867,0.3591628670692444,-4.111425876617432
1413393889830760500,-0.0919150710105896,-0.09100302308797836,-0.1640714704990387,12.33150577545166,0.8993444442749023,-3.5074408054351807
1413393889835760500,-0.14432603120803833,-0.04636257886886597,-0.17248454689979553,11.485292434692383,0.6302497386932373,-3.6211791038513184
1413393889840760500,-0.15441323816776276,-0.02959374338388443,-0.1544896960258484,12.551225662231445,-0.22876830399036407,-4.982456207275391
1413393889845760500,-0.14925703406333923,-0.023516856133937836,-0.13889724016189575,8.250185012817383,-0.12969084084033966,-3.2517852783203125
1413393889850760500,-0.0831165611743927,0.047408103942871094,-0.13732823729515076,12.078807830810547,-1.3945631980895996,-2.815052032470703
1413393889855760500,-0.03319863975048065,-0.09648812562227249,-0.1029151901602745,12.770045280456543,-0.39251241087913513,-4.754403114318848
1413393889860760500,-0.029339686036109924,0.00884739775210619,-0.17707759141921997,8.956374168395996,0.5242117047309875,-4.281144618988037
1413393889865760500,-0.06838174164295197,-0.02528255805373192,-0.14229390025138855,10.821924209594727,1.5852667093276978,-4.037017822265625
1413393889870760500,-0.16672399640083313,-0.009155813604593277,-0.20865774154663086,10.726921081542969,1.0876411199569702,-2.9669528007507324
1413393889875760500,-0.20301195979118347,-0.023296616971492767,-0.20391583442687988,12.733000755310059,0.4177115261554718,-4.55825138092041
1413393889880760500,-0.201574444770813,0.00944962352514267,-0.23044660687446594,9.128073692321777,-0.7260914444923401,-4.158155918121338
1413393889885760500,-0.12702985107898712,-0.004282176494598389,-0.21637675166130066,10.86806869506836,-1.5915024280548096,-3.879315137863159
1413393889890760500,-0.07194018363952637,0.018695726990699768,-0.21905586123466492,11.037708282470703,-0.5888386368751526,-2.6786959171295166
1413393889895760500,-0.05368031561374664,0.05987249314785004,-0.2236402928829193,12.728062629699707,0.023829838261008263,-3.813967704772949
1413393889900760500,-0.1008257269859314,0.06210826337337494,-0.2066155970096588,10.459115982055664,1.788608193397522,-4.45341157913208
1413393889905760500,-0.16390874981880188,0.16267706453800201,-0.21157920360565186,10.970287322998047,1.045879602432251,-3.399144172668457
1413393889910760500,-0.1877000778913498,0.15598778426647186,-0.1642034649848938,11.814723014831543,-0.11414068192243576,-4.156470775604248
1413393889915760500,-0.17949876189231873,0.20764794945716858,-0.1986692249774933,9.364953994750977,-1.1341453790664673,-2.8655648231506348
1413393889920760500,-0.06686873733997345,0.17646540701389313,-0.16789132356643677,11.457559585571289,-1.8085530996322632,-3.010282039642334
1413393889925760500,-0.03729678690433502,0.11008782684803009,-0.18884068727493286,10.222283363342285,-0.3423941731452942,-3.7325074672698975
1413393889930760500,-0.02896009385585785,0.16450823843479156,-0.1816961169242859,10.33442497253418,0.7205141186714172,-4.394515037536621
1413393889935760500,-0.10202795267105103,0.10761409252882004,-0.1869851052761078,10.342992782592773,1.8117778301239014,-3.301001787185669
1413393889940760500,-0.16236113011837006,0.22451193630695343,-0.17231428623199463,12.164863586425781,0.9218104481697083,-3.5128448009490967
1413393889945760500,-0.19957010447978973,0.18957822024822235,-0.199148029088974,11.46261215209961,0.21282942593097687,-4.206315517425537
1413393889950760500,-0.16187573969364166,0.2682759463787079,-0.22155126929283142,9.138031959533691,-1.6562747955322266,-2.8491759300231934
1413393889955760500,-0.09837311506271362,0.2336134910583496,-0.22645261883735657,11.548529624938965,-1.036656379699707,-3.47525691986084
1413393889960760500,-0.048982977867126465,0.2580057382583618,-0.2292337715625763,11.134468078613281,-0.579866886138916,-3.974846363067627
1413393889965760500,-0.07103803753852844,0.24484552443027496,-0.22451439499855042,9.003985404968262,1.3051797151565552,-3.8404929637908936
1413393889970760500,-0.12464955449104309,0.20579078793525696,-0.22302281856536865,8.910481452941895,1.5502527952194214,-2.6538403034210205
1413393889975760500,-0.17086941003799438,0.2670189142227173,-0.17676454782485962,11.750055313110352,0.17874132096767426,-3.7720673084259033
1413393889980760500,-0.2007569521665573,0.1428585648536682,-0.19742810726165771,9.794941902160645,-0.10481570661067963,-4.232081413269043
1413393889985760500,-0.1326022893190384,0.28297656774520874,-0.15177321434020996,9.84531307220459,-1.5741794109344482,-2.6942405700683594
1413393889990760500,-0.08457422256469727,0.17565074563026428,-0.1446782648563385,11.879427909851074,-1.0276871919631958,-4.2931647300720215
1413393889995760500,-0.012450367212295532,0.3310181498527527,-0.10224660485982895,9.267781257629395,-0.5965023636817932,-2.849447011947632
1413393890000760500,-0.031374916434288025,0.23820479214191437,-0.09352751821279526,12.237544059753418,0.6848562955856323,-3.8540828227996826
1413393890005760500,-0.04304856061935425,0.334667444229126,-0.0826500877737999,9.112933158874512,0.7179827690124512,-2.941427230834961
1413393890010760500,-0.0988558828830719,0.2864665985107422,-0.06938806921243668,10.318018913269043,1.063551902770996,-4.581578731536865
1413393890015760500,-0.10869690775871277,0.28417420387268066,-0.04569051414728165,8.795151710510254,-0.3022055923938751,-2.964676856994629
1413393890020760500,-0.09541317820549011,0.2893247604370117,0.0038449838757514954,10.011237144470215,-0.555160403251648,-3.7398266792297363
1413393890025760500,-0.048094913363456726,0.1797236055135727,0.06796175986528397,8.707326889038086,-0.39159345626831055,-2.0751614570617676
1413393890030760500,0.012557879090309143,0.315901517868042,0.09315770119428635,10.258009910583496,-0.6543886065483093,-3.674004316329956
1413393890035760500,0.03285996615886688,0.16648773849010468,0.13294708728790283,9.933040618896484,0.3833770751953125,-3.399247169494629
1413393890040760500,0.02722838521003723,0.32222819328308105,0.1287703812122345,9.825554847717285,0.09638166427612305,-3.177499532699585
1413393890045760500,-0.0007446259260177612,0.15884001553058624,0.1728542447090149,9.483550071716309,1.2340457439422607,-3.6133525371551514
1413393890050760500,-0.016112282872200012,0.27688223123550415,0.17957428097724915,9.718724250793457,-0.09951125830411911,-2.474821090698242
1413393890055760500,-0.03636482357978821,0.14475078880786896,0.18441280722618103,9.629865646362305,0.07412049174308777,-4.1653733253479
1413393890060760500,-0.0015055984258651733,0.24817870557308197,0.1789432168006897,9.131811141967773,-0.7113950252532959,-2.6293983459472656
1413393890065760500,0.02991117537021637,0.14700911939144135,0.19988757371902466,10.480299949645996,-0.8427210450172424,-3.4790682792663574
1413393890070760500,0.06343154609203339,0.22577013075351715,0.18324056267738342,8.798715591430664,-0.06572580337524414,-3.37386155128479
1413393890075760500,0.0809461921453476,0.17832571268081665,0.2515517473220825,10.161882400512695,0.3746389150619507,-3.5292794704437256
1413393890080760500,0.0634247362613678,0.1999908983707428,0.28734979033470154,8.9454927444458,0.5882426500320435,-3.3425347805023193
1413393890085760500,0.03125344216823578,0.24187292158603668,0.32432815432548523,9.075908660888672,0.21962733566761017,-3.3411478996276855
1413393890090760500,0.031222090125083923,0.17134974896907806,0.3319398760795593,9.011678695678711,0.015418066643178463,-2.6388754844665527
1413393890095760500,0.04588209092617035,0.23705145716667175,0.30956870317459106,9.908987045288086,-0.7779320478439331,-3.355578660964966
1413393890100760500,0.06685107946395874,0.18738864362239838,0.2852024734020233,8.742124557495117,-0.2541475296020508,-2.7608001232147217
1413393890105760500,0.06758114695549011,0.24894236028194427,0.25863438844680786,9.288565635681152,-0.06669581681489944,-2.7691986560821533
1413393890110760500,0.058577343821525574,0.19148795306682587,0.25875425338745117,8.031071662902832,0.3677166700363159,-3.382744073867798
1413393890115760500,0.039679497480392456,0.272668719291687,0.25942888855934143,8.969252586364746,0.4814968705177307,-2.885042428970337
1413393890120760500,0.03623934090137482,0.19487856328487396,0.30131879448890686,7.058134078979492,0.0806015133857727,-3.423424005508423
1413393890125760500,0.045188337564468384,0.2572769522666931,0.3166581094264984,8.709168434143066,-0.44197776913642883,-2.4095304012298584
1413393890130760500,0.055704280734062195,0.18720045685768127,0.3348437249660492,6.419747352600098,-0.1741163581609726,-2.8606081008911133
1413393890135760500,0.07591953873634338,0.2376868724822998,0.2901477813720703,8.643900871276855,-0.40946534276008606,-2.629868268966675
1413393890140760500,0.07245177030563354,0.14812062680721283,0.30063846707344055,7.124217987060547,0.05646785348653793,-2.516855239868164
1413393890145760500,0.05505019426345825,0.2160714566707611,0.2781471908092499,9.655481338500977,0.29292967915534973,-3.3250911235809326
1413393890150760500,0.043890953063964844,0.18792231380939484,0.2789400815963745,6.370954990386963,0.7217226624488831,-2.100764513015747
1413393890155760500,0.02780298888683319,0.2117336094379425,0.27895021438598633,8.267597198486328,-0.12310796231031418,-3.348698854446411
1413393890160760500,0.027252867817878723,0.17673423886299133,0.28240445256233215,6.396552085876465,0.18932537734508514,-1.283719778060913
1413393890165760500,0.05427837371826172,0.19236059486865997,0.2886629104614258,9.38666820526123,-1.0225242376327515,-3.413081169128418
1413393890170760500,0.06643927097320557,0.16603924334049225,0.285798579454422,5.294496059417725,0.3142905533313751,-1.152035117149353
1413393890175760500,0.08709472417831421,0.12458739429712296,0.31801581382751465,8.91324520111084,-0.9812775254249573,-3.666616916656494
1413393890180760500,0.06777653098106384,0.16459515690803528,0.2920287847518921,5.604014873504639,0.8050753474235535,-1.1282716989517212
1413393890185760500,0.06621658802032471,0.0617535300552845,0.3052239418029785,9.753890037536621,-0.31871357560157776,-4.08353328704834
1413393890190760500,0.028597287833690643,0.14200513064861298,0.28687331080436707,5.238645076751709,1.2563661336898804,-1.0072710514068604
1413393890195760500,0.04743185639381409,0.0954638421535492,0.3089052140712738,10.046746253967285,-1.3980143070220947,-4.134182453155518
1413393890200760500,0.037817806005477905,0.19371013343334198,0.2404230237007141,5.449736595153809,0.7312798500061035,-0.8926369547843933
1413393890205760500,0.08499738574028015,0.07293642312288284,0.3180127441883087,8.937342643737793,-1.2598795890808105,-3.4631295204162598
1413393890210760500,0.06903870403766632,0.22488568723201752,0.22867882251739502,6.696984767913818,0.7630320191383362,-1.6423436403274536
1413393890215760500,0.0988931655883789,0.0867215245962143,0.35014405846595764,7.950817584991455,-0.23763898015022278,-3.0464587211608887
1413393890220760500,0.03825518488883972,0.21732349693775177,0.24136382341384888,7.800366401672363,1.0234993696212769,-2.1826274394989014
1413393890225760500,0.04662841558456421,0.09853912889957428,0.31931445002555847,6.0777106285095215,0.17096500098705292,-2.5510716438293457
1413393890230760500,-0.012650489807128906,0.17834872007369995,0.2090463638305664,8.773689270019531,0.6300774216651917,-2.091601610183716
1413393890235760500,0.02840268611907959,0.10554051399230957,0.2747594714164734,7.145812511444092,-1.271079659461975,-2.720104932785034
1413393890240760500,0.02092874050140381,0.13781791925430298,0.1804153025150299,8.227123260498047,-0.06475535035133362,-1.9279553890228271
1413393890245760500,0.08632686734199524,0.07279042154550552,0.2760493755340576,6.299663543701172,-0.4590438902378082,-1.9201973676681519
1413393890250760500,0.060656189918518066,0.15944357216358185,0.2140003740787506,8.692562103271484,0.3921111226081848,-2.8522303104400635
1413393890255760500,0.0745924711227417,0.11045902222394943,0.30885589122772217,5.939291000366211,0.5242331624031067,-2.3873891830444336
1413393890260760500,0.027112513780593872,0.1538367122411728,0.2522873282432556,8.904781341552734,0.03230477124452591,-3.357322931289673
1413393890265760500,0.03411895036697388,0.1347780078649521,0.30454209446907043,5.644719123840332,0.9863037467002869,-1.651158094406128
1413393890270760500,0.019419938325881958,0.12466084957122803,0.26691558957099915,9.614767074584961,-1.1939568519592285,-3.2503933906555176
1413393890275760500,0.0502856969833374,0.13262206315994263,0.26344752311706543,5.392579078674316,0.30579277873039246,-1.2748656272888184
