#timestamp [ns],w_RS_S_x [rad s^-1],w_RS_S_y [rad s^-1],w_RS_S_z [rad s^-1],a_RS_S_x [m s^-2],a_RS_S_y [m s^-2],a_RS_S_z [m s^-2]
1413393885975760500,0.050963614158234416,0.041887902047863905,0.06841690667817772,9.438900625,-0.4004382083333333,-2.729517583333333
1413393885980760500,0.05375614096142535,0.03630284844148206,0.07051130178057091,9.398039583333333,0.032688833333333334,-3.195333458333333
1413393885985760500,0.03839724354387525,0.04258603374866164,0.04677482395344803,9.561483749999999,0.2533384583333333,-3.015544875
1413393885990760500,0.028623399732707,0.047472955654245766,0.07120943348136866,9.283628666666665,0.269682875,-3.0890947499999997
1413393885995760500,0.0027925268031909274,0.06562437987498679,0.06213372137099814,9.610517,0.4985047083333333,-3.0400614999999998
1413393886000760500,-0.025132741228718346,0.03839724354387525,0.08377580409572781,9.161045541666667,0.7681875833333334,-3.2280222916666665
1413393886005760500,-0.05235987755982988,0.04817108735504349,0.08936085770210968,9.283628666666665,0.3350605416666666,-3.0809225416666663
1413393886010760500,-0.05585053606381855,0.03839724354387525,0.08098327729253688,9.054806833333332,-0.35140495833333335,-2.7867230416666664
1413393886015760500,-0.04049163864626844,0.009075712110370514,0.0747000919853573,9.259112041666667,-0.5720545833333333,-2.754034208333333
1413393886020760500,-0.013264502315156905,0.00767944870877505,0.08656833089891874,9.357178541666666,-0.6701210833333332,-2.7376897916666665
1413393886025760500,0.023038346126325153,0.010471975511965976,0.07819075048934597,9.520622708333333,-0.612915625,-2.9093061666666666
1413393886030760500,0.0439822971502571,0.032114058236695664,0.08307767239493008,9.586000375,-0.3759215833333333,-2.941995
1413393886035760500,0.04049163864626844,0.028623399732707,0.07819075048934597,9.250939833333334,0.18796079166666665,-2.811239666666667
1413393886040760500,0.021642082724729686,0.02652900463031381,0.07190756518216637,9.259112041666667,0.416782625,-3.023717083333333
1413393886045760500,-0.005585053606381855,0.04677482395344803,0.06911503837897544,9.373522958333332,0.367749375,-3.0400614999999998
1413393886050760500,-0.023736477827122883,0.03420845333908886,0.06771877497737998,9.144701125,0.057205458333333334,-2.982856041666666
1413393886055760500,-0.03490658503988659,0.01884955592153876,0.06981317007977318,9.07115125,0.10623870833333333,-2.7376897916666665
1413393886060760500,-0.03490658503988659,0.013962634015954637,0.08237954069413235,9.1201845,-0.2533384583333333,-2.9093061666666666
1413393886065760500,-0.021642082724729686,0.009075712110370514,0.08028514559173915,9.242767624999999,-0.4004382083333333,-2.999200458333333
1413393886070760500,-0.008377580409572781,0.006981317007977318,0.08726646259971647,9.536967125,-0.392266,-2.9583394166666666
1413393886075760500,0.00767944870877505,0.02234021442552742,0.08307767239493008,9.406211791666665,-0.3105439166666667,-2.974683833333333
1413393886080760500,0.017453292519943295,0.02234021442552742,0.07260569688296412,9.349006333333334,-0.3023717083333333,-3.015544875
1413393886085760500,0.025132741228718346,0.02722713633111154,0.06562437987498679,9.520622708333333,-0.17978858333333333,-2.974683833333333
1413393886090760500,0.02652900463031381,0.02234021442552742,0.08098327729253688,9.291800875,0.17161637500000002,-2.9338227916666666
1413393886095760500,0.009773843811168246,0.017453292519943295,0.08517206749732328,9.234595416666666,0.35957716666666667,-2.8766173333333334
1413393886100760500,-0.013264502315156905,0.02024581932313422,0.09564404300928926,8.989429166666666,0.3840937916666667,-2.8684451249999996
1413393886105760500,-0.033510321638291124,0.008377580409572781,0.09215338450530061,9.635033625,0.08989429166666667,-3.1299557916666663
1413393886110760500,-0.04537856055185257,0.009075712110370514,0.08237954069413235,9.5124505,-0.20430520833333332,-3.0645781249999997
1413393886115760500,-0.02722713633111154,0.016755160819145562,0.07330382858376185,9.398039583333333,-0.661948875,-2.8766173333333334
1413393886120760500,-0.0017897309735417366,0.025140181183815002,0.06383354216814041,9.451651573181152,-0.5496172308921814,-3.0280346870422363
1413393886125760500,0.022791195660829544,0.027300342917442322,0.07359667867422104,9.296904563903809,-0.0848974958062172,-2.9324049949645996
1413393886130760500,0.03764538839459419,0.022468090057373047,0.08774366974830627,9.141658782958984,-0.08226016908884048,-2.7762656211853027
1413393886135760500,0.029266227036714554,0.013221129775047302,0.07647555321455002,9.492873191833496,0.21776802837848663,-3.0859789848327637
1413393886140760500,-0.000356149859726429,0.030805349349975586,0.07947085052728653,9.274157524108887,0.4986693263053894,-2.963700294494629
1413393886145760500,-0.024014782160520554,0.01447451114654541,0.08086308091878891,9.548877716064453,0.3201196789741516,-3.2331018447875977
1413393886150760500,-0.036902379244565964,0.02596902847290039,0.07210507988929749,9.436105728149414,-0.19950321316719055,-3.053100109100342
1413393886155760500,-0.026308249682188034,0.03646092116832733,0.07484269887208939,9.394776344299316,-0.19561439752578735,-3.085437297821045
1413393886160760500,-0.016713496297597885,0.043095916509628296,0.07931563258171082,9.207780838012695,-0.025915130972862244,-2.872894287109375
1413393886165760500,-0.007202249951660633,0.02875232696533203,0.07597554475069046,9.208230018615723,-0.1860627830028534,-2.816580295562744
1413393886170760500,-0.0003612758591771126,0.01736515760421753,0.07104431837797165,9.232417106628418,-0.3930515944957733,-2.980440139770508
1413393886175760500,0.009220498614013195,0.02367842197418213,0.07803300768136978,9.426462173461914,0.017796151340007782,-3.330141067504883
1413393886180760500,0.005094724707305431,0.04294562339782715,0.08627593517303467,9.133872032165527,0.03753930330276489,-2.840113878250122
1413393886185760500,-0.0025569917634129524,0.020750954747200012,0.0886320248246193,9.426678657531738,-0.10884635150432587,-2.949052095413208
1413393886190760500,0.0018978295847773552,0.03619296848773956,0.08218678086996078,9.485085487365723,-0.20782583951950073,-2.897832155227661
1413393886195760500,0.006321596913039684,0.0448504239320755,0.0845085009932518,9.274187088012695,0.16433455049991608,-2.8813350200653076
1413393886200760500,-0.006182623095810413,0.036372557282447815,0.08217036724090576,9.150253295898438,0.2238820642232895,-2.882153272628784
1413393886205760500,-0.021799501031637192,0.018315061926841736,0.06794336438179016,9.378497123718262,-0.0313112810254097,-2.867356061935425
1413393886210760500,-0.024218540638685226,0.017944350838661194,0.06601808220148087,9.265499114990234,-0.16621243953704834,-2.988192558288574
1413393886215760500,-0.017416831105947495,0.02575051784515381,0.07109461724758148,9.361005783081055,-0.218719482421875,-3.045513868331909
1413393886220760500,-0.01842966303229332,0.03343133628368378,0.07736296206712723,9.135054588317871,-0.21269014477729797,-2.809109926223755
1413393886225760500,-0.0035995664075016975,0.02335105836391449,0.08719152212142944,9.363338470458984,-0.25838950276374817,-2.963723659515381
1413393886230760500,0.01274819951504469,0.02487868070602417,0.08517907559871674,9.231213569641113,-0.2150634527206421,-2.8504910469055176
1413393886235760500,0.023391205817461014,0.024682506918907166,0.08582879602909088,9.321688652038574,0.058488380163908005,-2.8977603912353516
1413393886240760500,0.015346604399383068,0.02720867097377777,0.0809905007481575,9.182297706604004,0.25189700722694397,-2.994985580444336
1413393886245760500,-0.001375270076096058,0.018751278519630432,0.0853254571557045,9.45815372467041,0.2102050632238388,-3.021364688873291
1413393886250760500,-0.01830534264445305,0.02697053551673889,0.08191727101802826,9.102216720581055,0.04396088421344757,-3.004822254180908
1413393886255760500,-0.021498199552297592,0.015531256794929504,0.09601536393165588,9.419628143310547,0.19306710362434387,-2.9395127296447754
1413393886260760500,-0.026227917522192,0.027796313166618347,0.09603323042392731,9.14291763305664,0.027086082845926285,-2.8907861709594727
1413393886265760500,-0.01796044036746025,0.005773022770881653,0.0970931202173233,9.273638725280762,-0.3891619145870209,-2.759068727493286
1413393886270760500,-0.004105341620743275,0.010248646140098572,0.07426323741674423,9.41854190826416,-0.4169990122318268,-2.9403774738311768
1413393886275760500,0.008220630697906017,0.011348530650138855,0.06454233825206757,9.493582725524902,-0.29804372787475586,-3.0441837310791016
1413393886280760500,0.010855215601623058,0.022752389311790466,0.05275764688849449,9.403691291809082,-0.10552442818880081,-3.0384633541107178
1413393886285760500,0.014929133467376232,0.00624789297580719,0.06011488661170006,9.320569038391113,-0.004231806844472885,-2.9728407859802246
1413393886290760500,0.004313099198043346,0.029939234256744385,0.0600183866918087,9.38054084777832,0.22317643463611603,-3.069305419921875
1413393886295760500,-0.015259486623108387,0.01630382239818573,0.08680366724729538,9.322851181030273,0.5338438749313354,-2.988313674926758
1413393886300760500,-0.028978507965803146,0.03459981083869934,0.09382996708154678,9.199676513671875,0.12021058797836304,-2.8917105197906494
1413393886305760500,-0.0297732912003994,0.020358532667160034,0.09067017585039139,9.125957489013672,-0.24538277089595795,-2.896514892578125
1413393886310760500,-0.018643613904714584,0.02696281671524048,0.08666995912790298,9.369484901428223,-0.4136858284473419,-3.127241849899292
1413393886315760500,-0.00511209387332201,0.022300779819488525,0.09213428199291229,9.247352600097656,-0.27449747920036316,-3.0776302814483643
1413393886320760500,0.009679901413619518,0.0303831547498703,0.08123872429132462,9.33841323852539,-0.39798834919929504,-2.9083025455474854
1413393886325760500,0.02559690549969673,0.02175922691822052,0.08847004920244217,9.238934516906738,-0.2602023184299469,-2.971832036972046
1413393886330760500,0.026544291526079178,0.03233318030834198,0.08576279133558273,9.305689811706543,0.18493665754795074,-2.9708282947540283
1413393886335760500,0.012640940956771374,0.025421664118766785,0.10303723812103271,9.222827911376953,0.4427918791770935,-2.9553630352020264
1413393886340760500,-0.016801010817289352,0.033090740442276,0.08657101541757584,9.198217391967773,0.05417869985103607,-3.085484266281128
1413393886345760500,-0.03196656331419945,0.015409767627716064,0.07210491597652435,9.418355941772461,-0.174234539270401,-3.157935619354248
1413393886350760500,-0.03152612969279289,0.02921454608440399,0.06313814967870712,9.525140762329102,-0.2089827060699463,-3.1920058727264404
1413393886355760500,-0.019549932330846786,0.026637613773345947,0.0634801834821701,9.266207695007324,-0.3654119670391083,-2.8170864582061768
1413393886360760500,-0.005143237300217152,0.022184431552886963,0.062287937849760056,9.331209182739258,-0.41272085905075073,-2.964264154434204
1413393886365760500,0.01645677164196968,0.0286475270986557,0.07746219635009766,9.411456108093262,-0.16478046774864197,-2.8574576377868652
1413393886370760500,0.016705621033906937,0.03934752941131592,0.08614791929721832,9.255819320678711,0.2839435935020447,-3.004879951477051
1413393886375760500,0.005121666006743908,0.034650713205337524,0.0877843126654625,9.118223190307617,0.38184040784835815,-2.791954755783081
1413393886380760500,-0.008740645833313465,0.02527967095375061,0.09289444237947464,9.426961898803711,0.03851157799363136,-2.906529664993286
1413393886385760500,-0.014502537436783314,0.027842581272125244,0.0895620733499527,9.386506080627441,-0.037708915770053864,-2.9224085807800293
1413393886390760500,-0.013704461045563221,0.039170220494270325,0.08878941088914871,9.410699844360352,-0.1592411994934082,-2.9473278522491455
1413393886395760500,-0.012699020095169544,0.02895873785018921,0.08558699488639832,9.069968223571777,-0.17951561510562897,-2.826137065887451
1413393886400760500,0.0034049032256007195,0.02185426652431488,0.08511458337306976,9.476770401000977,-0.38280370831489563,-2.9726428985595703
1413393886405760500,0.012348848395049572,0.024491697549819946,0.07904636859893799,9.239503860473633,-0.0014160297578200698,-2.8897042274475098
1413393886410760500,0.0041457293555140495,0.022067591547966003,0.07535349577665329,9.289628028869629,0.2127716988325119,-2.9877800941467285
1413393886415760500,-0.01240075845271349,0.010188162326812744,0.07701017707586288,9.354476928710938,0.059555284678936005,-2.9146623611450195
1413393886420760500,-0.01545820850878954,0.011137053370475769,0.06939909607172012,9.483968734741211,-0.07579857110977173,-3.143754243850708
1413393886425760500,-0.015270602889358997,0.01801435649394989,0.060076840221881866,9.273366928100586,-0.2802579998970032,-2.8331706523895264
1413393886430760500,-0.009357315488159657,0.0218764990568161,0.059256214648485184,9.346263885498047,-0.17363931238651276,-3.110903739929199
1413393886435760500,0.00452758651226759,0.019834458827972412,0.07605990022420883,9.339743614196777,-0.26862409710884094,-2.8012959957122803
1413393886440760500,0.009668665938079357,0.016713470220565796,0.08365478366613388,9.41939640045166,0.02090808004140854,-2.98089599609375
1413393886445760500,0.002520608715713024,0.023773998022079468,0.0880037248134613,9.183185577392578,0.20208542048931122,-2.767974376678467
1413393886450760500,-0.0078017832711339,0.017222270369529724,0.08918385952711105,9.346039772033691,0.11853326857089996,-3.0301473140716553
1413393886455760500,-0.01633657142519951,0.016220077872276306,0.09257148951292038,9.377559661865234,-0.048863962292671204,-3.1110565662384033
1413393886460760500,-0.018717195838689804,0.022104665637016296,0.0887112021446228,9.425993919372559,-0.10078658908605576,-3.0291173458099365
1413393886465760500,-0.014409867115318775,0.027273118495941162,0.08468905091285706,9.151201248168945,-0.34296998381614685,-2.88973069190979
1413393886470760500,0.004158216528594494,0.028890341520309448,0.08863284438848495,9.34674072265625,-0.39992809295654297,-2.865757465362549
1413393886475760500,0.015476006083190441,0.019040867686271667,0.09195897728204727,9.206892967224121,-0.2300778031349182,-2.8814375400543213
1413393886480760500,0.017771679908037186,0.01602870225906372,0.08378515392541885,9.42641544342041,0.06220020726323128,-3.020936965942383
1413393886485760500,0.00756342988461256,0.024657785892486572,0.07426630705595016,9.281371116638184,0.21073836088180542,-2.9002928733825684
1413393886490760500,-0.0046936990693211555,0.016547128558158875,0.07409948855638504,9.371346473693848,0.30035343766212463,-3.095008611679077
1413393886495760500,-0.020083855837583542,0.016858145594596863,0.07743120193481445,9.345247268676758,0.11212103068828583,-3.093893051147461
1413393886500760500,-0.02740996703505516,0.022212699055671692,0.0726458877325058,9.524551391601562,-0.1909346878528595,-3.1091349124908447
1413393886505760500,-0.0234743170440197,0.04352481663227081,0.07600169628858566,9.380831718444824,-0.18869543075561523,-2.817356824874878
1413393886510760500,-0.010318276472389698,0.03035654127597809,0.08210696280002594,9.280778884887695,-0.2357940673828125,-2.931408643722534
1413393886515760500,0.0075342534109950066,0.037669986486434937,0.08705098181962967,9.337183952331543,-0.22987395524978638,-2.9149134159088135
1413393886520760500,0.014437275938689709,0.032728537917137146,0.08868124336004257,9.17438793182373,-0.06508132815361023,-3.0443031787872314
1413393886525760500,0.009725886397063732,0.0338657945394516,0.08400043100118637,9.354555130004883,0.1387895792722702,-2.899369239807129
1413393886530760500,-0.004248631186783314,0.020729824900627136,0.07673725485801697,9.361817359924316,0.1614142209291458,-3.094034194946289
1413393886535760500,-0.008119595237076283,0.038527995347976685,0.0759429857134819,9.297886848449707,-0.011780168861150742,-2.873297929763794
1413393886540760500,-0.016404788941144943,0.03234328329563141,0.07538356631994247,9.08426284790039,-0.03655789792537689,-3.093566417694092
1413393886545760500,-0.01368915755301714,0.04509402811527252,0.08241964131593704,9.42037582397461,-0.09106498956680298,-2.898193120956421
1413393886550760500,-0.014606577344238758,0.02467067539691925,0.08223376423120499,9.125420570373535,-0.19629374146461487,-2.923290491104126
1413393886555760500,-0.006393772549927235,0.03412991762161255,0.08241816610097885,9.208749771118164,-0.28544676303863525,-2.564750909805298
1413393886560760500,-0.0014923037961125374,0.0035880208015441895,0.07907157391309738,9.069476127624512,-0.10254071652889252,-2.9234087467193604
1413393886565760500,0.004754471592605114,0.02544228732585907,0.07422009110450745,9.575221061706543,-0.007806071080267429,-2.915926933288574
1413393886570760500,-0.008235764689743519,0.016358330845832825,0.07274460792541504,9.288494110107422,-0.06687284260988235,-2.9966039657592773
1413393886575760500,-0.0008461298421025276,0.026003554463386536,0.06581991165876389,9.38811206817627,-0.1957472860813141,-2.8100876808166504
1413393886580760500,-0.005908769555389881,0.015534281730651855,0.06756304204463959,9.16682243347168,0.0540335476398468,-2.9633383750915527
1413393886585760500,-0.004705113358795643,0.04277627170085907,0.08830335736274719,9.590662002563477,0.17249158024787903,-3.100389003753662
1413393886590760500,-0.012330335564911366,0.03570471704006195,0.08595262467861176,9.045422554016113,-0.1146385446190834,-2.7352635860443115
1413393886595760500,-0.007469934411346912,0.013928383588790894,0.09279408305883408,9.280782699584961,-0.25077059864997864,-2.835003614425659
1413393886600760500,-0.0026949765160679817,0.01026734709739685,0.08310896903276443,9.215088844299316,-0.20453283190727234,-3.013472080230713
1413393886605760500,0.001329648308455944,0.019716009497642517,0.09618795663118362,9.557628631591797,0.007592938374727964,-3.11067271232605
1413393886610760500,-0.006823641248047352,0.031747475266456604,0.08261477947235107,9.296731948852539,-0.17852406203746796,-2.95526385307312
1413393886615760500,0.001384335570037365,0.014455333352088928,0.07906036823987961,9.363037109375,-0.21364226937294006,-2.8905789852142334
1413393886620760500,0.005221891216933727,0.021569758653640747,0.07743541896343231,9.190629959106445,-0.0033375106286257505,-3.0851612091064453
1413393886625760500,0.0034937141463160515,0.03219965100288391,0.09244385361671448,9.36862564086914,0.16045449674129486,-3.11816143989563
1413393886630760500,-0.013274026103317738,0.0317746102809906,0.08168535679578781,9.102104187011719,0.05449938774108887,-2.9388740062713623
1413393886635760500,-0.012512666173279285,0.007762491703033447,0.08535132557153702,9.158891677856445,-0.06710445135831833,-2.9002180099487305
1413393886640760500,-0.008654755540192127,0.015552684664726257,0.08239883929491043,9.149402618408203,-0.15499372780323029,-3.02099347114563
1413393886645760500,-0.008545679040253162,0.014922767877578735,0.08213775604963303,9.451556205749512,0.007712099701166153,-3.151205062866211
1413393886650760500,-0.0185060016810894,0.029364898800849915,0.06725888699293137,9.445551872253418,-0.1390979290008545,-2.9552714824676514
1413393886655760500,0.0011074719950556755,0.022665411233901978,0.07888511568307877,9.330270767211914,-0.16356110572814941,-2.8832054138183594
1413393886660760500,0.005197721533477306,0.03459763526916504,0.07202096283435822,9.296485900878906,-0.17940959334373474,-3.0197951793670654
1413393886665760500,0.002784627489745617,0.028154835104942322,0.07984363287687302,9.385941505432129,0.17672589421272278,-3.1100103855133057
1413393886670760500,-0.0066149355843663216,0.03053140640258789,0.07607385516166687,9.224639892578125,0.0068499306216835976,-2.9477031230926514
1413393886675760500,-0.005098802037537098,0.017936423420906067,0.08243871480226517,9.443266868591309,-0.1813906580209732,-2.9968764781951904
1413393886680760500,-0.007442069239914417,0.024174898862838745,0.081590436398983,9.223183631896973,-0.1724868267774582,-3.003725051879883
1413393886685760500,-0.00971571821719408,0.021353214979171753,0.08146189898252487,9.549859046936035,-0.009478422813117504,-3.029451608657837
1413393886690760500,-0.012966391630470753,0.03140541911125183,0.07976775616407394,9.38024616241455,-0.13292576372623444,-2.8984813690185547
1413393886695760500,0.0026024160906672478,0.033651530742645264,0.08086574822664261,9.402883529663086,-0.17196521162986755,-2.9397008419036865
1413393886700760500,0.004997509531676769,0.03280693292617798,0.08083001524209976,9.255176544189453,-0.10559102147817612,-2.9694223403930664
1413393886705760500,0.00064085703343153,0.03779067099094391,0.07820184528827667,9.435691833496094,0.1773044764995575,-3.0537357330322266
1413393886710760500,-0.0050413282588124275,0.03183673322200775,0.07977986335754395,9.094903945922852,0.03913162648677826,-2.7036449909210205
1413393886715760500,-0.005310189910233021,0.015236467123031616,0.081522636115551,9.565123558044434,-0.15619614720344543,-3.036548614501953
1413393886720760500,-0.0051677050068974495,0.026548534631729126,0.08380597829818726,9.199377059936523,0.06330624967813492,-2.962594509124756
1413393886725760500,-0.011057657189667225,0.031800076365470886,0.07606371492147446,9.41191291809082,-0.0017694256966933608,-2.9733846187591553
1413393886730760500,-0.002825719304382801,0.02503642439842224,0.07955352216959,9.175521850585938,-0.1400795429944992,-2.8827855587005615
1413393886735760500,4.555564373731613e-05,0.028074517846107483,0.07477497309446335,9.517613410949707,-0.0339202806353569,-3.011253595352173
1413393886740760500,0.008227157406508923,0.030805692076683044,0.08574729412794113,9.206437110900879,0.07242503017187119,-2.9789481163024902
1413393886745760500,-0.0019829990342259407,0.03222264349460602,0.074859619140625,9.354179382324219,0.07238297164440155,-2.948838949203491
1413393886750760500,-0.005448115058243275,0.014269247651100159,0.08385518193244934,9.094759941101074,0.09713266789913177,-2.7362465858459473
1413393886755760500,-0.005816859193146229,0.013185068964958191,0.08096722513437271,9.419129371643066,-0.07357364147901535,-2.8986616134643555
1413393886760760500,-0.0072113992646336555,0.016773417592048645,0.08986974507570267,9.263267517089844,-0.07529476284980774,-3.125636100769043
1413393886765760500,-0.014564734883606434,0.025553077459335327,0.07975497841835022,9.460783004760742,-0.16248193383216858,-3.0463974475860596
1413393886770760500,-0.006799858994781971,0.012923628091812134,0.0816369578242302,9.2887544631958,-0.276367723941803,-3.0387370586395264
1413393886775760500,0.0005169389769434929,0.026469334959983826,0.07818346470594406,9.435701370239258,-0.10085726529359818,-2.9549429416656494
1413393886780760500,0.010994541458785534,0.015432998538017273,0.08786948025226593,9.263717651367188,0.040613263845443726,-3.0035548210144043
1413393886785760500,0.000938701443374157,0.029496774077415466,0.07353679835796356,9.459470748901367,0.07417798787355423,-2.9975149631500244
1413393886790760500,-0.007412982173264027,0.008579641580581665,0.0795164704322815,9.110387802124023,0.13583916425704956,-2.940220355987549
1413393886795760500,-0.011338633485138416,0.017916858196258545,0.07813707739114761,9.42713737487793,-0.21945607662200928,-2.9878427982330322
1413393886800760500,-0.011241954751312733,0.020952746272087097,0.08836453408002853,9.27147102355957,-0.13185477256774902,-3.183316707611084
1413393886805760500,-0.012058672495186329,0.02921406924724579,0.08185756951570511,9.485372543334961,-0.16375795006752014,-3.0040392875671387
1413393886810760500,-0.007057500071823597,0.014888986945152283,0.08367613703012466,9.190547943115234,-0.09850061684846878,-2.981038808822632
1413393886815760500,-0.0029018940404057503,0.03537636995315552,0.07467437535524368,9.467846870422363,-0.19886593520641327,-2.9882051944732666
1413393886820760500,0.0013992367312312126,0.02883230149745941,0.08008406311273575,9.109807968139648,-0.11249509453773499,-3.020007610321045
1413393886825760500,0.004275369457900524,0.035891249775886536,0.07834342122077942,9.483978271484375,-0.024364860728383064,-3.013542652130127
1413393886830760500,-0.0008531035855412483,0.02303493022918701,0.08310805261135101,9.125638008117676,-0.0216346587985754,-2.996199131011963
1413393886835760500,-0.004014057107269764,0.026526182889938354,0.08224650472402573,9.39501667022705,-0.018379034474492073,-2.929644823074341
1413393886840760500,-0.013927769847214222,0.02675361931324005,0.08479631692171097,9.092616081237793,-0.13903307914733887,-3.0455355644226074
1413393886845760500,-0.01143647450953722,0.03201228380203247,0.08867688477039337,9.313369750976562,-0.11054790765047073,-3.0285630226135254
1413393886850760500,-0.009650838561356068,0.028697729110717773,0.0852111205458641,9.32917594909668,-0.17158639430999756,-2.9798614978790283
1413393886855760500,-0.0021994831040501595,0.028683334589004517,0.08592776209115982,9.22378921508789,-0.0658406913280487,-2.914454936981201
1413393886860760500,0.0012317774817347527,0.032261401414871216,0.07678757607936859,9.142257690429688,-0.17193570733070374,-3.004127264022827
1413393886865760500,0.005602496676146984,0.024114608764648438,0.07610860466957092,9.247742652893066,-0.007905956357717514,-2.923166036605835
1413393886870760500,0.0033712564036250114,0.020334213972091675,0.07056020945310593,9.231606483459473,-0.07561077922582626,-3.053717613220215
1413393886875760500,-0.0005334438756108284,0.01831531524658203,0.07480116933584213,9.125618934631348,0.08813917636871338,-2.9382083415985107
1413393886880760500,-0.010973525233566761,0.02606847882270813,0.07808823883533478,9.362393379211426,-0.025904031470417976,-3.030103921890259
1413393886885760500,-0.013116222806274891,0.022868528962135315,0.0788201168179512,9.305764198303223,-0.1085934266448021,-2.9558303356170654
1413393886890760500,-0.011389088816940784,0.025059685111045837,0.07529514282941818,9.663294792175293,-0.1391686052083969,-3.1987476348876953
1413393886895760500,-0.008488279767334461,0.030088379979133606,0.0809161514043808,9.191400527954102,0.08725831657648087,-2.8980226516723633
1413393886900760500,-0.00541235227137804,0.028109535574913025,0.07344196736812592,9.436197280883789,-0.18756398558616638,-2.9968185424804688
1413393886905760500,-0.00032852310687303543,0.02949199080467224,0.07476598024368286,9.321578979492188,-0.16226784884929657,-2.8499910831451416
1413393886910760500,0.012552487663924694,0.023034721612930298,0.08091289550065994,9.443809509277344,-0.13088278472423553,-3.070741891860962
1413393886915760500,0.0056275902315974236,0.025347590446472168,0.07750783860683441,9.036886215209961,0.06251680105924606,-2.8166327476501465
1413393886920760500,-0.0032987119629979134,0.02260132133960724,0.08429257571697235,9.443572998046875,0.055528029799461365,-3.102954626083374
1413393886925760500,-0.010260713286697865,0.025516167283058167,0.082313172519207,9.207818031311035,-0.0822116881608963,-2.8747425079345703
1413393886930760500,-0.008122664876282215,0.018999814987182617,0.0921422615647316,9.4843111038208,-0.010706838220357895,-2.9633724689483643
1413393886935760500,-0.010389399714767933,0.027283266186714172,0.08794636279344559,9.044303894042969,0.0633164718747139,-2.930473566055298
1413393886940760500,-0.010343176312744617,0.021751001477241516,0.08235715329647064,9.378978729248047,-0.2832849323749542,-2.997485399246216
1413393886945760500,-0.0010400833562016487,0.01759304106235504,0.08247539401054382,9.043551445007324,-0.2525773048400879,-2.947995662689209
1413393886950760500,0.007037061266601086,0.018146991729736328,0.07551855593919754,9.395153045654297,-0.09871411323547363,-2.9724271297454834
1413393886955760500,0.002687382511794567,0.01973903179168701,0.0781780332326889,9.151223182678223,-0.00041279420838691294,-2.890603542327881
1413393886960760500,-0.0019019963219761848,0.014937236905097961,0.07628271728754044,9.573357582092285,-0.15583866834640503,-3.094015121459961
1413393886965760500,-0.0032772542908787727,0.021231740713119507,0.07539557665586472,9.05331039428711,-0.08221723884344101,-2.8498857021331787
1413393886970760500,-0.004809004254639149,0.012662336230278015,0.09102331846952438,9.484000205993652,0.13464929163455963,-3.2817912101745605
1413393886975760500,-0.016194205731153488,0.039884164929389954,0.08521386235952377,9.338350296020508,0.07791610062122345,-2.930525302886963
1413393886980760500,-0.016945164650678635,0.023231327533721924,0.08655925840139389,9.22433853149414,-0.1783701479434967,-2.8989150524139404
1413393886985760500,-0.00828882772475481,0.02719593048095703,0.07201968133449554,9.353340148925781,-0.39119964838027954,-2.9235076904296875
1413393886990760500,0.00870965700596571,0.024423211812973022,0.07947724312543869,9.207669258117676,-0.10803062468767166,-3.045189380645752
1413393886995760500,0.009765255264937878,0.025440797209739685,0.08457031100988388,9.411746978759766,0.017306068912148476,-2.9807567596435547
1413393887000760500,-0.0012869955971837044,0.01850859820842743,0.07554332166910172,9.344917297363281,-0.01796167716383934,-2.9723868370056152
1413393887005760500,-0.0007572295144200325,0.024678349494934082,0.07799217849969864,9.289463996887207,-0.0996352806687355,-3.0288944244384766
1413393887010760500,-0.002422046847641468,0.02112710475921631,0.08904115110635757,9.174181938171387,0.25032132863998413,-3.0114986896514893
1413393887015760500,-0.016362320631742477,0.029514402151107788,0.09132569283246994,9.631157875061035,0.11891967058181763,-2.996358633041382
1413393887020760500,-0.0207907073199749,0.03232795000076294,0.08397746831178665,9.24821662902832,-0.11517856270074844,-2.8985729217529297
1413393887025760500,-0.00851492304354906,0.018085718154907227,0.07624713331460953,9.370022773742676,-0.40008580684661865,-2.9966115951538086
1413393887030760500,0.006736534647643566,0.03201600909233093,0.07176894694566727,9.166730880737305,-0.19686560332775116,-2.939444065093994
1413393887035760500,0.010590839199721813,0.020680099725723267,0.08372743427753448,9.347137451171875,-0.007006111089140177,-2.948674201965332
1413393887040760500,0.002584475092589855,0.029518738389015198,0.07416141033172607,9.418600082397461,-0.15595519542694092,-2.9879629611968994
1413393887045760500,0.004346656613051891,0.02120165526866913,0.08245585858821869,9.184098243713379,-0.01846957392990589,-2.956430673599243
1413393887050760500,-0.001228255219757557,0.02818387746810913,0.0820002406835556,9.109783172607422,0.2591860294342041,-2.9789602756500244
1413393887055760500,-0.02047809585928917,0.021923229098320007,0.08628442138433456,9.418351173400879,0.18510021269321442,-3.0050363540649414
1413393887060760500,-0.023995395749807358,0.035100117325782776,0.08055544644594193,9.33824348449707,-0.14937911927700043,-3.052572250366211
1413393887065760500,-0.010722693987190723,0.01951882243156433,0.08249127864837646,9.207586288452148,-0.2932809293270111,-2.882798194885254
1413393887070760500,0.0018737195059657097,0.02299468219280243,0.07611332833766937,9.166180610656738,-0.2355840653181076,-2.9151978492736816
1413393887075760500,0.010371613316237926,0.012198612093925476,0.08161022514104843,9.176108360290527,-0.13810139894485474,-2.922224998474121
1413393887080760500,0.004811483435332775,0.022513151168823242,0.07610654085874557,9.500107765197754,-0.1305527538061142,-3.038266181945801
1413393887085760500,0.007481562905013561,0.014271572232246399,0.07628895342350006,9.166608810424805,-0.06484154611825943,-2.9641666412353516
1413393887090760500,0.002382504753768444,0.022653400897979736,0.08021243661642075,9.240330696105957,0.16111163794994354,-3.003920078277588
1413393887095760500,-0.013059181161224842,0.00916677713394165,0.08498308062553406,9.197858810424805,0.2098461091518402,-2.9641056060791016
1413393887100760500,-0.028692912310361862,0.02457842230796814,0.07908018678426743,9.534147262573242,-0.10854581743478775,-3.0035784244537354
1413393887105760500,-0.01897956058382988,0.020156383514404297,0.08499082922935486,9.354835510253906,-0.37713155150413513,-2.93096661567688
1413393887110760500,-0.0015405835583806038,0.031939730048179626,0.08231664448976517,9.45102596282959,-0.38997530937194824,-2.997313976287842
1413393887115760500,0.005688118748366833,0.019679248332977295,0.08457168936729431,9.078015327453613,-0.2125365138053894,-2.8263421058654785
1413393887120760500,0.010728227905929089,0.02249908447265625,0.07828789204359055,9.582927703857422,-0.1884305328130722,-2.988356351852417
1413393887125760500,0.012365597300231457,0.018393084406852722,0.07551568746566772,9.174920082092285,-0.05724353343248367,-2.8656654357910156
1413393887130760500,0.00933991651982069,0.024147987365722656,0.08230991661548615,9.386713027954102,0.18548545241355896,-3.118727922439575
1413393887135760500,-0.00875596422702074,0.03156580030918121,0.08151975274085999,9.182392120361328,0.26616370677948,-2.9311230182647705
1413393887140760500,-0.02863292023539543,0.023995235562324524,0.08241032063961029,9.493927001953125,0.15788844227790833,-2.98009991645813
1413393887145760500,-0.026543837040662766,0.03352327644824982,0.08160340785980225,9.281805038452148,-0.20671074092388153,-2.8899059295654297
1413393887150760500,-0.010335219092667103,0.019589468836784363,0.08288567513227463,9.246991157531738,-0.31614869832992554,-3.0292718410491943
1413393887155760500,-0.0036883773282170296,0.03704337775707245,0.0769006609916687,9.117886543273926,-0.2531864047050476,-2.890638828277588
1413393887160760500,0.009622174315154552,0.02121521532535553,0.07841747254133224,9.35509967803955,-0.28592854738235474,-2.899470329284668
1413393887165760500,0.013626175932586193,0.030903279781341553,0.06851024925708771,9.346258163452148,-0.19390204548835754,-3.013065814971924
1413393887170760500,0.013898241333663464,0.020640835165977478,0.08217794448137283,9.174633979797363,0.22634239494800568,-3.085686445236206
1413393887175760500,-0.007649135775864124,0.03935620188713074,0.07951396703720093,9.281225204467773,0.4019874930381775,-2.9388439655303955
1413393887180760500,-0.028338368982076645,0.026071667671203613,0.08576156944036484,9.30515193939209,0.1355365812778473,-3.0128228664398193
1413393887185760500,-0.03158901259303093,0.028661921620368958,0.07607299834489822,9.427942276000977,-0.23003897070884705,-3.0940945148468018
1413393887190760500,-0.020241301506757736,0.013312652707099915,0.08289792388677597,9.182719230651855,-0.3023931384086609,-2.881740093231201
1413393887195760500,-0.005050969310104847,0.03695668280124664,0.0748920887708664,9.550284385681152,-0.3340420722961426,-3.013573408126831
1413393887200760500,0.011688935570418835,0.023966342210769653,0.08317314088344574,9.069564819335938,-0.3898174464702606,-2.8902156352996826
1413393887205760500,0.01971571519970894,0.019720494747161865,0.07281981408596039,9.615382194519043,-0.2839122712612152,-2.9245083332061768
1413393887210760500,0.02072884514927864,0.015513613820075989,0.07394900918006897,9.21626091003418,0.2113995999097824,-2.889866828918457
1413393887215760500,0.00970380287617445,0.02688881754875183,0.08352459967136383,9.533461570739746,0.40514644980430603,-3.110154390335083
1413393887220760500,-0.023326214402914047,0.0296475887298584,0.08372456580400467,9.255939483642578,0.2725957930088043,-3.0038559436798096
1413393887225760500,-0.02948775514960289,0.02942599356174469,0.08118610829114914,9.332024574279785,-0.003539326135069132,-2.9071013927459717
1413393887230760500,-0.023672696202993393,0.015123739838600159,0.08912991732358932,9.174097061157227,-0.2126229703426361,-2.784140110015869
1413393887235760500,-0.0068843187764286995,0.021601572632789612,0.08998899906873703,9.499545097351074,-0.35931968688964844,-3.0862624645233154
1413393887240760500,0.00945087056607008,0.033746689558029175,0.08525952696800232,9.1182861328125,-0.357791006565094,-2.8571038246154785
1413393887245760500,0.016253013163805008,0.024747416377067566,0.07493865489959717,9.379948616027832,-0.31606006622314453,-2.7616395950317383
1413393887250760500,0.022658754140138626,0.01536114513874054,0.07484256476163864,9.126876831054688,-0.13781723380088806,-2.874298334121704
1413393887255760500,0.013101237826049328,0.011519595980644226,0.07819383591413498,9.247406959533691,0.3571126163005829,-3.142517328262329
1413393887260760500,-0.010227751918137074,0.03389003872871399,0.08505294471979141,9.182915687561035,0.4838690459728241,-2.8809831142425537
1413393887265760500,-0.033435624092817307,0.01986776292324066,0.07702178508043289,9.445096969604492,0.125210702419281,-2.972615957260132
1413393887270760500,-0.033236753195524216,0.020668596029281616,0.07872491329908371,9.256570816040039,-0.3185011148452759,-2.913944959640503
1413393887275760500,-0.02035083994269371,0.012458041310310364,0.07099509239196777,9.231210708618164,-0.3340749442577362,-3.029663324356079
1413393887280760500,-0.001847994513809681,0.035190120339393616,0.07561429589986801,9.322745323181152,-0.3596207797527313,-2.8742878437042236
1413393887285760500,0.006190824322402477,0.015699833631515503,0.07573113590478897,9.43630599975586,-0.3571805953979492,-3.0460216999053955
1413393887290760500,0.01932596042752266,0.02569897472858429,0.07122420519590378,9.49284839630127,-0.24159209430217743,-2.9158027172088623
1413393887295760500,0.018111038953065872,0.011346578598022461,0.07313718646764755,9.101958274841309,0.17138728499412537,-2.980698823928833
1413393887300760500,0.0066155074164271355,0.03598549962043762,0.08766210079193115,9.566780090332031,0.49966904520988464,-3.026581287384033
1413393887305760500,-0.02503543719649315,0.024902164936065674,0.09009544551372528,9.190788269042969,0.2886335551738739,-2.980236291885376
1413393887310760500,-0.03407074138522148,0.01941339671611786,0.08802179247140884,9.533449172973633,-0.1484713852405548,-2.980166435241699
1413393887315760500,-0.02477232739329338,0.026104360818862915,0.0849728062748909,9.100296020507812,-0.2956832945346832,-2.9550390243530273
1413393887320760500,-0.012527805753052235,0.02336132526397705,0.09330514818429947,9.623368263244629,-0.3041103184223175,-3.127411365509033
1413393887325760500,0.004484343342483044,0.02485346794128418,0.08057606965303421,9.094443321228027,-0.4216112494468689,-2.833012104034424
1413393887330760500,0.021791357547044754,0.018032729625701904,0.07970777153968811,9.558061599731445,-0.36323943734169006,-2.989572048187256
1413393887335760500,0.024900425225496292,0.03698357939720154,0.06861881911754608,9.126070022583008,-0.025334801524877548,-2.8903491497039795
1413393887340760500,0.013600367121398449,0.02156732976436615,0.08980220556259155,9.460424423217773,0.5335193872451782,-3.004350185394287
1413393887345760500,-0.017982345074415207,0.04013580083847046,0.07950328290462494,9.369708061218262,0.3140906095504761,-3.0684380531311035
1413393887350760500,-0.03455178067088127,0.027925565838813782,0.07347739487886429,9.226092338562012,0.10075599700212479,-2.9877748489379883
1413393887355760500,-0.028714191168546677,0.03189776837825775,0.08145449310541153,9.076313972473145,-0.2716963291168213,-3.0358290672302246
1413393887360760500,-0.017724495381116867,0.021977946162223816,0.07939308136701584,9.280117988586426,-0.22026479244232178,-3.0219197273254395
1413393887365760500,-0.0006833644583821297,0.041339144110679626,0.08111732453107834,9.200403213500977,-0.4316687285900116,-2.824962854385376
1413393887370760500,0.008490162901580334,0.019682273268699646,0.07840632647275925,9.305732727050781,-0.421985387802124,-2.857715606689453
1413393887375760500,0.026592213660478592,0.028820887207984924,0.07340172678232193,9.249188423156738,-0.13563552498817444,-2.8661792278289795
1413393887380760500,0.015155094675719738,0.010199874639511108,0.07590130716562271,9.10943603515625,0.4384921193122864,-3.0057079792022705
1413393887385760500,-0.0039421143010258675,0.033844590187072754,0.08925968408584595,9.47610855102539,0.508005678653717,-2.9781017303466797
1413393887390760500,-0.034172412008047104,0.016898006200790405,0.07985063642263412,9.33033275604248,0.15996529161930084,-3.0519659519195557
1413393887395760500,-0.033763300627470016,0.020922482013702393,0.082321397960186,9.361982345581055,-0.06841114163398743,-2.99619460105896
1413393887400760500,-0.028560366481542587,0.006884440779685974,0.07708574086427689,9.336813926696777,-0.37554681301116943,-2.939552068710327
1413393887405760500,-0.008219939656555653,0.022404611110687256,0.0845765694975853,9.665190696716309,-0.3105010986328125,-3.0610404014587402
1413393887410760500,0.0007568178698420525,0.019670695066452026,0.07924333214759827,9.200395584106445,-0.45559537410736084,-2.825658082962036
1413393887415760500,0.022497612982988358,0.01626811921596527,0.07334094494581223,9.541528701782227,-0.403530091047287,-2.972750425338745
1413393887420760500,0.02647985890507698,0.023046672344207764,0.0706029161810875,9.24850845336914,0.03331928700208664,-2.971712827682495
1413393887425760500,0.014948594383895397,0.00796036422252655,0.09034960716962814,9.508502006530762,0.4768335223197937,-3.166825771331787
1413393887430760500,-0.009725463576614857,0.03859250247478485,0.08514077961444855,9.33789348602295,0.3122260868549347,-2.9880356788635254
1413393887435760500,-0.03395312651991844,0.01830725371837616,0.08322938531637192,9.289948463439941,0.0043367305770516396,-3.044069766998291
1413393887440760500,-0.030033614486455917,0.02837243676185608,0.0820297971367836,9.205397605895996,-0.13280338048934937,-3.020676612854004
1413393887445760500,-0.016144778579473495,0.014805734157562256,0.08974260091781616,9.26411247253418,-0.3761179447174072,-3.061488628387451
1413393887450760500,0.002737092785537243,0.03775106370449066,0.08612997084856033,9.363737106323242,-0.4961925446987152,-2.954712152481079
1413393887455760500,0.01652701571583748,0.016279637813568115,0.08257434517145157,9.158864974975586,-0.4448130130767822,-2.834531307220459
1413393887460760500,0.03128944709897041,0.025902211666107178,0.07620180398225784,9.38691520690918,-0.16906589269638062,-2.988304615020752
1413393887465760500,0.017409879714250565,0.019164249300956726,0.07935602962970734,9.011558532714844,0.3311844766139984,-3.0044443607330322
1413393887470760500,-0.00464398879557848,0.025496527552604675,0.08374785631895065,9.362261772155762,0.5974946022033691,-2.979128360748291
1413393887475760500,-0.030438538640737534,0.02539224922657013,0.07988814264535904,9.224411010742188,0.15039965510368347,-2.9792609214782715
1413393887480760500,-0.03976812586188316,0.024370327591896057,0.07126384973526001,9.297274589538574,-0.10828676074743271,-3.0608394145965576
1413393887485760500,-0.027843769639730453,0.01596817374229431,0.07909537106752396,9.239150047302246,-0.29586654901504517,-2.963413953781128
1413393887490760500,-0.009259265847504139,0.030233100056648254,0.0796874538064003,9.519298553466797,-0.368576318025589,-2.9399166107177734
1413393887495760500,0.009362268261611462,0.02597096562385559,0.07775241881608963,9.26488971710205,-0.5015685558319092,-2.923015832901001
1413393887500760500,0.026564408093690872,0.02666500210762024,0.07340053468942642,9.459228515625,-0.3315719664096832,-2.95723295211792
1413393887505760500,0.02579321339726448,0.023139968514442444,0.07318630069494247,9.289578437805176,0.12135664373636246,-3.004671335220337
1413393887510760500,0.010088908486068249,0.01856774091720581,0.08021676540374756,9.428165435791016,0.535325825214386,-3.0111196041107178
1413393887515760500,-0.015198213048279285,0.03311169147491455,0.08927921205759048,9.411003112792969,0.38547483086586,-2.962899684906006
1413393887520760500,-0.03801020607352257,0.027394935488700867,0.07762159407138824,9.41963005065918,0.1407586634159088,-3.1821401119232178
1413393887525760500,-0.030176084488630295,0.029101669788360596,0.08623746037483215,9.336986541748047,-0.2612255811691284,-2.8980398178100586
1413393887530760500,-0.020885135978460312,0.02387125790119171,0.07792158424854279,9.32930850982666,-0.3522317409515381,-3.11161470413208
1413393887535760500,0.001557755284011364,0.039206475019454956,0.08185967057943344,9.209200859069824,-0.46463078260421753,-2.808213233947754
1413393887540760500,0.01992090418934822,0.02250368893146515,0.081978939473629,9.337642669677734,-0.41023117303848267,-2.989197015762329
1413393887545760500,0.0314522422850132,0.030192136764526367,0.07684352993965149,9.371272087097168,-0.08005071431398392,-2.834007978439331
1413393887550760500,0.014992284588515759,0.014975011348724365,0.08362206071615219,9.003663063049316,0.5656837224960327,-3.0454013347625732
1413393887555760500,-0.012482953257858753,0.036486491560935974,0.09194523841142654,9.541298866271973,0.5830371975898743,-3.0510828495025635
1413393887560760500,-0.044056739658117294,0.02829962968826294,0.08521615713834763,9.167617797851562,0.23190180957317352,-3.069518804550171
1413393887565760500,-0.03567181155085564,0.034687697887420654,0.08314491808414459,9.509064674377441,-0.42634135484695435,-2.963144063949585
1413393887570760500,-0.022323112934827805,0.022873520851135254,0.06910543888807297,9.18334674835205,-0.5372698903083801,-2.801379680633545
1413393887575760500,0.0029597757384181023,0.029500067234039307,0.07469422370195389,9.250504493713379,-0.5632292628288269,-2.9799442291259766
1413393887580760500,0.01789756491780281,0.021205991506576538,0.07012681663036346,9.272117614746094,-0.27683064341545105,-3.053835153579712
1413393887585760500,0.023251671344041824,0.009387582540512085,0.07515955716371536,9.50825023651123,0.3187291622161865,-3.396817922592163
1413393887590760500,1.3886019587516785e-06,0.038391709327697754,0.07050064206123352,9.559797286987305,0.43067535758018494,-3.085660696029663
1413393887595760500,-0.030746590346097946,0.029683008790016174,0.0667763352394104,9.60012435913086,0.41227012872695923,-3.1246092319488525
1413393887600760500,-0.037435900419950485,0.041813552379608154,0.05997077748179436,9.987872123718262,-0.5054804682731628,-3.3693153858184814
1413393887605760500,-0.01243120152503252,0.020832479000091553,0.06798616051673889,9.486132621765137,-0.638930082321167,-2.8078134059906006
1413393887610760500,0.01191981416195631,0.05121748149394989,0.0835971012711525,9.328142166137695,-0.2837563157081604,-3.150872230529785
1413393887615760500,0.028581250458955765,0.05834388732910156,0.12369485199451447,8.92044734954834,0.019514940679073334,-2.8160295486450195
1413393887620760500,0.0195932574570179,0.03658735752105713,0.15231679379940033,8.968575477600098,-0.023317525163292885,-2.938523769378662
1413393887625760500,0.01888318732380867,0.05888839066028595,0.14267300069332123,9.408056259155273,-0.231682687997818,-2.9388558864593506
1413393887630760500,0.013107585720717907,0.03297698497772217,0.11881319433450699,8.857036590576172,-0.04744015634059906,-2.7842445373535156
1413393887635760500,-0.002509486861526966,0.025795042514801025,0.1090693324804306,9.115497589111328,0.4833357334136963,-3.0444154739379883
1413393887640760500,-0.04222651943564415,0.05206790566444397,0.08267583698034286,9.053948402404785,0.20494471490383148,-2.6626880168914795
1413393887645760500,-0.05470363423228264,0.034353211522102356,0.05364987626671791,9.160123825073242,-0.483264684677124,-2.9482250213623047
1413393887650760500,-0.023399721831083298,0.03228810429573059,0.023800862953066826,9.004827499389648,-1.0647759437561035,-2.701580762863159
1413393887655760500,0.011934506706893444,0.012306034564971924,0.03193920850753784,8.623735427856445,-0.2938876748085022,-2.6380927562713623
1413393887660760500,0.026444632560014725,0.049797073006629944,0.050100475549697876,9.444619178771973,-0.03293894976377487,-3.0138909816741943
1413393887665760500,0.007102864794433117,0.036701589822769165,0.05564730986952782,8.499785423278809,0.18575647473335266,-2.6232824325561523
1413393887670760500,0.00894822459667921,0.0004887133836746216,0.06872636824846268,9.475057601928711,0.04163314402103424,-3.2006688117980957
1413393887675760500,-0.00364647526293993,0.03346462547779083,0.0696464255452156,9.37236213684082,0.4595743715763092,-2.7586801052093506
1413393887680760500,-0.011755895800888538,0.005081042647361755,0.13300910592079163,9.148455619812012,0.5476438403129578,-3.109226703643799
1413393887685760500,-0.042231764644384384,0.034412384033203125,0.10997138172388077,9.524250984191895,-0.16296952962875366,-2.8245842456817627
1413393887690760500,-0.023086246103048325,-0.014825239777565002,0.10889365524053574,9.37997817993164,-0.6196013689041138,-2.9626102447509766
1413393887695760500,-0.0035456540063023567,0.004554808139801025,0.07244580239057541,10.167695999145508,-0.3909361958503723,-3.0545120239257812
1413393887700760500,0.0066047487780451775,-0.00679527223110199,0.10769541561603546,9.499924659729004,0.24398212134838104,-3.0778801441192627
1413393887705760500,-0.011211556382477283,0.043276503682136536,0.06858259439468384,9.967928886413574,-0.48624956607818604,-3.283524990081787
1413393887710760500,0.0077064065262675285,0.00863686203956604,0.06991612911224365,8.909812927246094,-0.2982940375804901,-2.2629153728485107
1413393887715760500,0.023018021136522293,0.0068769752979278564,0.05320773646235466,10.331502914428711,-0.4367539882659912,-3.4172492027282715
1413393887720760500,0.017776895314455032,0.036411359906196594,0.06650141626596451,8.87409496307373,0.8192835450172424,-2.8148510456085205
1413393887725760500,-0.0011465372517704964,0.03294014930725098,0.09523068368434906,9.508529663085938,0.44884952902793884,-3.2916066646575928
1413393887730760500,-0.02519836649298668,0.07748323678970337,0.07916061580181122,8.688494682312012,-0.03529589623212814,-2.451909303665161
1413393887735760500,-0.0137221934273839,-7.31348991394043e-05,0.09582653641700745,8.995471954345703,0.02320573665201664,-2.998086452484131
1413393887740760500,-0.01722414419054985,0.045137450098991394,0.07506252825260162,9.350957870483398,-0.21550825238227844,-3.271669387817383
1413393887745760500,-0.012151730246841908,0.027341365814208984,0.10864344984292984,8.65543270111084,-0.08685431629419327,-2.9087929725646973
1413393887750760500,-0.018510963767766953,0.06017836928367615,0.08571987599134445,9.021431922912598,-0.6572247743606567,-2.8814594745635986
1413393887755760500,-0.0027119340375065804,0.01544182002544403,0.0798390656709671,8.555028915405273,-0.2332189381122589,-2.630305528640747
1413393887760760500,0.016837049275636673,-0.004150465130805969,0.055597297847270966,9.728432655334473,-0.4489835202693939,-3.385450601577759
1413393887765760500,0.01707025244832039,0.015915274620056152,0.06350494921207428,9.077308654785156,0.3444972634315491,-2.9375834465026855
1413393887770760500,0.0017154989764094353,0.021455809473991394,0.0768248438835144,9.82406234741211,0.06754349172115326,-3.5519661903381348
1413393887775760500,-0.01972581073641777,0.04774555563926697,0.04451035335659981,8.56935977935791,0.12691956758499146,-2.3351550102233887
1413393887780760500,-0.014217657037079334,-0.021340176463127136,0.07586640864610672,9.468677520751953,-0.13251569867134094,-2.989215612411499
1413393887785760500,-0.021089773625135422,0.011868014931678772,0.04935517907142639,10.035923957824707,-0.23583436012268066,-3.2698569297790527
1413393887790760500,-0.00632141251116991,0.005657762289047241,0.09906547516584396,9.300539016723633,0.1178048700094223,-2.801943063735962
1413393887795760500,-0.016967888921499252,0.04640045762062073,0.09027021378278732,9.963292121887207,-0.2571534812450409,-3.0869836807250977
1413393887800760500,-0.01684628054499626,0.016746610403060913,0.08408679068088531,8.786338806152344,-0.2225620150566101,-2.709653377532959
1413393887805760500,0.00980232935398817,0.0038438886404037476,0.0901777371764183,10.234683990478516,-0.6320481896400452,-3.2719085216522217
1413393887810760500,0.018827874213457108,0.034680113196372986,0.09944843500852585,8.982670783996582,0.06433489173650742,-2.790947198867798
1413393887815760500,0.017676878720521927,0.036019012331962585,0.11181137710809708,9.713757514953613,0.34965333342552185,-3.200749158859253
1413393887820760500,-0.009495300240814686,0.05364486575126648,0.0877690389752388,9.061108589172363,-0.034786246716976166,-2.6366121768951416
1413393887825760500,-0.010605585761368275,0.013107210397720337,0.08403340727090836,9.215435981750488,-0.021875903010368347,-3.006169319152832
1413393887830760500,-0.002989870496094227,0.029613643884658813,0.07519280910491943,9.621493339538574,-0.24942083656787872,-3.1307005882263184
1413393887835760500,-0.0023085596039891243,0.038392409682273865,0.08133764564990997,8.605142593383789,0.17082244157791138,-2.8413822650909424
1413393887840760500,-0.01272557396441698,0.03168182075023651,0.09021764993667603,9.149964332580566,0.23596878349781036,-2.909571409225464
1413393887845760500,-0.023208927363157272,0.032725170254707336,0.06780308485031128,8.77087116241455,-0.1564803272485733,-2.679130792617798
1413393887850760500,-0.015360903926193714,-0.0073644667863845825,0.07115644216537476,9.021405220031738,-0.1542060375213623,-3.0293643474578857
1413393887855760500,0.003712969832122326,0.013963177800178528,0.07447720319032669,9.310674667358398,-0.22972382605075836,-3.114798069000244
1413393887860760500,0.006820457987487316,0.004423931241035461,0.07837875932455063,8.77088451385498,0.061976779252290726,-2.729166269302368
1413393887865760500,0.0035503385588526726,0.012978777289390564,0.07081170380115509,9.750992774963379,0.11209212243556976,-3.0726847648620605
1413393887870760500,-0.007122677750885487,0.004944905638694763,0.06344517320394516,8.933765411376953,0.038146208971738815,-2.750126600265503
1413393887875760500,-0.012903315015137196,-0.010563507676124573,0.07772662490606308,9.558197975158691,0.015342824161052704,-3.2697083950042725
1413393887880760500,-0.010897171683609486,0.030032441020011902,0.0877537876367569,9.628052711486816,-0.1295042484998703,-3.1296136379241943
1413393887885760500,-0.009745401330292225,0.010350823402404785,0.08400421589612961,9.14509105682373,-0.2920492887496948,-3.0052244663238525
1413393887890760500,-0.008392048068344593,0.01517079770565033,0.077762171626091,9.996247291564941,-0.09114676713943481,-2.970491409301758
1413393887895760500,-0.006763291545212269,0.019730091094970703,0.07647863775491714,9.395912170410156,-0.12397754192352295,-2.874253273010254
1413393887900760500,-0.014346015639603138,0.01644003391265869,0.07384107261896133,9.69623851776123,-0.10466284304857254,-3.138792037963867
1413393887905760500,-0.007104826159775257,0.03137029707431793,0.08482801914215088,9.670816421508789,-0.33568623661994934,-3.0329620838165283
1413393887910760500,0.008739369921386242,0.024257421493530273,0.09076763689517975,9.129176139831543,-0.34947994351387024,-2.9170100688934326
1413393887915760500,0.010380196385085583,0.02392438054084778,0.0731280967593193,9.580378532409668,0.07977011799812317,-2.98803973197937
1413393887920760500,0.0008549569174647331,0.026314392685890198,0.07852490246295929,9.020617485046387,0.10657388716936111,-2.789177894592285
1413393887925760500,-0.012426299042999744,0.013587415218353271,0.08507299423217773,9.523870468139648,0.07168903201818466,-3.143953561782837
1413393887930760500,-0.013505232520401478,0.04997485876083374,0.09586668759584427,9.646988868713379,0.046540677547454834,-3.126817464828491
1413393887935760500,-0.007583213038742542,0.04048137366771698,0.10110106319189072,8.50130558013916,-0.18852749466896057,-2.880255699157715
1413393887940760500,-0.002244931645691395,0.02346491813659668,0.0876915380358696,9.441247940063477,-0.2677619457244873,-2.8910250663757324
1413393887945760500,0.006257462315261364,0.05112186074256897,0.08222786337137222,9.029781341552734,-0.07758454233407974,-2.829415798187256
1413393887950760500,0.002964305691421032,0.006718486547470093,0.08668533712625504,8.702960014343262,0.0559389628469944,-2.819344997406006
1413393887955760500,-0.010929984040558338,0.027318820357322693,0.07237013429403305,9.629097938537598,0.1037180945277214,-3.1990575790405273
1413393887960760500,-0.009321344085037708,0.04074409604072571,0.080543652176857,8.957477569580078,0.046221449971199036,-2.988511323928833
1413393887965760500,-0.00019530672580003738,0.0034797489643096924,0.07938969135284424,8.93700122833252,-0.20136132836341858,-2.8081297874450684
1413393887970760500,-0.0035491706803441048,0.022988051176071167,0.055873751640319824,9.50271224975586,0.15001267194747925,-2.9291257858276367
1413393887975760500,-0.004261893220245838,0.009348168969154358,0.07009468972682953,8.818953514099121,0.16168145835399628,-2.7131736278533936
1413393887980760500,-0.017866235226392746,0.00591510534286499,0.06374188512563705,9.963486671447754,0.048514142632484436,-3.1909148693084717
1413393887985760500,-0.02205493673682213,0.048052698373794556,0.06665854156017303,9.625277519226074,-0.08481279760599136,-2.8410120010375977
1413393887990760500,-0.014117089100182056,0.006662622094154358,0.08218551427125931,9.314848899841309,-0.48241668939590454,-2.8261420726776123
1413393887995760500,-0.0026883305981755257,0.02953152358531952,0.07995694130659103,9.989006996154785,-0.5864028334617615,-2.978485584259033
1413393888000760500,0.0077307699248194695,0.03916391730308533,0.07487399131059647,9.17546558380127,0.1427963823080063,-2.965129852294922
1413393888005760500,0.013087230734527111,0.005591973662376404,0.08766236156225204,9.248254776000977,0.21060313284397125,-2.9141290187835693
1413393888010760500,0.004357027821242809,0.017258241772651672,0.09071467071771622,9.816596031188965,0.07680568099021912,-3.1188793182373047
1413393888015760500,-0.014117193408310413,0.031711578369140625,0.08688648790121078,9.348358154296875,0.10567228496074677,-3.068256378173828
1413393888020760500,-0.01331563014537096,0.005672022700309753,0.101251982152462,9.442831993103027,-0.25117409229278564,-2.939450740814209
1413393888025760500,-0.0028375210240483284,0.023508816957473755,0.08934945613145828,9.416069984436035,-0.5566954016685486,-2.9730491638183594
1413393888030760500,-0.0011626007035374641,0.01360444724559784,0.07180487364530563,8.992323875427246,-0.1227026879787445,-2.6859960556030273
1413393888035760500,0.006535875611007214,0.0026024281978607178,0.08325506746768951,9.303292274475098,0.16863547265529633,-3.02992844581604
1413393888040760500,-0.004478645510971546,0.020021632313728333,0.08219791948795319,9.206812858581543,0.1837269365787506,-2.907376766204834
1413393888045760500,-0.0174129419028759,0.01312306523323059,0.07367861270904541,9.058488845825195,-0.028910819441080093,-3.004134178161621
1413393888050760500,-0.017107482999563217,0.025234147906303406,0.07889264822006226,9.439813613891602,-0.08971244841814041,-3.0057826042175293
1413393888055760500,-0.004892867989838123,0.03667205572128296,0.07767233997583389,8.946459770202637,-0.3036801218986511,-2.8973891735076904
1413393888060760500,0.006170141510665417,0.015631213784217834,0.07011448591947556,9.24288558959961,-0.18936923146247864,-2.8807449340820312
1413393888065760500,0.008191454224288464,0.02095124125480652,0.07855279743671417,9.114131927490234,0.09889993816614151,-2.8839664459228516
1413393888070760500,0.004541623406112194,0.012426167726516724,0.08622191101312637,9.300891876220703,0.13677608966827393,-3.0367026329040527
1413393888075760500,-0.011719566769897938,0.014623373746871948,0.07760294526815414,9.598502159118652,0.1962602287530899,-3.2080464363098145
1413393888080760500,-0.026391740888357162,0.037209585309028625,0.07945404946804047,9.489919662475586,0.07091740518808365,-3.127830743789673
1413393888085760500,-0.017460640519857407,0.028319329023361206,0.08178046345710754,9.153085708618164,-0.3460915684700012,-3.058978319168091
1413393888090760500,-0.000984293408691883,0.02465231716632843,0.07649464160203934,9.545706748962402,-0.28473150730133057,-2.9959447383880615
1413393888095760500,0.009074228815734386,0.022839397192001343,0.0771610215306282,9.117387771606445,-0.07249534130096436,-2.914693832397461
1413393888100760500,0.01141549926251173,0.01715695858001709,0.08248584717512131,9.560990333557129,0.032921791076660156,-3.118257999420166
1413393888105760500,0.0015249131247401237,0.020801231265068054,0.07900403439998627,9.570860862731934,0.13852030038833618,-3.1280462741851807
1413393888110760500,-0.017527204006910324,0.04367424547672272,0.06725479662418365,9.665828704833984,0.26970407366752625,-3.214755058288574
1413393888115760500,-0.020710479468107224,0.05035741627216339,0.08091007173061371,9.17591381072998,-0.1427866816520691,-2.783201217651367
1413393888120760500,-0.008450147695839405,0.024341776967048645,0.0896209180355072,9.408172607421875,-0.4362301528453827,-2.842559576034546
1413393888125760500,0.004150557331740856,0.031785935163497925,0.0877922922372818,9.103951454162598,-0.18685807287693024,-2.8082971572875977
1413393888130760500,0.008713829331099987,0.018197745084762573,0.09130790829658508,9.435190200805664,0.046101704239845276,-2.9716293811798096
1413393888135760500,0.007752078585326672,0.025455161929130554,0.08663976192474365,9.410479545593262,-0.014710143208503723,-3.0620439052581787
1413393888140760500,-0.017423968762159348,0.029010966420173645,0.07314406335353851,9.545244216918945,0.27997419238090515,-3.1579747200012207
1413393888145760500,-0.02699112519621849,0.05292534828186035,0.07193444669246674,9.182257652282715,-0.03334958851337433,-2.8253071308135986
1413393888150760500,-0.012442153878509998,0.03651145100593567,0.07989662140607834,8.954896926879883,-0.4587904214859009,-2.8324129581451416
1413393888155760500,0.006117063574492931,0.018458962440490723,0.0817023441195488,9.05404281616211,-0.4097852110862732,-2.807816743850708
1413393888160760500,0.015030252747237682,0.02317352592945099,0.0786859467625618,9.052074432373047,0.01820503920316696,-2.7869160175323486
1413393888165760500,0.010300296358764172,0.01783408224582672,0.08089696615934372,9.347116470336914,0.015705564990639687,-3.118138313293457
1413393888170760500,-0.0025579752400517464,0.012202784419059753,0.07158001512289047,9.208240509033203,0.36356282234191895,-2.898007869720459
1413393888175760500,-0.02383716031908989,0.02656795084476471,0.07259576767683029,9.525250434875488,0.31515488028526306,-3.052593946456909
1413393888180760500,-0.03753123804926872,0.04122564196586609,0.07561321556568146,9.070741653442383,-0.27142205834388733,-2.759751319885254
1413393888185760500,-0.016251619905233383,0.005641311407089233,0.0907849669456482,9.214855194091797,-0.7240338325500488,-2.8661067485809326
1413393888190760500,0.012480962090194225,0.014075785875320435,0.08559507131576538,9.484108924865723,-0.20055755972862244,-2.9804928302764893
1413393888195760500,0.017507392913103104,0.013483583927154541,0.09122907370328903,9.315739631652832,0.05573364347219467,-2.9320497512817383
1413393888200760500,0.006678062491118908,-0.0006492137908935547,0.07431290298700333,9.678186416625977,0.11985661089420319,-3.0935211181640625
1413393888205760500,-0.010178250260651112,0.00425487756729126,0.06228799745440483,9.737725257873535,0.33830612897872925,-3.2139885425567627
1413393888210760500,-0.025373663753271103,0.04188838601112366,0.06357946246862411,9.502236366271973,0.11678849160671234,-3.076838493347168
1413393888215760500,-0.02282768115401268,0.021769389510154724,0.08515547960996628,8.953742980957031,-0.35608288645744324,-2.9312288761138916
1413393888220760500,-0.003780168481171131,0.008516967296600342,0.0850587710738182,9.445144653320312,-0.5509184002876282,-2.9238688945770264
1413393888225760500,0.014481562189757824,0.02098703384399414,0.09575027972459793,9.30563735961914,-0.14912298321723938,-2.9884121417999268
1413393888230760500,0.01318772416561842,0.017522990703582764,0.08775358647108078,9.43393611907959,0.13649454712867737,-3.2162740230560303
1413393888235760500,0.0015708385035395622,0.013436898589134216,0.07697821408510208,9.451525688171387,0.2634466290473938,-3.0695817470550537
1413393888240760500,-0.019298385828733444,0.01540808379650116,0.07142678648233414,9.720673561096191,0.253447562456131,-3.2796883583068848
1413393888245760500,-0.030530449002981186,0.05296866595745087,0.0790475383400917,9.004436492919922,-0.2142120897769928,-2.8337743282318115
1413393888250760500,-0.008622047491371632,0.030981749296188354,0.09272873401641846,9.078006744384766,-0.5972338318824768,-2.866597890853882
1413393888255760500,0.01593928411602974,0.019936025142669678,0.09782564640045166,9.151163101196289,-0.3224397301673889,-2.7669169902801514
1413393888260760500,0.023454386740922928,0.023792162537574768,0.0891522541642189,9.288135528564453,-0.016650022938847542,-2.988711357116699
1413393888265760500,0.011925148777663708,0.023750901222229004,0.07902012765407562,9.353317260742188,0.2453758418560028,-3.1255125999450684
1413393888270760500,-0.016233038157224655,0.01923467218875885,0.049330633133649826,9.46120834350586,0.24965602159500122,-3.0926008224487305
1413393888275760500,-0.025365110486745834,0.03805162012577057,0.05540861561894417,9.331106185913086,0.19248707592487335,-3.0458271503448486
1413393888280760500,-0.025467779487371445,0.049619197845458984,0.06322753429412842,8.981829643249512,-0.2189435064792633,-2.662304639816284
1413393888285760500,-0.010940429754555225,0.022503241896629333,0.09025948494672775,8.972087860107422,-0.5094168782234192,-2.6704719066619873
1413393888290760500,0.005620199255645275,0.01118062436580658,0.09855607897043228,9.442972183227539,0.20926520228385925,-3.020414352416992
1413393888295760500,0.0005311546847224236,0.021099627017974854,0.08710387349128723,9.224188804626465,0.2827017605304718,-2.905604124069214
1413393888300760500,-0.01563165709376335,0.012308597564697266,0.07134782522916794,9.595220565795898,-0.09278114885091782,-3.306605815887451
1413393888305760500,-0.013439458794891834,0.01710529625415802,0.07859569042921066,9.61474609375,-0.08673486858606339,-3.010174036026001
1413393888310760500,-0.00023829657584428787,0.041721418499946594,0.07182124257087708,9.689967155456543,-0.6856399774551392,-3.0137550830841064
1413393888315760500,0.029600147157907486,0.04519966244697571,0.09958522766828537,9.150468826293945,-0.5498066544532776,-2.7256853580474854
1413393888320760500,0.0483684279024601,0.008045881986618042,0.11380279809236526,9.337044715881348,-0.09648216515779495,-2.9634156227111816
1413393888325760500,0.017722297459840775,0.031516626477241516,0.09376005828380585,9.738587379455566,0.6861586570739746,-3.198561668395996
1413393888330760500,-0.035850267857313156,0.02364671230316162,0.06596019119024277,9.25953197479248,0.888396680355072,-3.124810218811035
1413393888335760500,-0.05458485707640648,0.02454240620136261,0.06454813480377197,9.361652374267578,0.15475519001483917,-3.101781129837036
1413393888340760500,-0.058321263641119,0.04264232516288757,0.050046782940626144,9.340380668640137,-0.4650333821773529,-2.6951241493225098
1413393888345760500,-0.021953176707029343,0.009226813912391663,0.07943879812955856,8.93317699432373,-0.7377553582191467,-2.873436689376831
1413393888350760500,0.03387220576405525,0.01665233075618744,0.11434566229581833,9.29582405090332,-0.3957253098487854,-2.891286849975586
1413393888355760500,0.042172688990831375,0.01106366515159607,0.1091669499874115,9.31348705291748,0.2811792194843292,-3.103473663330078
1413393888360760500,0.011414396576583385,0.024186119437217712,0.08612648397684097,9.517278671264648,0.44636642932891846,-3.093409299850464
1413393888365760500,-0.01355008501559496,0.02830234169960022,0.071990966796875,9.628713607788086,-0.0389682911336422,-3.2151784896850586
1413393888370760500,-0.014795792289078236,0.04719747602939606,0.052544672042131424,9.5265531539917,-0.2924860715866089,-2.8565943241119385
1413393888375760500,0.008440869860351086,0.04078909754753113,0.08187414705753326,8.906412124633789,-0.01834486424922943,-2.7124671936035156
1413393888380760500,0.0024829087778925896,0.03516402840614319,0.08037284016609192,9.248285293579102,0.36671945452690125,-3.1912944316864014
1413393888385760500,-0.03665335103869438,0.05183471739292145,0.06932961195707321,9.186532974243164,0.43414944410324097,-3.0717318058013916
1413393888390760500,-0.05686561390757561,0.030482664704322815,0.0714288204908371,9.330974578857422,0.1733406037092209,-3.1421077251434326
1413393888395760500,-0.05365915223956108,0.04430165886878967,0.06077666953206062,9.29830265045166,-0.8430574536323547,-2.6362102031707764
1413393888400760500,-0.00812066812068224,0.030684828758239746,0.07825484126806259,8.614340782165527,-0.8457120060920715,-2.6100502014160156
1413393888405760500,0.04254220798611641,-0.0014497637748718262,0.09188411384820938,9.254205703735352,-0.6714943647384644,-2.9210684299468994
1413393888410760500,0.04757862165570259,-0.0001488327980041504,0.0759396106004715,9.272988319396973,0.07919125258922577,-2.9423606395721436
1413393888415760500,0.033470142632722855,0.0023625195026397705,0.07219047099351883,9.576661109924316,0.2516508102416992,-3.0479941368103027
1413393888420760500,0.00282325129956007,0.0038715004920959473,0.08453435450792313,9.61378288269043,0.5096777677536011,-2.9209656715393066
1413393888425760500,-0.01928253099322319,0.017611518502235413,0.0968959778547287,9.323749542236328,0.4625948965549469,-2.821871519088745
1413393888430760500,-0.04857596382498741,0.005198344588279724,0.08757543563842773,9.061214447021484,0.5185462236404419,-2.9371204376220703
1413393888435760500,-0.06646014750003815,0.008801877498626709,0.07557680457830429,9.741419792175293,-0.34251657128334045,-3.1109848022460938
1413393888440760500,-0.05629101023077965,0.019048333168029785,0.05098092183470726,9.13763427734375,-0.5935739874839783,-2.8510851860046387
1413393888445760500,0.003631073050200939,0.013761267066001892,0.08894599229097366,9.584680557250977,-0.8851093649864197,-2.974144458770752
1413393888450760500,0.03907966986298561,0.038513511419296265,0.09080726653337479,9.24044418334961,-0.10690997540950775,-2.946470022201538
1413393888455760500,0.052216578274965286,0.031151965260505676,0.10790225118398666,9.224172592163086,0.21069134771823883,-3.027970314025879
1413393888460760500,0.021014858037233353,0.04483865201473236,0.059929441660642624,9.179098129272461,0.16431118547916412,-3.077467441558838
1413393888465760500,0.007763254456222057,0.015620961785316467,0.08150129020214081,9.384960174560547,0.37601757049560547,-3.1345572471618652
1413393888470760500,0.000945049338042736,0.029446229338645935,0.0892864316701889,9.429195404052734,0.18836605548858643,-3.021381139755249
1413393888475760500,-0.025098543614149094,0.02873334288597107,0.09281186014413834,8.621909141540527,0.4914819300174713,-2.87453293800354
1413393888480760500,-0.051525454968214035,0.0075069814920425415,0.08907876908779144,9.354043960571289,-0.012718859128654003,-3.092729091644287
1413393888485760500,-0.061086174100637436,0.008413627743721008,0.05598732456564903,9.21551513671875,-0.5033159852027893,-3.0937483310699463
1413393888490760500,-0.007070613093674183,-0.0016848891973495483,0.08168493956327438,9.547893524169922,-0.6441978812217712,-2.867224931716919
1413393888495760500,0.020321685820817947,0.012828350067138672,0.08083132654428482,9.965757369995117,-0.575056791305542,-3.3134655952453613
1413393888500760500,0.026811692863702774,0.053604528307914734,0.07873097062110901,8.86974811553955,0.056051116436719894,-2.621736764907837
1413393888505760500,0.009910541586577892,0.023091554641723633,0.06959830969572067,9.636845588684082,-0.07355319708585739,-3.2021496295928955
1413393888510760500,0.006495255045592785,0.04233367741107941,0.07653877884149551,9.591673851013184,-0.03841337189078331,-3.1244606971740723
1413393888515760500,0.025111068040132523,0.02974255383014679,0.1111932173371315,9.547833442687988,0.21183359622955322,-3.029057502746582
1413393888520760500,0.0015222011134028435,0.09097504615783691,0.10377360135316849,9.245133399963379,0.4640338718891144,-3.180083751678467
1413393888525760500,-0.03360047563910484,0.05577525496482849,0.09992894530296326,8.71700382232666,0.25516900420188904,-2.5818941593170166
1413393888530760500,-0.05603555962443352,0.03081093728542328,0.06126495078206062,9.440950393676758,-0.25008440017700195,-3.3984758853912354
1413393888535760500,-0.026486437767744064,0.05719146132469177,0.07081398367881775,9.175848007202148,-0.49541932344436646,-2.750398635864258
1413393888540760500,0.010357367806136608,0.028700321912765503,0.08546926826238632,9.09424114227295,-0.62814861536026,-2.9792046546936035
1413393888545760500,0.024111244827508926,0.04402241110801697,0.07794748991727829,8.585789680480957,-0.20349454879760742,-2.5298807621002197
1413393888550760500,0.013161796145141125,-0.006219759583473206,0.05380032956600189,8.639606475830078,-0.16991375386714935,-2.5466530323028564
1413393888555760500,0.016721833497285843,-0.011163905262947083,0.055750519037246704,9.882075309753418,0.1517968773841858,-3.3292644023895264
1413393888560760500,0.013606506399810314,0.02619396150112152,0.07332849502563477,9.49328899383545,0.5998725891113281,-3.150447368621826
1413393888565760500,-0.004260447807610035,0.034068718552589417,0.11033053696155548,9.134260177612305,0.43684080243110657,-2.638335943222046
1413393888570760500,-0.03899809345602989,0.04316487908363342,0.08311048895120621,9.080244064331055,-0.020007576793432236,-2.6545684337615967
1413393888575760500,-0.036077048629522324,-0.0055335164070129395,0.07208014279603958,9.428767204284668,-0.3671257793903351,-2.9050230979919434
1413393888580760500,-0.008226794190704823,0.025170937180519104,0.08085887879133224,9.801101684570312,-0.4547964632511139,-3.136510133743286
1413393888585760500,0.005321192555129528,0.020092874765396118,0.10888055711984634,9.576873779296875,-0.05034501105546951,-2.77583909034729
1413393888590760500,0.005250322632491589,0.03126592934131622,0.09891372919082642,9.62255573272705,-0.15908026695251465,-3.0002012252807617
1413393888595760500,-0.00591027457267046,0.026908710598945618,0.06381464004516602,9.422694206237793,-0.510269820690155,-2.6188161373138428
1413393888600760500,0.010702419094741344,0.02682819962501526,0.04881872609257698,9.624429702758789,-0.3669740557670593,-3.14216685295105
1413393888605760500,0.025701288133859634,0.01271924376487732,0.06772717088460922,9.647144317626953,0.0045259869657456875,-2.622718095779419
1413393888610760500,0.0072334883734583855,0.026377350091934204,0.07899460941553116,9.601251602172852,-0.008391364477574825,-2.7528834342956543
1413393888615760500,-0.015668373554944992,0.05566991865634918,0.07204961776733398,9.055633544921875,0.0902429074048996,-2.5668017864227295
1413393888620760500,-0.020919423550367355,0.014403179287910461,0.0864158347249031,9.149882316589355,0.047026377171278,-3.1342203617095947
1413393888625760500,-0.010248643346130848,0.024425193667411804,0.11283708363771439,9.530774116516113,0.2724427580833435,-3.328183889389038
1413393888630760500,-0.02064884826540947,0.026504456996917725,0.11606649309396744,9.29377269744873,-0.0787925124168396,-3.096601963043213
1413393888635760500,-0.024213727563619614,0.039034873247146606,0.08266245573759079,9.086153984069824,-0.28792113065719604,-2.9307661056518555
1413393888640760500,0.012008237652480602,0.0010762810707092285,0.08186082541942596,8.973088264465332,-0.5377009510993958,-2.7441954612731934
1413393888645760500,0.031892020255327225,0.009554862976074219,0.08603743463754654,9.558347702026367,0.07139492779970169,-3.1392226219177246
1413393888650760500,0.0063519952818751335,0.03149053454399109,0.0760524719953537,9.272198677062988,0.24873046576976776,-2.9800679683685303
1413393888655760500,-0.019401412457227707,0.06283114850521088,0.052111487835645676,9.369797706604004,-0.012732001952826977,-3.2374629974365234
1413393888660760500,-0.0012154104188084602,0.0038105249404907227,0.07014606893062592,8.389143943786621,-0.0240777637809515,-2.374809741973877
1413393888665760500,0.009371059946715832,0.02534976601600647,0.09774726629257202,9.743642807006836,0.4019430875778198,-3.1444928646087646
1413393888670760500,-0.02189398929476738,0.07115565240383148,0.06929095834493637,9.362543106079102,-0.19056522846221924,-3.06638503074646
1413393888675760500,-0.02635830268263817,0.02487751841545105,0.08087442070245743,8.592339515686035,-0.6064797043800354,-2.516996383666992
1413393888680760500,0.020860720425844193,0.01676096022129059,0.09631817787885666,9.472888946533203,-0.3838079571723938,-3.056218385696411
1413393888685760500,0.003798919729888439,0.015557631850242615,0.09732577204704285,9.215998649597168,0.5652873516082764,-3.125082015991211
1413393888690760500,-0.034843992441892624,0.04138548672199249,0.05468353256583214,9.612401962280273,-0.19807124137878418,-3.1887733936309814
1413393888695760500,-0.013079461641609669,-0.015233591198921204,0.059220630675554276,8.574342727661133,-0.550955057144165,-2.4317169189453125
1413393888700760500,0.022113490849733353,0.024032533168792725,0.06502261012792587,9.837118148803711,-0.115838922560215,-2.974860191345215
1413393888705760500,0.003925818018615246,0.016540437936782837,0.07482792437076569,9.506128311157227,0.5175599455833435,-3.3860583305358887
1413393888710760500,-0.03133739158511162,0.02864512801170349,0.05495909973978996,9.07298469543457,-0.295754998922348,-2.5136282444000244
1413393888715760500,0.010007250122725964,-0.0007850676774978638,0.090554378926754,9.729415893554688,-0.8245106935501099,-2.889482259750366
1413393888720760500,0.0311117060482502,0.011695995926856995,0.11344663798809052,9.392401695251465,0.6523053646087646,-3.409381628036499
1413393888725760500,-0.013095525093376637,0.0629853904247284,0.08445321768522263,9.975146293640137,0.2666756808757782,-2.970637559890747
1413393888730760500,-0.03231702372431755,0.032233089208602905,0.09127156436443329,9.169174194335938,-0.6878228783607483,-3.0129804611206055
1413393888735760500,0.009497511200606823,0.046032264828681946,0.10357003659009933,8.835275650024414,0.09323859214782715,-2.4833474159240723
1413393888740760500,0.00041495542973279953,0.05680963397026062,0.10230205208063126,10.458789825439453,0.22969673573970795,-3.6525886058807373
1413393888745760500,-0.025575678795576096,0.04963602125644684,0.05707241967320442,8.39145278930664,-0.40727096796035767,-2.3745274543762207
1413393888750760500,0.0006444929167628288,0.015874475240707397,0.062463607639074326,8.719395637512207,-0.3160475194454193,-2.664433717727661
1413393888755760500,0.03337507322430611,0.041498810052871704,0.10834088176488876,10.438041687011719,0.3641863763332367,-3.6246540546417236
1413393888760760500,-0.013107267208397388,0.08077804744243622,0.060467466711997986,8.414630889892578,-0.05354514345526695,-2.545337438583374
1413393888765760500,-0.018572043627500534,-0.007398247718811035,0.03540502116084099,8.894609451293945,-0.5052580237388611,-2.59325909614563
1413393888770760500,0.013395237736403942,0.01372179388999939,0.09722330421209335,9.796276092529297,0.5391185283660889,-3.6207356452941895
1413393888775760500,-0.011532035656273365,0.07819639146327972,0.07067336142063141,8.48572826385498,-0.2724917531013489,-2.775710105895996
1413393888780760500,-0.04186349734663963,0.019128262996673584,0.02416810765862465,8.70541763305664,-0.5762951374053955,-2.5343034267425537
1413393888785760500,0.007139372639358044,0.012290269136428833,0.1048293337225914,9.869462013244629,0.4150345027446747,-3.462679386138916
1413393888790760500,0.009072947315871716,0.07167413830757141,0.1111879050731659,8.933917045593262,-0.2858460247516632,-2.7704880237579346
1413393888795760500,-0.010225159116089344,0.011390730738639832,0.06360817700624466,8.789722442626953,-0.7753214836120605,-2.367771863937378
1413393888800760500,0.014283197931945324,-0.03196224570274353,0.0954984575510025,8.9219331741333,0.5357259511947632,-2.9864230155944824
1413393888805760500,0.010385948233306408,0.011001929640769958,0.11741970479488373,9.803521156311035,0.5477259159088135,-3.2382683753967285
1413393888810760500,-0.02928249165415764,0.013725295662879944,0.06344379484653473,9.54713249206543,-0.8463232517242432,-2.7373530864715576
1413393888815760500,-0.02121017500758171,-0.026476025581359863,0.0492669977247715,8.690828323364258,-0.2215200811624527,-2.8009109497070312
1413393888820760500,0.006666618399322033,0.011776655912399292,0.093696229159832,10.314579010009766,0.4434262216091156,-3.4519155025482178
1413393888825760500,-0.012879249639809132,0.03550092875957489,0.10032349824905396,9.687726020812988,-0.3695855438709259,-2.6565568447113037
1413393888830760500,-0.01581452414393425,-0.008212178945541382,0.04759100452065468,8.498231887817383,-0.3823159635066986,-2.85752010345459
1413393888835760500,0.02769126370549202,-0.0019072741270065308,0.1166754886507988,10.251038551330566,0.32562416791915894,-3.2690038681030273
1413393888840760500,0.001994508318603039,0.05813269317150116,0.10914263874292374,9.786782264709473,-0.10327963531017303,-3.3383443355560303
1413393888845760500,-0.016801130026578903,0.023373112082481384,0.06131371855735779,7.979909420013428,-0.07690870761871338,-2.414649724960327
1413393888850760500,0.014106887392699718,0.011894404888153076,0.11141107976436615,9.822585105895996,0.40415167808532715,-3.3249728679656982
1413393888855760500,-0.0034931721165776253,0.06633193790912628,0.09276504069566727,9.749540328979492,0.05831985920667648,-3.194814682006836
1413393888860760500,-0.030193623155355453,0.038450077176094055,0.01460103876888752,7.726471424102783,-0.19855839014053345,-2.318645477294922
1413393888865760500,-0.005226892419159412,-0.01689469814300537,0.07874644547700882,9.945942878723145,0.48740532994270325,-3.328918218612671
1413393888870760500,-0.010301482863724232,0.044189468026161194,0.08645253628492355,9.649086952209473,0.1176673024892807,-3.1779098510742188
1413393888875760500,-0.02766076847910881,0.050738394260406494,0.03311751037836075,8.52859878540039,-0.44980642199516296,-2.359649181365967
1413393888880760500,-0.00033794064074754715,-0.013252541422843933,0.0845101848244667,9.409143447875977,0.13636136054992676,-3.123713970184326
1413393888885760500,0.02084912732243538,0.023133382201194763,0.1175452396273613,9.785333633422852,-0.2733767032623291,-3.163078784942627
1413393888890760500,-0.0039899470284581184,0.04993616044521332,0.06318250298500061,8.67056941986084,-0.6429329514503479,-2.2017807960510254
1413393888895760500,0.0011448441073298454,0.006262779235839844,0.0851941779255867,10.247064590454102,0.36461836099624634,-3.552807092666626
1413393888900760500,0.0023065386340022087,0.0380236953496933,0.11919612437486649,9.711387634277344,0.12591107189655304,-3.1708858013153076
1413393888905760500,-0.03926112875342369,0.060428470373153687,0.046391189098358154,9.447173118591309,-0.7580466866493225,-3.0788369178771973
1413393888910760500,-0.034448396414518356,0.03048458695411682,0.03462447226047516,9.389284133911133,0.027381066232919693,-3.09474515914917
1413393888915760500,0.003199535422027111,0.014259085059165955,0.10561686009168625,9.055962562561035,-0.07467354834079742,-2.899259567260742
1413393888920760500,-0.008878541179001331,0.04753965139389038,0.05919039994478226,9.894203186035156,-1.269871473312378,-3.0208590030670166
1413393888925760500,-0.004567784257233143,0.03038465976715088,0.03394075483083725,8.9454927444458,0.13757342100143433,-3.3046085834503174
1413393888930760500,0.03406985476613045,0.017895013093948364,0.13691338896751404,8.693129539489746,0.5085793137550354,-2.688903570175171
1413393888935760500,0.00818664114922285,0.027436301112174988,0.0992133840918541,10.046934127807617,-0.8390147089958191,-2.7734830379486084
1413393888940760500,-0.012921792455017567,0.037225186824798584,0.06007971614599228,9.438325881958008,0.2845306396484375,-2.9411890506744385
1413393888945760500,0.031506601721048355,0.00870850682258606,0.15243849158287048,9.454590797424316,0.06716760993003845,-2.8599495887756348
1413393888950760500,-0.015549463219940662,0.0230494886636734,0.08582960069179535,9.542031288146973,-0.3190823197364807,-3.178189277648926
1413393888955760500,-0.03268475458025932,0.049398213624954224,0.06459885835647583,9.002994537353516,0.8297814130783081,-2.826810121536255
1413393888960760500,0.00013105850666761398,0.0031871646642684937,0.15343694388866425,10.031777381896973,-0.21473516523838043,-3.2579898834228516
1413393888965760500,-0.03181232139468193,0.06753993034362793,0.0722801461815834,9.79690933227539,-0.7744153738021851,-3.3493120670318604
1413393888970760500,-0.020545732229948044,0.08761988580226898,0.06689521670341492,8.658352851867676,0.32390567660331726,-2.580723762512207
1413393888975760500,0.03266853466629982,0.045828625559806824,0.12974578142166138,9.537806510925293,-0.6786532402038574,-2.5823628902435303
1413393888980760500,0.011073666624724865,0.05593252182006836,0.05736221745610237,9.191513061523438,-0.786057710647583,-2.925266742706299
1413393888985760500,0.01845579221844673,0.050646305084228516,0.05667911842465401,8.947117805480957,0.5116547346115112,-2.614635467529297
1413393888990760500,0.03470449522137642,0.025303035974502563,0.09905692934989929,10.006977081298828,0.00948024820536375,-3.2619097232818604
1413393888995760500,-0.007798743434250355,0.08240127563476562,0.029896972700953484,8.910484313964844,0.551827073097229,-3.119464635848999
1413393889000760500,-0.019634705036878586,0.03944295644760132,0.09784126281738281,8.420494079589844,0.7093461155891418,-2.4781112670898438
1413393889005760500,-0.03757689520716667,0.03620585799217224,0.0694674625992775,9.957175254821777,0.025860879570245743,-3.5778605937957764
1413393889010760500,-0.05576334521174431,0.07613475620746613,0.04801986739039421,7.986338138580322,0.1304955780506134,-2.6859235763549805
1413393889015760500,-0.02230062708258629,-0.011787116527557373,0.09808201342821121,8.731767654418945,-0.35759782791137695,-2.440232992172241
1413393889020760500,-0.020115327090024948,0.0246104896068573,0.07404802739620209,9.497071266174316,-0.69969242811203,-3.334818124771118
1413393889025760500,-0.0016999216750264168,0.009087085723876953,0.08321871608495712,8.209314346313477,-0.21957406401634216,-2.373086452484131
1413393889030760500,0.030497808009386063,-0.038018614053726196,0.10122502595186234,10.103014945983887,-0.6671919822692871,-2.964625358581543
1413393889035760500,0.022989336401224136,0.051697343587875366,0.04851974919438362,9.690601348876953,-0.45534610748291016,-2.905576467514038
1413393889040760500,0.035995516926050186,-0.01072201132774353,0.07845240086317062,8.972344398498535,0.3309706747531891,-2.2560791969299316
1413393889045760500,0.0070979176089167595,-0.011321067810058594,0.05869416892528534,11.007822036743164,0.19327212870121002,-3.7674107551574707
1413393889050760500,-0.03429776057600975,0.11683538556098938,0.023814471438527107,8.619417190551758,0.2216217964887619,-2.7182204723358154
1413393889055760500,-0.0267036072909832,0.010436058044433594,0.07119575887918472,9.435494422912598,-0.06847130507230759,-2.7936596870422363
1413393889060760500,-0.03551773354411125,0.08149923384189606,0.06149371340870857,10.130074501037598,-0.03742649406194687,-3.30635929107666
1413393889065760500,-0.02564413473010063,0.04218968749046326,0.10405970364809036,8.08430290222168,0.0018556573195382953,-1.9457124471664429
1413393889070760500,-0.007746529765427113,-0.03170827031135559,0.11706618219614029,9.842696189880371,-0.690930962562561,-3.0329439640045166
1413393889075760500,0.005239623598754406,0.052028194069862366,0.10404612869024277,9.14806842803955,-0.5044764876365662,-3.214840888977051
1413393889080760500,0.03577791526913643,-0.0031708478927612305,0.1313267946243286,8.757831573486328,-0.17586921155452728,-2.8369088172912598
1413393889085760500,0.028499681502580643,-0.007614493370056152,0.10641703754663467,10.312536239624023,-0.0051973662339150906,-3.093214750289917
1413393889090760500,0.024358395487070084,0.04650840163230896,0.09978272765874863,8.729759216308594,0.07650193572044373,-2.759072780609131
1413393889095760500,0.02267252281308174,-0.010872691869735718,0.09856704622507095,9.942407608032227,0.09293542802333832,-3.0956990718841553
1413393889100760500,-0.011052322573959827,0.014704912900924683,0.06295529752969742,10.023700714111328,0.4507721960544586,-3.1667275428771973
1413393889105760500,-0.023117702454328537,0.02449437975883484,0.06995672732591629,9.815178871154785,0.5690243244171143,-2.908425807952881
1413393889110760500,-0.04506553336977959,0.03522074222564697,0.05320722609758377,10.304357528686523,-0.01568358764052391,-2.8747544288635254
1413393889115760500,-0.019055437296628952,0.0815744549036026,0.09958044439554214,9.224671363830566,-0.17930883169174194,-3.4934215545654297
1413393889120760500,-0.002608087845146656,0.10777334868907928,0.11385487765073776,9.369683265686035,-0.7264088988304138,-2.791792392730713
1413393889125760500,0.005188110284507275,0.0947105884552002,0.10691463202238083,8.52808666229248,-0.49855461716651917,-2.8453903198242188
1413393889130760500,0.03819817677140236,0.08678652346134186,0.12224096059799194,8.482131958007812,0.2930854558944702,-3.0328524112701416
1413393889135760500,0.017067302018404007,0.012208729982376099,0.10556649416685104,9.377996444702148,0.0962868481874466,-2.3213579654693604
1413393889140760500,-0.004577827639877796,0.012454107403755188,0.093572698533535,8.424613952636719,0.36992716789245605,-3.5185601711273193
1413393889145760500,-0.026025723665952682,-0.00404629111289978,0.07440878450870514,8.743683815002441,-0.01572798192501068,-2.4677975177764893
1413393889150760500,-0.03606749698519707,-0.034571632742881775,0.043396640568971634,9.211997032165527,-0.10209941118955612,-3.343595027923584
1413393889155760500,-0.0006305994465947151,-0.024996444582939148,0.07265078276395798,9.432607650756836,-0.3154376745223999,-3.1144185066223145
1413393889160760500,-0.011155975051224232,-0.018107816576957703,0.03621728718280792,10.059062004089355,-0.02582167088985443,-2.842160940170288
1413393889165760500,0.013125198893249035,0.04059557616710663,0.07859796285629272,9.52231216430664,0.9398455619812012,-3.188087224960327
1413393889170760500,-0.002178502269089222,0.06314536929130554,0.06493641436100006,9.481985092163086,-0.01157368067651987,-2.4632558822631836
1413393889175760500,-0.006730151362717152,0.04491274058818817,0.09779427200555801,8.528900146484375,0.7966877818107605,-3.020709991455078
1413393889180760500,-0.004288089461624622,0.09996721148490906,0.10832063853740692,10.545782089233398,-0.48840293288230896,-3.5983753204345703
1413393889185760500,-0.018350716680288315,0.05288645625114441,0.07829561084508896,8.19029712677002,-0.557357668876648,-1.4303090572357178
1413393889190760500,0.02987741306424141,-0.0031406283378601074,0.12590011954307556,9.553604125976562,-0.5770694017410278,-3.874049663543701
1413393889195760500,0.01806258037686348,0.04909977316856384,0.058551814407110214,9.459491729736328,-0.9541394114494324,-2.3132898807525635
1413393889200760500,0.014284866861999035,-0.08543850481510162,0.09367548674345016,7.754981994628906,0.6528711318969727,-2.9689090251922607
1413393889205760500,-0.009547767229378223,0.01905776560306549,0.053784456104040146,11.207725524902344,-0.4091755151748657,-2.9434432983398438
1413393889210760500,-0.04289736971259117,-0.012754157185554504,0.048908401280641556,8.130620002746582,0.7230431437492371,-2.1984825134277344
1413393889215760500,-0.009204131551086903,0.035624369978904724,0.08794127404689789,12.224122047424316,-0.882132351398468,-4.110570430755615
1413393889220760500,-0.021179568022489548,0.05290652811527252,0.05163608491420746,8.864025115966797,-0.0938439667224884,-1.608607292175293
1413393889225760500,0.023735422641038895,0.025456786155700684,0.10699779540300369,10.803746223449707,-0.09283430129289627,-4.865964412689209
1413393889230760500,0.0013970760628581047,0.15880507230758667,0.020338019356131554,9.43416690826416,-0.4708596169948578,-2.282691717147827
1413393889235760500,0.012645053677260876,0.020047828555107117,0.1099778339266777,8.28659439086914,0.8382246494293213,-3.4469187259674072
1413393889240760500,-0.0076448144391179085,0.15088987350463867,0.047423046082258224,9.639171600341797,-1.0585730075836182,-2.8944029808044434
1413393889245760500,-0.0004285993054509163,-0.008946150541305542,0.10055749118328094,6.409849166870117,0.8564823865890503,-1.6357979774475098
1413393889250760500,0.006278651766479015,0.035152286291122437,0.0999329686164856,10.550930976867676,-0.7879257798194885,-3.3498828411102295
1413393889255760500,0.006975042633712292,-0.029409870505332947,0.10535328090190887,7.189318656921387,0.5567147731781006,-1.29242742061615
1413393889260760500,0.03231476619839668,-0.07934355735778809,0.14521396160125732,10.159363746643066,-0.798561692237854,-4.508699893951416
1413393889265760500,0.005136924795806408,0.024540603160858154,0.07702222466468811,7.750573635101318,0.5826858282089233,-1.4568716287612915
1413393889270760500,0.02023192122578621,-0.052144572138786316,0.11720119416713715,10.555407524108887,0.09343953430652618,-4.571829319000244
1413393889275760500,-0.05205189809203148,0.06575348973274231,-6.260862573981285e-05,9.027958869934082,0.03174010291695595,-2.0702173709869385
1413393889280760500,-0.009748649783432484,-0.02095896005630493,0.11159796267747879,9.267874717712402,0.47837913036346436,-3.4407880306243896
1413393889285760500,-0.02800939604640007,0.08267673850059509,0.021873660385608673,9.549260139465332,-1.0721485614776611,-2.5622406005859375
1413393889290760500,0.02339877560734749,-0.02393437922000885,0.1001003086566925,7.649631977081299,0.13109108805656433,-2.3559327125549316
1413393889295760500,0.03667217865586281,0.025224894285202026,0.03723851963877678,9.69340705871582,-0.8268902897834778,-2.834084987640381
1413393889300760500,0.04556940868496895,-0.054374441504478455,0.08490901440382004,8.595173835754395,0.7993248105049133,-2.59814715385437
1413393889305760500,0.010463136248290539,-0.02975529432296753,0.043836768716573715,9.658656120300293,0.2779986560344696,-3.358245849609375
1413393889310760500,-0.010295134969055653,-0.051581427454948425,0.10230185091495514,8.327252388000488,0.6056603789329529,-2.32964825630188
1413393889315760500,-0.03116176649928093,-0.05791859328746796,0.08744307607412338,9.938261985778809,-0.45780718326568604,-3.25120210647583
1413393889320760500,-0.03691069409251213,-0.04107832908630371,0.07801063358783722,10.310500144958496,-0.42665109038352966,-3.5480573177337646
1413393889325760500,-0.011601579375565052,-0.03573016822338104,0.08639327436685562,8.492863655090332,0.04821142181754112,-2.576465606689453
1413393889330760500,8.839182555675507e-06,-0.016002580523490906,0.07344111800193787,9.849466323852539,-0.876888632774353,-3.804992198944092
1413393889335760500,0.002090948633849621,-0.011804118752479553,0.07532771676778793,7.976863384246826,0.7906712889671326,-1.9700323343276978
1413393889340760500,0.0008461950346827507,-0.09547404944896698,0.1141430214047432,10.081422805786133,-0.04973197355866432,-4.033360004425049
1413393889345760500,-0.016338061541318893,0.0013756752014160156,0.09582596272230148,9.223485946655273,0.4473658502101898,-2.7790727615356445
1413393889350760500,-0.013097238726913929,-0.06254434585571289,0.118416927754879,9.125341415405273,-0.5064448118209839,-3.537776470184326
1413393889355760500,-0.01720210537314415,-0.04682628810405731,0.08526574075222015,9.81827163696289,-0.06374689936637878,-2.6364946365356445
1413393889360760500,0.004127758555114269,-0.04780752956867218,0.09532774239778519,10.177972793579102,-0.19913609325885773,-3.6721465587615967
1413393889365760500,-0.01800079271197319,0.010047495365142822,0.04359564557671547,9.680290222167969,-0.47542908787727356,-1.9992341995239258
1413393889370760500,0.011731195263564587,-0.04039695858955383,0.098968006670475,8.359219551086426,0.1662493199110031,-3.460710048675537
1413393889375760500,-0.01498084980994463,-0.025756224989891052,0.07448775321245193,8.342607498168945,-0.24368354678153992,-2.436333179473877
1413393889380760500,0.0005616424605250359,-0.06838840246200562,0.14631736278533936,9.5056734085083,0.8396443724632263,-3.920491933822632
1413393889385760500,-0.03144174441695213,-0.020119041204452515,0.11927401274442673,9.624336242675781,-0.6437827348709106,-3.1482701301574707
1413393889390760500,-0.0009341062977910042,-0.03361418843269348,0.15182234346866608,10.01034927368164,0.23003728687763214,-3.2454826831817627
1413393889395760500,-0.004338529892265797,0.005371719598770142,0.09741344302892685,8.728599548339844,-1.2634761333465576,-2.970032215118408
1413393889400760500,0.015738118439912796,-0.0665857344865799,0.09063989669084549,8.975170135498047,0.3693719506263733,-3.489943027496338
1413393889405760500,0.00514750462025404,-0.03449256718158722,0.05554938688874245,9.14381217956543,-0.25858020782470703,-2.673415184020996
1413393889410760500,0.001492905430495739,-0.08821530640125275,0.09224733710289001,9.952985763549805,0.32592469453811646,-3.5936758518218994
1413393889415760500,-0.019869979470968246,0.016719922423362732,0.09660475701093674,9.328265190124512,0.073014996945858,-2.992149829864502
1413393889420760500,-0.015446466393768787,-0.028501585125923157,0.1437223255634308,8.973651885986328,-0.03539242222905159,-2.9172027111053467
1413393889425760500,-0.005307150073349476,0.029004022479057312,0.1475929617881775,9.19022274017334,-0.35377925634384155,-2.876239776611328
1413393889430760500,0.010967987589538097,0.01007719337940216,0.14276911318302155,9.847820281982422,-0.38724422454833984,-3.65989351272583
1413393889435760500,-0.016000699251890182,0.04165758192539215,0.057986002415418625,8.589459419250488,0.23176103830337524,-3.2981135845184326
1413393889440760500,-0.04898756369948387,-0.031295597553253174,0.026845747604966164,8.522860527038574,0.0026004172395914793,-2.991717576980591
1413393889445760500,-0.0585462860763073,-0.02076992392539978,0.021093368530273438,8.808988571166992,0.4963085651397705,-2.6816253662109375
1413393889450760500,-0.05998785421252251,-0.07014694809913635,0.02818259410560131,8.341261863708496,-1.1809167861938477,-2.242310047149658
1413393889455760500,-0.05332532152533531,-0.12685991823673248,0.051489539444446564,8.843389511108398,0.2708498537540436,-2.815535545349121
1413393889460760500,-0.01357134897261858,-0.15765449404716492,0.09199628978967667,8.757111549377441,-0.7516242265701294,-1.5200566053390503
1413393889465760500,-0.021755170077085495,-0.15493856370449066,0.08998355269432068,10.525565147399902,-0.09973253309726715,-4.471861362457275
1413393889470760500,0.0031116781756281853,-0.09864212572574615,0.12584373354911804,9.317776679992676,0.1012282595038414,-2.456355333328247
1413393889475760500,-0.03091762587428093,-0.11981344223022461,0.11717669665813446,9.745755195617676,0.34522947669029236,-4.576993465423584
1413393889480760500,-0.010654372163116932,-0.021142736077308655,0.15686237812042236,9.154777526855469,0.3748016953468323,-2.484375
1413393889485760500,-0.040116142481565475,-0.081181600689888,0.1330321729183197,10.329527854919434,-0.5040971040725708,-4.426060199737549
1413393889490760500,-0.0002500982955098152,0.03554990887641907,0.11003395169973373,10.341802597045898,-0.39858224987983704,-2.6658496856689453
1413393889495760500,0.014615344814956188,-0.060266390442848206,0.11363989859819412,8.287755966186523,-0.688308835029602,-3.913917303085327
1413393889500760500,0.02439117804169655,0.007271364331245422,0.09341811388731003,9.62710952758789,0.22622936964035034,-2.6132588386535645
1413393889505760500,-0.0018958570435643196,-0.12781649827957153,0.10645385831594467,7.624102592468262,0.5709773302078247,-3.0361623764038086
1413393889510760500,-0.018307071179151535,-0.09805017709732056,0.12894132733345032,11.231415748596191,0.8046035766601562,-3.5966835021972656
1413393889515760500,-0.05751490220427513,-0.18180523812770844,0.08914101123809814,7.082817554473877,0.059051916003227234,-1.974684238433838
1413393889520760500,-0.027646761387586594,-0.2279769778251648,0.13651713728904724,10.63094711303711,-0.6427052617073059,-3.7920100688934326
1413393889525760500,-0.024809133261442184,-0.25301891565322876,0.04473032057285309,6.909623146057129,-0.607474148273468,-2.026979446411133
1413393889530760500,0.005443978123366833,-0.35045933723449707,0.08457134664058685,10.420088768005371,-0.2865573465824127,-4.206724166870117
1413393889535760500,-0.015193712897598743,-0.279432475566864,0.01884445920586586,8.23895263671875,0.9198980927467346,-1.9882251024246216
1413393889540760500,-0.03352070972323418,-0.3372275233268738,0.0628858208656311,11.867851257324219,0.6502881050109863,-4.84675931930542
1413393889545760500,-0.08821733295917511,-0.19584353268146515,-0.013647744432091713,8.427604675292969,0.4370012879371643,-1.2480132579803467
1413393889550760500,-0.07106800377368927,-0.2851526737213135,0.11967383325099945,12.072151184082031,-0.36795392632484436,-3.717764377593994
1413393889555760500,-0.04620320722460747,-0.08353780210018158,0.05796234309673309,9.630252838134766,-1.0480040311813354,-2.3050131797790527
1413393889560760500,0.004065561108291149,-0.20242449641227722,0.1694543957710266,10.738104820251465,-0.2164139449596405,-3.8077738285064697
1413393889565760500,0.004007208161056042,-0.08475184440612793,0.0829124003648758,8.74070930480957,-0.002997403731569648,-3.0440986156463623
1413393889570760500,-0.01448745746165514,-0.20494244992733002,0.14750397205352783,9.978446960449219,0.8086956739425659,-3.8296053409576416
1413393889575760500,-0.06931011378765106,-0.1711767017841339,0.05889332294464111,8.104207992553711,0.6696416735649109,-3.6848738193511963
1413393889580760500,-0.095168337225914,-0.27994608879089355,0.09524785727262497,10.257330894470215,0.39192503690719604,-4.400311470031738
1413393889585760500,-0.09876345098018646,-0.20878908038139343,0.024655800312757492,7.215226650238037,-0.30757972598075867,-3.0480897426605225
1413393889590760500,-0.05928174778819084,-0.34983009099960327,0.04547984525561333,9.996521949768066,-0.8676823973655701,-4.22199821472168
1413393889595760500,-0.041821252554655075,-0.2926342487335205,0.005682212766259909,9.418158531188965,0.0664425641298294,-3.203301429748535
1413393889600760500,-0.03940938040614128,-0.3284251391887665,0.005594576243311167,10.579140663146973,0.4733293652534485,-4.907421588897705
1413393889605760500,-0.0693548172712326,-0.22409486770629883,-0.018611496314406395,9.880047798156738,1.3530175685882568,-2.6414947509765625
1413393889610760500,-0.12127737700939178,-0.29960155487060547,0.01319176983088255,10.67451000213623,0.38821613788604736,-4.552857398986816
1413393889615760500,-0.11375120282173157,-0.16370178759098053,0.040748871862888336,9.702397346496582,0.04437021166086197,-2.555332660675049
1413393889620760500,-0.09438730776309967,-0.2536989450454712,0.04614964500069618,9.915148735046387,-1.208162784576416,-3.9808595180511475
1413393889625760500,-0.031651418656110764,-0.21054644882678986,0.06517992913722992,9.444406509399414,-0.37416595220565796,-2.8441388607025146
1413393889630760500,-0.019273322075605392,-0.2479790449142456,0.052409425377845764,10.56339168548584,-0.4803834855556488,-4.2829718589782715
1413393889635760500,-0.02460021898150444,-0.2251298427581787,0.042936090379953384,8.511994361877441,0.9999748468399048,-2.361649513244629
1413393889640760500,-0.09070377051830292,-0.3051266670227051,0.0022689125034958124,11.411276817321777,0.7302563786506653,-4.338472366333008
1413393889645760500,-0.10811696946620941,-0.2560320198535919,0.026015179231762886,8.43030071258545,1.2054365873336792,-2.0850813388824463
1413393889650760500,-0.16896356642246246,-0.24776560068130493,-0.07329420000314713,12.446239471435547,-0.5534701347351074,-4.519286155700684
1413393889655760500,-0.1355474293231964,-0.3018430769443512,-0.08210959285497665,8.960780143737793,-0.3580223321914673,-3.3039612770080566
1413393889660760500,-0.13181613385677338,-0.17873775959014893,-0.16131140291690826,11.841894149780273,-0.8376139402389526,-3.559560775756836
1413393889665760500,-0.07721422612667084,-0.207462877035141,-0.11076251417398453,10.575428009033203,-0.37987416982650757,-3.5811614990234375
1413393889670760500,-0.09569813311100006,-0.1288163959980011,-0.1581181138753891,9.749122619628906,0.5484692454338074,-4.646377086639404
1413393889675760500,-0.08684396743774414,-0.1608484387397766,-0.08000735193490982,10.384547233581543,0.6319611668586731,-2.7196946144104004
1413393889680760500,-0.12221015989780426,-0.10762807726860046,-0.07052988559007645,11.273698806762695,0.8286195993423462,-5.4935760498046875
1413393889685760500,-0.14642930030822754,-0.11211317777633667,-0.08470682054758072,9.792197227478027,0.0866038054227829,-2.7056591510772705
1413393889690760500,-0.13735835254192352,-0.11090545356273651,-0.07169095426797867,10.868593215942383,-0.3268872797489166,-3.7952992916107178
1413393889695760500,-0.12470264732837677,-0.14324919879436493,-0.08242615312337875,10.13959789276123,-0.3594253957271576,-4.862337589263916
1413393889700760500,-0.08087491989135742,-0.07621124386787415,-0.010413827374577522,8.466096878051758,-0.35526058077812195,-2.289193868637085
1413393889705760500,-0.06561718881130219,-0.1850917935371399,0.010053429752588272,11.196040153503418,-0.5693368911743164,-4.145871162414551
1413393889710760500,-0.013267678208649158,-0.17497514188289642,0.08197317272424698,8.108346939086914,0.3586272597312927,-2.869511604309082
1413393889715760500,-0.03922645375132561,-0.26518067717552185,0.05380086228251457,10.948943138122559,0.08232829719781876,-4.313624382019043
1413393889720760500,-0.048102181404829025,-0.25031331181526184,0.034230295568704605,10.551486015319824,1.0491167306900024,-2.8828606605529785
1413393889725760500,-0.12314839661121368,-0.28926146030426025,-0.05079584941267967,12.910563468933105,0.340550035238266,-5.835813045501709
1413393889730760500,-0.1575508713722229,-0.2425762563943863,-0.1379326581954956,8.555900573730469,0.8889610767364502,-3.4765002727508545
1413393889735760500,-0.18471390008926392,-0.230210542678833,-0.20015352964401245,10.671799659729004,-0.6209211945533752,-3.8048741817474365
1413393889740760500,-0.1522226184606552,-0.2118719220161438,-0.21046870946884155,13.133867263793945,-0.2196870893239975,-3.6524641513824463
1413393889745760500,-0.12797093391418457,-0.08435855805873871,-0.22182567417621613,11.995786666870117,-0.9517620205879211,-3.1480376720428467
1413393889750760500,-0.11494369804859161,-0.12864042818546295,-0.18301144242286682,11.841910362243652,0.3689119517803192,-4.954636096954346
1413393889755760500,-0.11403186619281769,-0.09769275784492493,-0.10413539409637451,9.305888175964355,1.057357907295227,-3.8855979442596436
1413393889760760500,-0.14089477062225342,-0.04497690498828888,-0.10104981809854507,10.648882865905762,0.12470923364162445,-2.6870903968811035
1413393889765760500,-0.12157587707042694,-0.11545558273792267,0.009993767365813255,11.693069458007812,0.19424879550933838,-4.801626205444336
1413393889770760500,-0.11334806680679321,-0.1010398119688034,-0.008568553254008293,9.347955703735352,-0.7038757801055908,-4.273055076599121
1413393889775760500,-0.0565684549510479,-0.09484289586544037,0.023562932386994362,10.608813285827637,-0.6999364495277405,-2.7296133041381836
1413393889780760500,-0.049038808792829514,-0.12541644275188446,-0.04888341948390007,10.867107391357422,-0.46178245544433594,-3.1321804523468018
1413393889785760500,-0.02474118396639824,-0.10088656842708588,-0.0548752062022686,12.98176097869873,0.43610188364982605,-4.457735061645508
1413393889790760500,-0.07125212252140045,-0.06870695948600769,-0.11051566898822784,9.701608657836914,0.5984656810760498,-3.2460989952087402
1413393889795760500,-0.10140116512775421,-0.10795490443706512,-0.097747303545475,12.197257041931152,0.5110577344894409,-4.37114953994751
1413393889800760500,-0.1433887481689453,-0.09959964454174042,-0.11174201220273972,9.822235107421875,0.9394921660423279,-3.936490535736084
1413393889805760500,-0.1523028314113617,-0.07170189917087555,-0.12375030666589737,9.645153999328613,-0.45141729712486267,-3.4877090454101562
1413393889810760500,-0.13977865874767303,-0.19633044302463531,-0.10174130648374557,9.749500274658203,-0.2129407376050949,-3.4982993602752686
1413393889815760500,-0.12094993889331818,-0.17234501242637634,-0.1889640986919403,11.063716888427734,-0.9395703077316284,-3.653093099594116
1413393889820760500,-0.06284146010875702,-0.1660161316394806,-0.1376127451658249,12.176231384277344,0.015537629835307598,-4.503832817077637
1413393889825760500,-0.09381966292858124,-0.1690620630979538,-0.20302899181842804,9.854840278625488,0.36383211612701416,-4.090845584869385
1413393889830760500,-0.09669031202793121,-0.08980730175971985,-0.16271765530109406,12.334956169128418,0.9121232628822327,-3.465658187866211
1413393889835760500,-0.14965644478797913,-0.04754011332988739,-0.17286154627799988,11.47348403930664,0.6331215500831604,-3.6010234355926514
1413393889840760500,-0.1586138755083084,-0.030383914709091187,-0.156137615442276,12.55733585357666,-0.20899730920791626,-4.96491003036499
1413393889845760500,-0.15281632542610168,-0.022806242108345032,-0.13937461376190186,8.240175247192383,-0.1277565360069275,-3.229511260986328
1413393889850760500,-0.08714307844638824,0.04716828465461731,-0.13615506887435913,12.110645294189453,-1.4064022302627563,-2.830765962600708
1413393889855760500,-0.038382064551115036,-0.0967174768447876,-0.1020660325884819,12.762803077697754,-0.38789451122283936,-4.715556621551514
1413393889860760500,-0.030643951147794724,0.009900644421577454,-0.17576928436756134,8.951858520507812,0.5231231451034546,-4.268653392791748
1413393889865760500,-0.07197840511798859,-0.024115338921546936,-0.14284753799438477,10.832926750183105,1.5874440670013428,-4.020857810974121
1413393889870760500,-0.16902795433998108,-0.006900236010551453,-0.2088046371936798,10.734576225280762,1.107965350151062,-2.940385580062866
1413393889875760500,-0.20704087615013123,-0.022818908095359802,-0.203965425491333,12.732304573059082,0.4254380762577057,-4.551759243011475
1413393889880760500,-0.206263929605484,0.008820056915283203,-0.23178017139434814,9.115817070007324,-0.7230955362319946,-4.151000022888184
1413393889885760500,-0.1313503533601761,-0.0030813217163085938,-0.21632657945156097,10.88174819946289,-1.581853985786438,-3.8829236030578613
1413393889890760500,-0.07977136969566345,0.01858958601951599,-0.21743237972259521,11.036527633666992,-0.5928366780281067,-2.6734142303466797
1413393889895760500,-0.05870116874575615,0.05820015072822571,-0.2236148864030838,12.743762969970703,0.021159254014492035,-3.8024582862854004
1413393889900760500,-0.10427670180797577,0.06483560800552368,-0.2061540186405182,10.49661922454834,1.7909021377563477,-4.431949615478516
1413393889905760500,-0.16625313460826874,0.16428664326667786,-0.21188446879386902,10.9893798828125,1.0520861148834229,-3.3865933418273926
1413393889910760500,-0.19288045167922974,0.15750712156295776,-0.16537174582481384,11.81567096710205,-0.10166481882333755,-4.153582572937012
1413393889915760500,-0.18198882043361664,0.20963379740715027,-0.19820921123027802,9.365934371948242,-1.1245551109313965,-2.859966278076172
1413393889920760500,-0.07092757523059845,0.179500013589859,-0.16782891750335693,11.492724418640137,-1.8258553743362427,-3.0183472633361816
1413393889925760500,-0.041125427931547165,0.10990689694881439,-0.18792350590229034,10.209156036376953,-0.35155636072158813,-3.7163543701171875
1413393889930760500,-0.031524281948804855,0.16655012965202332,-0.18080288171768188,10.335104942321777,0.7223420143127441,-4.378535270690918
1413393889935760500,-0.10428276658058167,0.10951186716556549,-0.1860954612493515,10.351855278015137,1.8107044696807861,-3.2856781482696533
1413393889940760500,-0.16612441837787628,0.22535139322280884,-0.17303238809108734,12.201353073120117,0.9310933351516724,-3.499277353286743
1413393889945760500,-0.20427672564983368,0.19170531630516052,-0.19902309775352478,11.465277671813965,0.23379497230052948,-4.189918041229248
1413393889950760500,-0.1644895225763321,0.27136024832725525,-0.22237499058246613,9.135332107543945,-1.6544830799102783,-2.8651914596557617
1413393889955760500,-0.10372836887836456,0.23457783460617065,-0.2258053570985794,11.57169246673584,-1.0501220226287842,-3.4695558547973633
1413393889960760500,-0.05274967476725578,0.25938358902931213,-0.2273000329732895,11.137674331665039,-0.5815657377243042,-3.9688050746917725
1413393889965760500,-0.07358454167842865,0.24536508321762085,-0.222817525267601,8.995535850524902,1.313050627708435,-3.8213396072387695
1413393889970760500,-0.12700296938419342,0.20614871382713318,-0.22363698482513428,8.9142427444458,1.551809549331665,-2.629732370376587
1413393889975760500,-0.17366503179073334,0.2687477171421051,-0.1774093359708786,11.764156341552734,0.20493653416633606,-3.7575559616088867
1413393889980760500,-0.20616936683654785,0.1437574326992035,-0.1971741020679474,9.786252975463867,-0.08671150356531143,-4.22912073135376
1413393889985760500,-0.13419584929943085,0.28504112362861633,-0.15257962048053741,9.852474212646484,-1.57487154006958,-2.7022604942321777
1413393889990760500,-0.09004974365234375,0.17773005366325378,-0.1432476043701172,11.87096118927002,-1.0330103635787964,-4.285964012145996
1413393889995760500,-0.014880162663757801,0.33139199018478394,-0.10205142199993134,9.264020919799805,-0.6020010709762573,-2.8290348052978516
1413393890000760500,-0.035454969853162766,0.23811015486717224,-0.09304459393024445,12.25345230102539,0.6838253736495972,-3.8435921669006348
1413393890005760500,-0.045969586819410324,0.33508870005607605,-0.0825788751244545,9.107443809509277,0.7275617718696594,-2.919588565826416
1413393890010760500,-0.10121113061904907,0.28730955719947815,-0.06840403378009796,10.330146789550781,1.0672369003295898,-4.583827018737793
1413393890015760500,-0.11116586625576019,0.285981148481369,-0.04586999490857124,8.776612281799316,-0.286838173866272,-2.9401705265045166
1413393890020760500,-0.09838327765464783,0.28920602798461914,0.003898619208484888,9.993364334106445,-0.5510390400886536,-3.7346229553222656
1413393890025760500,-0.04997418448328972,0.18131467700004578,0.06867329031229019,8.696389198303223,-0.40207475423812866,-2.0626206398010254
1413393890030760500,0.009755837731063366,0.31484612822532654,0.09304356575012207,10.234315872192383,-0.6435487866401672,-3.6565606594085693
1413393890035760500,0.030340526252985,0.16692709922790527,0.13242842257022858,9.911300659179688,0.3837791383266449,-3.3739285469055176
1413393890040760500,0.024972666054964066,0.3215579092502594,0.12970781326293945,9.808836936950684,0.11188942939043045,-3.1645681858062744
1413393890045760500,-0.004350167699158192,0.1584143340587616,0.17324332892894745,9.462385177612305,1.2473458051681519,-3.5894410610198975
1413393890050760500,-0.01708267256617546,0.27611324191093445,0.18094338476657867,9.706037521362305,-0.09310445934534073,-2.4535865783691406
1413393890055760500,-0.03938001021742821,0.14505741000175476,0.18446241319179535,9.597787857055664,0.0798702985048294,-4.146866798400879
1413393890060760500,-0.002656412310898304,0.24732640385627747,0.1786159873008728,9.117712020874023,-0.7098509669303894,-2.6006264686584473
1413393890065760500,0.027241293340921402,0.14657118916511536,0.1993928849697113,10.470792770385742,-0.8385107517242432,-3.4633729457855225
1413393890070760500,0.061464566737413406,0.2255364954471588,0.1836531013250351,8.763973236083984,-0.055089280009269714,-3.354301691055298
1413393890075760500,0.0775492936372757,0.17844906449317932,0.2518775463104248,10.140138626098633,0.37700793147087097,-3.508899211883545
1413393890080760500,0.060746584087610245,0.1996789276599884,0.2868898808956146,8.91944408416748,0.6052722334861755,-3.310352325439453
1413393890085760500,0.02825869992375374,0.2407681941986084,0.3229563534259796,9.04250717163086,0.23766538500785828,-3.325023889541626
1413393890090760500,0.028142575174570084,0.17184466123580933,0.3308185338973999,8.981870651245117,0.019903384149074554,-2.6166481971740723
1413393890095760500,0.04377460852265358,0.2351648509502411,0.30902448296546936,9.889089584350586,-0.7678033709526062,-3.3289060592651367
1413393890100760500,0.06371401250362396,0.1879568099975586,0.285636305809021,8.71165657043457,-0.24596835672855377,-2.74369478225708
1413393890105760500,0.06518568098545074,0.24854007363319397,0.25862184166908264,9.271026611328125,-0.06846137344837189,-2.755786180496216
1413393890110760500,0.05505317822098732,0.1923481822013855,0.2580229341983795,8.000518798828125,0.38728153705596924,-3.3558337688446045
1413393890115760500,0.03763848915696144,0.2726568877696991,0.25879552960395813,8.943867683410645,0.4914255738258362,-2.8660244941711426
1413393890120760500,0.03315499797463417,0.19496086239814758,0.2983771860599518,7.036827087402344,0.10427214205265045,-3.4051849842071533
1413393890125760500,0.04180096462368965,0.25677594542503357,0.3150992691516876,8.683252334594727,-0.4237736761569977,-2.390035390853882
1413393890130760500,0.05395864322781563,0.1871034801006317,0.3337559401988983,6.389429569244385,-0.15973493456840515,-2.8423407077789307
1413393890135760500,0.07173588871955872,0.23665443062782288,0.2892894744873047,8.619479179382324,-0.39938193559646606,-2.612398862838745
1413393890140760500,0.07020285725593567,0.14905193448066711,0.2996639907360077,7.098268985748291,0.0615103542804718,-2.497243642807007
1413393890145760500,0.052234429866075516,0.21602264046669006,0.2778303921222687,9.633196830749512,0.3059622049331665,-3.3074846267700195
1413393890150760500,0.04133619740605354,0.18754449486732483,0.27772974967956543,6.358822822570801,0.7227386832237244,-2.0794479846954346
1413393890155760500,0.02458595111966133,0.21193575859069824,0.27693885564804077,8.247191429138184,-0.1017392948269844,-3.3417129516601562
1413393890160760500,0.02351352944970131,0.17622104287147522,0.2810409963130951,6.382968425750732,0.1934264898300171,-1.2543275356292725
1413393890165760500,0.0504126138985157,0.19072690606117249,0.2869659662246704,9.364858627319336,-1.0061827898025513,-3.403034210205078
1413393890170760500,0.06291551887989044,0.16488730907440186,0.2855308949947357,5.277692794799805,0.3067047894001007,-1.1111177206039429
1413393890175760500,0.0834367424249649,0.12328776717185974,0.31723475456237793,8.890670776367188,-0.9576301574707031,-3.6533362865448
1413393890180760500,0.06500664353370667,0.1631125509738922,0.29192107915878296,5.60425329208374,0.7981523275375366,-1.09675133228302
1413393890185760500,0.06335912644863129,0.06246867775917053,0.3040193021297455,9.7325439453125,-0.3066008687019348,-4.065502166748047
1413393890190760500,0.026653338223695755,0.13961094617843628,0.2872961461544037,5.2429704666137695,1.263096809387207,-0.9677640795707703
1413393890195760500,0.0432523675262928,0.09463132917881012,0.30848461389541626,10.024331092834473,-1.3892102241516113,-4.122960090637207
1413393890200760500,0.03481464460492134,0.19140923023223877,0.24120154976844788,5.450814723968506,0.7208666801452637,-0.8597180247306824
1413393890205760500,0.08077077567577362,0.07141098380088806,0.3162415027618408,8.91511058807373,-1.236477017402649,-3.4520554542541504
1413393890210760500,0.06621740758419037,0.22362476587295532,0.22921417653560638,6.693155765533447,0.7516260147094727,-1.6194883584976196
1413393890215760500,0.0959162712097168,0.08675649762153625,0.34710821509361267,7.925835609436035,-0.22158287465572357,-3.036058187484741
1413393890220760500,0.03667229786515236,0.21729201078414917,0.2411239892244339,7.788620948791504,1.0292561054229736,-2.1703946590423584
1413393890225760500,0.04476023092865944,0.09839636087417603,0.3171094059944153,6.061987400054932,0.18722745776176453,-2.5376927852630615
1413393890230760500,-0.013158229179680347,0.17952179908752441,0.20970457792282104,8.7598876953125,0.6320388913154602,-2.088059425354004
1413393890235760500,0.02423251047730446,0.1060534119606018,0.2727607190608978,7.128754615783691,-1.2340515851974487,-2.7002463340759277
1413393890240760500,0.019323129206895828,0.13923212885856628,0.1822219043970108,8.217666625976562,-0.07298250496387482,-1.9223787784576416
1413393890245760500,0.08141933381557465,0.07301299273967743,0.2737715244293213,6.277442455291748,-0.4423190951347351,-1.8988908529281616
1413393890250760500,0.05878976359963417,0.15988877415657043,0.21316654980182648,8.680564880371094,0.39719268679618835,-2.839108943939209
1413393890255760500,0.07166494429111481,0.10967999696731567,0.30556878447532654,5.91882848739624,0.5301744341850281,-2.373262882232666
1413393890260760500,0.025879938155412674,0.15411928296089172,0.2512671649456024,8.882822036743164,0.05038538947701454,-3.346647024154663
1413393890265760500,0.03136499598622322,0.13271474838256836,0.30248162150382996,5.648212432861328,0.9817374348640442,-1.6291751861572266
1413393890270760500,0.017765957862138748,0.12351641058921814,0.26721885800361633,9.59864616394043,-1.1706355810165405,-3.2374532222747803
