#timestamp [ns],w_RS_S_x [rad s^-1],w_RS_S_y [rad s^-1],w_RS_S_z [rad s^-1],a_RS_S_x [m s^-2],a_RS_S_y [m s^-2],a_RS_S_z [m s^-2]
1413393885975760500,0.050963614158234416,0.041887902047863905,0.06841690667817772,9.438900625,-0.4004382083333333,-2.729517583333333
1413393885980760500,0.05375614096142535,0.03630284844148206,0.07051130178057091,9.398039583333333,0.032688833333333334,-3.195333458333333
1413393885985760500,0.03839724354387525,0.04258603374866164,0.04677482395344803,9.561483749999999,0.2533384583333333,-3.015544875
1413393885990760500,0.028623399732707,0.047472955654245766,0.07120943348136866,9.283628666666665,0.269682875,-3.0890947499999997
1413393885995760500,0.0027925268031909274,0.06562437987498679,0.06213372137099814,9.610517,0.4985047083333333,-3.0400614999999998
1413393886000760500,-0.025132741228718346,0.03839724354387525,0.08377580409572781,9.161045541666667,0.7681875833333334,-3.2280222916666665
1413393886005760500,-0.05235987755982988,0.04817108735504349,0.08936085770210968,9.283628666666665,0.3350605416666666,-3.0809225416666663
1413393886010760500,-0.05585053606381855,0.03839724354387525,0.08098327729253688,9.054806833333332,-0.35140495833333335,-2.7867230416666664
1413393886015760500,-0.04049163864626844,0.009075712110370514,0.0747000919853573,9.259112041666667,-0.5720545833333333,-2.754034208333333
1413393886020760500,-0.013264502315156905,0.00767944870877505,0.08656833089891874,9.357178541666666,-0.6701210833333332,-2.7376897916666665
1413393886025760500,0.023038346126325153,0.010471975511965976,0.07819075048934597,9.520622708333333,-0.612915625,-2.9093061666666666
1413393886030760500,0.0439822971502571,0.032114058236695664,0.08307767239493008,9.586000375,-0.3759215833333333,-2.941995
1413393886035760500,0.04049163864626844,0.028623399732707,0.07819075048934597,9.250939833333334,0.18796079166666665,-2.811239666666667
1413393886040760500,0.021642082724729686,0.02652900463031381,0.07190756518216637,9.259112041666667,0.416782625,-3.023717083333333
1413393886045760500,-0.005585053606381855,0.04677482395344803,0.06911503837897544,9.373522958333332,0.367749375,-3.0400614999999998
1413393886050760500,-0.023736477827122883,0.03420845333908886,0.06771877497737998,9.144701125,0.057205458333333334,-2.982856041666666
1413393886055760500,-0.03490658503988659,0.01884955592153876,0.06981317007977318,9.07115125,0.10623870833333333,-2.7376897916666665
1413393886060760500,-0.03490658503988659,0.013962634015954637,0.08237954069413235,9.1201845,-0.2533384583333333,-2.9093061666666666
1413393886065760500,-0.021642082724729686,0.009075712110370514,0.08028514559173915,9.242767624999999,-0.4004382083333333,-2.999200458333333
1413393886070760500,-0.008377580409572781,0.006981317007977318,0.08726646259971647,9.536967125,-0.392266,-2.9583394166666666
1413393886075760500,0.00767944870877505,0.02234021442552742,0.08307767239493008,9.406211791666665,-0.3105439166666667,-2.974683833333333
1413393886080760500,0.017453292519943295,0.02234021442552742,0.07260569688296412,9.349006333333334,-0.3023717083333333,-3.015544875
1413393886085760500,0.025132741228718346,0.02722713633111154,0.06562437987498679,9.520622708333333,-0.17978858333333333,-2.974683833333333
1413393886090760500,0.02652900463031381,0.02234021442552742,0.08098327729253688,9.291800875,0.17161637500000002,-2.9338227916666666
1413393886095760500,0.009773843811168246,0.017453292519943295,0.08517206749732328,9.234595416666666,0.35957716666666667,-2.8766173333333334
1413393886100760500,-0.013264502315156905,0.02024581932313422,0.09564404300928926,8.989429166666666,0.3840937916666667,-2.8684451249999996
1413393886105760500,-0.033510321638291124,0.008377580409572781,0.09215338450530061,9.635033625,0.08989429166666667,-3.1299557916666663
1413393886110760500,-0.04537856055185257,0.009075712110370514,0.08237954069413235,9.5124505,-0.20430520833333332,-3.0645781249999997
1413393886115760500,-0.02722713633111154,0.016755160819145562,0.07330382858376185,9.398039583333333,-0.661948875,-2.8766173333333334
1413393886120760500,0.0012801215052604675,0.023597663268446922,0.06325684487819672,9.474719047546387,-0.563698947429657,-3.0430967807769775
1413393886125760500,0.026357494294643402,0.02583114616572857,0.07303990423679352,9.319929122924805,-0.09123777598142624,-2.946263074874878
1413393886130760500,0.040955789387226105,0.020932214334607124,0.08767908811569214,9.164712905883789,-0.0915294736623764,-2.7912771701812744
1413393886135760500,0.03266122192144394,0.011990891769528389,0.0764775425195694,9.516373634338379,0.21038813889026642,-3.102046251296997
1413393886140760500,0.002690739929676056,0.029531370848417282,0.07936641573905945,9.295515060424805,0.4963809549808502,-2.979640007019043
1413393886145760500,-0.020935766398906708,0.012745697051286697,0.0806746631860733,9.573335647583008,0.31686919927597046,-3.2487075328826904
1413393886150760500,-0.03353271633386612,0.024428265169262886,0.07164514064788818,9.458711624145508,-0.20519030094146729,-3.0680601596832275
1413393886155760500,-0.023089222609996796,0.03487958014011383,0.074454665184021,9.41756820678711,-0.20492729544639587,-3.100574493408203
1413393886160760500,-0.013351894915103912,0.04120007902383804,0.079377681016922,9.229875564575195,-0.03378633037209511,-2.888681173324585
1413393886165760500,-0.0036079809069633484,0.027202008292078972,0.07585017383098602,9.230069160461426,-0.1971520036458969,-2.83154559135437
1413393886170760500,0.0026446208357810974,0.015985699370503426,0.07092384994029999,9.254148483276367,-0.40883713960647583,-2.9944891929626465
1413393886175760500,0.012445814907550812,0.022398347035050392,0.07788388431072235,9.450152397155762,0.0072151185013353825,-3.346099376678467
1413393886180760500,0.008229784667491913,0.041212476789951324,0.0856550931930542,9.156234741210938,0.03135834261775017,-2.8562610149383545
1413393886185760500,0.0005887225270271301,0.018844960257411003,0.0883607268333435,9.450864791870117,-0.11604449898004532,-2.962352991104126
1413393886190760500,0.005483157932758331,0.034839190542697906,0.08211857080459595,9.508007049560547,-0.21379096806049347,-2.913057565689087
1413393886195760500,0.009651415050029755,0.04333866387605667,0.08426201343536377,9.295302391052246,0.16176451742649078,-2.8973052501678467
1413393886200760500,-0.0029068365693092346,0.03431379050016403,0.08216336369514465,9.172737121582031,0.21899288892745972,-2.8974344730377197
1413393886205760500,-0.018200360238552094,0.01680302806198597,0.06746271252632141,9.402146339416504,-0.04256851226091385,-2.8809940814971924
1413393886210760500,-0.021016664803028107,0.016776951029896736,0.06536233425140381,9.287149429321289,-0.18065141141414642,-3.0030272006988525
1413393886215760500,-0.014042116701602936,0.02441568113863468,0.07094484567642212,9.385053634643555,-0.22956812381744385,-3.0599520206451416
1413393886220760500,-0.015462182462215424,0.03138617426156998,0.07726207375526428,9.156370162963867,-0.22138379514217377,-2.8231313228607178
1413393886225760500,-0.0001267269253730774,0.02159079723060131,0.08697031438350677,9.38518238067627,-0.2706944942474365,-2.978278398513794
1413393886230760500,0.015888236463069916,0.023691782727837563,0.08489252626895905,9.254495620727539,-0.22177603840827942,-2.8642427921295166
1413393886235760500,0.027053512632846832,0.02308044396340847,0.0855877548456192,9.344598770141602,0.055285289883613586,-2.9138500690460205
1413393886240760500,0.01868181675672531,0.02526949718594551,0.08072279393672943,9.205348014831543,0.24345286190509796,-3.01194167137146
1413393886245760500,0.002011992037296295,0.017566736787557602,0.08487701416015625,9.483624458312988,0.2022196650505066,-3.036432981491089
1413393886250760500,-0.014769531786441803,0.025907255709171295,0.08143015205860138,9.123422622680664,0.03981757536530495,-3.019475221633911
1413393886255760500,-0.018210195004940033,0.014072107151150703,0.09603697061538696,9.442883491516113,0.18572059273719788,-2.9546329975128174
1413393886260760500,-0.023138470947742462,0.02587912045419216,0.0960802286863327,9.164502143859863,0.014970041811466217,-2.9050705432891846
1413393886265760500,-0.01478327065706253,0.004112621769309044,0.0967060923576355,9.295720100402832,-0.4015384018421173,-2.773996353149414
1413393886270760500,-0.0008146390318870544,0.008993269875645638,0.07368901371955872,9.442547798156738,-0.42567017674446106,-2.953765630722046
1413393886275760500,0.011746294796466827,0.009725799784064293,0.06392344832420349,9.516173362731934,-0.31147822737693787,-3.0602941513061523
1413393886280760500,0.013848938047885895,0.020960012450814247,0.052108604460954666,9.426207542419434,-0.1155141070485115,-3.052452802658081
1413393886285760500,0.018707670271396637,0.004962386563420296,0.0597454197704792,9.344775199890137,-0.009833606891334057,-2.987569570541382
1413393886290760500,0.00759509950876236,0.02874692715704441,0.059811148792505264,9.401653289794922,0.21908840537071228,-3.085425853729248
1413393886295760500,-0.01193990558385849,0.014910189434885979,0.08699911832809448,9.344815254211426,0.5287896990776062,-3.0042977333068848
1413393886300760500,-0.025903664529323578,0.0328766405582428,0.09400694072246552,9.221795082092285,0.1128770038485527,-2.9051856994628906
1413393886305760500,-0.026636578142642975,0.018830353394150734,0.09047703444957733,9.148030281066895,-0.2540198266506195,-2.9127676486968994
1413393886310760500,-0.015465594828128815,0.02574319951236248,0.08627772331237793,9.392759323120117,-0.4251205027103424,-3.1409685611724854
1413393886315760500,-0.0015468969941139221,0.020902099087834358,0.09185025095939636,9.270298957824707,-0.2865986227989197,-3.0924038887023926
1413393886320760500,0.01311107724905014,0.02851148508489132,0.08070714771747589,9.360530853271484,-0.40909281373023987,-2.9209256172180176
1413393886325760500,0.029109127819538116,0.0201889481395483,0.08835788071155548,9.262412071228027,-0.2705371677875519,-2.9866654872894287
1413393886330760500,0.02984210103750229,0.030800417065620422,0.08560626208782196,9.328007698059082,0.17793799936771393,-2.9873790740966797
1413393886335760500,0.015882067382335663,0.023924680426716805,0.10304000973701477,9.246304512023926,0.4389972686767578,-2.9713735580444336
1413393886340760500,-0.014057658612728119,0.03148065507411957,0.08631177246570587,9.221348762512207,0.0480065755546093,-3.1009914875030518
1413393886345760500,-0.028660260140895844,0.01398598961532116,0.07161693274974823,9.442244529724121,-0.18067339062690735,-3.174377679824829
1413393886350760500,-0.028631485998630524,0.027911396697163582,0.06258150935173035,9.548359870910645,-0.2131388634443283,-3.2068538665771484
1413393886355760500,-0.01613641530275345,0.025066575035452843,0.06328745186328888,9.287256240844727,-0.37638989090919495,-2.8312184810638428
1413393886360760500,-0.0015114173293113708,0.020163873210549355,0.06186704710125923,9.35235595703125,-0.42521432042121887,-2.9781715869903564
1413393886365760500,0.020104430615901947,0.027180882170796394,0.07722242176532745,9.43459415435791,-0.17310559749603271,-2.8726096153259277
1413393886370760500,0.020089320838451385,0.037814974784851074,0.08632782101631165,9.278785705566406,0.2761344015598297,-3.0199732780456543
1413393886375760500,0.00822845846414566,0.03295699506998062,0.08775486052036285,9.140149116516113,0.3738105595111847,-2.8080105781555176
1413393886380760500,-0.0056715235114097595,0.023768717423081398,0.09256546199321747,9.450959205627441,0.0307343490421772,-2.9216763973236084
1413393886385760500,-0.011250950396060944,0.02654319442808628,0.08908621966838837,9.40993881225586,-0.04246870055794716,-2.9377858638763428
1413393886390760500,-0.010553263127803802,0.037656910717487335,0.08840720355510712,9.434205055236816,-0.16459335386753082,-2.9618639945983887
1413393886395760500,-0.009209312498569489,0.027210472151637077,0.0856221467256546,9.090869903564453,-0.1887584924697876,-2.83951997756958
1413393886400760500,0.006851263344287872,0.02014605887234211,0.08486410975456238,9.49966049194336,-0.3930799067020416,-2.9862852096557617
1413393886405760500,0.015901796519756317,0.023074893280863762,0.07862445712089539,9.26276683807373,-0.009731896221637726,-2.9055233001708984
1413393886410760500,0.0075605884194374084,0.02037348970770836,0.07513539493083954,9.311843872070312,0.20248039066791534,-3.003817081451416
1413393886415760500,-0.009156785905361176,0.008465001359581947,0.07650372385978699,9.377573013305664,0.04706854373216629,-2.930210828781128
1413393886420760500,-0.012617595493793488,0.009825004264712334,0.0688130259513855,9.507925987243652,-0.08302643150091171,-3.1584665775299072
1413393886425760500,-0.01195257157087326,0.016729125753045082,0.05978310480713844,9.295618057250977,-0.28690099716186523,-2.847911834716797
1413393886430760500,-0.006371743977069855,0.02025560848414898,0.05908052995800972,9.368704795837402,-0.18050158023834229,-3.1255452632904053
1413393886435760500,0.008248887956142426,0.01809222437441349,0.07581156492233276,9.36111068725586,-0.27911415696144104,-2.815295696258545
1413393886440760500,0.013135962188243866,0.01540529914200306,0.08346976339817047,9.442758560180664,0.01448514498770237,-2.995429039001465
1413393886445760500,0.006142221391201019,0.022434307262301445,0.08771586418151855,9.205801010131836,0.19395595788955688,-2.7833614349365234
1413393886450760500,-0.004289306700229645,0.01545293815433979,0.08905570209026337,9.369003295898438,0.10445573925971985,-3.044344663619995
1413393886455760500,-0.013352431356906891,0.014704341068863869,0.09252907335758209,9.40144157409668,-0.05856785923242569,-3.1255319118499756
1413393886460760500,-0.015431426465511322,0.020953411236405373,0.0883653312921524,9.450640678405762,-0.10762395709753036,-3.0438003540039062
1413393886465760500,-0.011298142373561859,0.02576478011906147,0.08420990407466888,9.172418594360352,-0.3517457842826843,-2.904477119445801
1413393886470760500,0.007535554468631744,0.027112307026982307,0.08837530016899109,9.368818283081055,-0.40924936532974243,-2.880030393600464
1413393886475760500,0.018659330904483795,0.017410067841410637,0.09184880554676056,9.22990608215332,-0.23811906576156616,-2.8968894481658936
1413393886480760500,0.021495945751667023,0.014722978696227074,0.08346374332904816,9.450881958007812,0.055314935743808746,-3.0363504886627197
1413393886485760500,0.01104602962732315,0.023150945082306862,0.07375700771808624,9.303790092468262,0.20232319831848145,-2.9140849113464355
1413393886490760500,-0.0014742538332939148,0.01483643613755703,0.07372196018695831,9.39361572265625,0.29233023524284363,-3.110078811645508
1413393886495760500,-0.016813404858112335,0.015470655634999275,0.07720641791820526,9.36892318725586,0.10472772270441055,-3.1096203327178955
1413393886500760500,-0.024461843073368073,0.0209361482411623,0.07232527434825897,9.5486421585083,-0.19715973734855652,-3.1253325939178467
1413393886505760500,-0.02029598504304886,0.04183686524629593,0.07587967813014984,9.401803016662598,-0.1972191035747528,-2.8312482833862305
1413393886510760500,-0.00709427148103714,0.02858041785657406,0.08211632072925568,9.303370475769043,-0.24598073959350586,-2.9455721378326416
1413393886515760500,0.011026568710803986,0.03623402118682861,0.08700522780418396,9.36058521270752,-0.23794083297252655,-2.9292709827423096
1413393886520760500,0.017967529594898224,0.03142877668142319,0.08839184045791626,9.196789741516113,-0.07447469234466553,-3.060188055038452
1413393886525760500,0.01313985139131546,0.032170869410037994,0.08352813124656677,9.377250671386719,0.12884917855262756,-2.913771867752075
1413393886530760500,-0.0007874146103858948,0.01896607130765915,0.07651348412036896,9.38526725769043,0.15365487337112427,-3.1097640991210938
1413393886535760500,-0.0049754902720451355,0.037016600370407104,0.07587610185146332,9.319964408874512,-0.017725873738527298,-2.888885736465454
1413393886540760500,-0.013377510011196136,0.03076687455177307,0.07515755295753479,9.106789588928223,-0.04140208661556244,-3.1090168952941895
1413393886545760500,-0.010537393391132355,0.0432533398270607,0.08215256035327911,9.442508697509766,-0.09936997294425964,-2.9130306243896484
1413393886550760500,-0.01129671186208725,0.023029325529932976,0.08211639523506165,9.147970199584961,-0.20502936840057373,-2.937490463256836
1413393886555760500,-0.002893291413784027,0.032726407051086426,0.0821412205696106,9.230598449707031,-0.2953484058380127,-2.5782203674316406
1413393886560760500,0.0019287392497062683,0.002149263396859169,0.07858152687549591,9.091002464294434,-0.11562852561473846,-2.9380574226379395
1413393886565760500,0.008300714194774628,0.02374548278748989,0.07373093068599701,9.598307609558105,-0.01834263652563095,-2.9300315380096436
1413393886570760500,-0.004991106688976288,0.014706680551171303,0.07232506573200226,9.311755180358887,-0.07485393434762955,-3.011495351791382
1413393886575760500,0.002698265016078949,0.02439972572028637,0.06537337601184845,9.410225868225098,-0.20566943287849426,-2.823587417602539
1413393886580760500,-0.002910308539867401,0.014062168076634407,0.06745465099811554,9.189184188842773,0.047624047845602036,-2.9791009426116943
1413393886585760500,-0.001435883343219757,0.041237346827983856,0.08840402960777283,9.613983154296875,0.1698877215385437,-3.117507219314575
1413393886590760500,-0.009201861917972565,0.034194573760032654,0.08564901351928711,9.066509246826172,-0.12358979135751724,-2.749821186065674
1413393886595760500,-0.003624461591243744,0.01252426765859127,0.09253980219364166,9.303765296936035,-0.2628144323825836,-2.8477749824523926
1413393886600760500,0.0005488619208335876,0.00907902978360653,0.08276520669460297,9.23796558380127,-0.21342939138412476,-3.0275254249572754
1413393886605760500,0.0047918036580085754,0.018182316794991493,0.09600742161273956,9.581482887268066,-0.0017858907813206315,-3.1257216930389404
1413393886610760500,-0.0036046579480171204,0.02999144233763218,0.08211903274059296,9.319703102111816,-0.18892605602741241,-2.9701733589172363
1413393886615760500,0.004761435091495514,0.012540536001324654,0.07858844101428986,9.385566711425781,-0.22202399373054504,-2.9052138328552246
1413393886620760500,0.008226700127124786,0.02031032182276249,0.07721266150474548,9.213322639465332,-0.00924159586429596,-3.1012637615203857
1413393886625760500,0.006866119801998138,0.03080064244568348,0.09256583452224731,9.393150329589844,0.1537243127822876,-3.1339590549468994
1413393886630760500,-0.010586701333522797,0.03008529171347618,0.08144599199295044,9.123503684997559,0.04786587506532669,-2.9542183876037598
1413393886635760500,-0.008508540689945221,0.006338091567158699,0.08487015962600708,9.181076049804688,-0.07502778619527817,-2.9135429859161377
1413393886640760500,-0.005724795162677765,0.014680715277791023,0.08208811283111572,9.172443389892578,-0.16427749395370483,-3.0356438159942627
1413393886645760500,-0.0049667879939079285,0.01332925446331501,0.0820632129907608,9.47511100769043,-0.0014642566675320268,-3.166637897491455
1413393886650760500,-0.015408046543598175,0.02722136490046978,0.06677471101284027,9.467151641845703,-0.14833298325538635,-2.97041654586792
1413393886655760500,0.0047621950507164,0.020923906937241554,0.07861162722110748,9.352766036987305,-0.17295445501804352,-2.897034168243408
1413393886660760500,0.008244343101978302,0.03348194807767868,0.07166235148906708,9.31955623626709,-0.18867677450180054,-3.0355725288391113
1413393886665760500,0.006182558834552765,0.02663072571158409,0.08001165091991425,9.409666061401367,0.17004238069057465,-3.125999689102173
1413393886670760500,-0.0036000236868858337,0.02866937778890133,0.07585364580154419,9.246251106262207,-0.001274634967558086,-2.962449312210083
1413393886675760500,-0.0014986321330070496,0.016737205907702446,0.08207644522190094,9.467120170593262,-0.18928982317447662,-3.0112359523773193
1413393886680760500,-0.004316471517086029,0.02303350530564785,0.08140644431114197,9.246034622192383,-0.18062739074230194,-3.0192227363586426
1413393886685760500,-0.006339721381664276,0.01957840286195278,0.08138620853424072,9.573521614074707,-0.018117602914571762,-3.0441620349884033
1413393886690760500,-0.00985456258058548,0.02930467762053013,0.07933194935321808,9.401761054992676,-0.14026913046836853,-2.91318416595459
1413393886695760500,0.006167136132717133,0.032071635127067566,0.08072134852409363,9.426141738891602,-0.18097230792045593,-2.9539690017700195
1413393886700760500,0.008236430585384369,0.0314105823636055,0.08072736859321594,9.278790473937988,-0.11544759571552277,-2.9867103099823
1413393886705760500,0.004110105335712433,0.036378808319568634,0.07795019447803497,9.45875072479248,0.1699986308813095,-3.068770170211792
1413393886710760500,-0.00221850723028183,0.03005729429423809,0.07937295734882355,9.1158447265625,0.031064452603459358,-2.717670202255249
1413393886715760500,-0.0014764145016670227,0.013950658962130547,0.08136537671089172,9.589861869812012,-0.16498033702373505,-3.052154302597046
1413393886720760500,-0.0022169873118400574,0.025202283635735512,0.08351430296897888,9.221698760986328,0.055794794112443924,-2.9788455963134766
1413393886725760500,-0.00774741917848587,0.030048580840229988,0.07584720849990845,9.43441104888916,-0.009656106121838093,-2.9869163036346436
1413393886730760500,0.000561349093914032,0.02303817681968212,0.07932505011558533,9.197232246398926,-0.14816789329051971,-2.896949291229248
1413393886735760500,0.003412477672100067,0.026541655883193016,0.0744311511516571,9.540740013122559,-0.04242503643035889,-3.0278167724609375
1413393886740760500,0.01171477884054184,0.029381658881902695,0.08560836315155029,9.229768753051758,0.06397941708564758,-2.9952006340026855
1413393886745760500,0.0013040974736213684,0.030770404264330864,0.07445991039276123,9.377205848693848,0.0637902319431305,-2.9626286029815674
1413393886750760500,-0.0022332295775413513,0.012652305886149406,0.0835147500038147,9.115973472595215,0.08790125697851181,-2.750622034072876
1413393886755760500,-0.0021903738379478455,0.011889370158314705,0.08068221807479858,9.442952156066895,-0.08353747427463531,-2.9136111736297607
1413393886760760500,-0.004316173493862152,0.015400281175971031,0.08974403142929077,9.286825180053711,-0.08278358727693558,-3.141838312149048
1413393886765760500,-0.01124148815870285,0.02372225560247898,0.07930456101894379,9.483296394348145,-0.1727723628282547,-3.060062885284424
1413393886770760500,-0.0036230310797691345,0.011143764480948448,0.08137132227420807,9.311490058898926,-0.2868064343929291,-3.0518391132354736
1413393886775760500,0.004086770117282867,0.025126146152615547,0.07791769504547119,9.458996772766113,-0.10771413147449493,-2.9705562591552734
1413393886780760500,0.014497838914394379,0.0140311811119318,0.08765527606010437,9.28719425201416,0.03104875423014164,-3.0198752880096436
1413393886785760500,0.00410858541727066,0.027975844219326973,0.07304935157299042,9.483530044555664,0.06368158757686615,-3.0116753578186035
1413393886790760500,-0.0036271587014198303,0.007117057219147682,0.07929876446723938,9.13202953338623,0.12903881072998047,-2.9547691345214844
1413393886795760500,-0.008465878665447235,0.016731513664126396,0.0778963565826416,9.450749397277832,-0.22998861968517303,-3.0029687881469727
1413393886800760500,-0.007799066603183746,0.019566180184483528,0.08835640549659729,9.294804573059082,-0.13970786333084106,-3.1987836360931396
1413393886805760500,-0.009147964417934418,0.027199873700737953,0.08140452206134796,9.507893562316895,-0.17288699746131897,-3.01922345161438
1413393886810760500,-0.0036266520619392395,0.013299057260155678,0.0834808200597763,9.213521003723145,-0.10742221772670746,-2.995021104812622
1413393886815760500,0.0006082281470298767,0.034159816801548004,0.07444803416728973,9.491469383239746,-0.20535896718502045,-3.0028693675994873
1413393886820760500,0.004727877676486969,0.027240438386797905,0.08002583682537079,9.131415367126465,-0.12327713519334793,-3.0356199741363525
1413393886825760500,0.0075859203934669495,0.034210238605737686,0.07793515920639038,9.50788402557373,-0.03417032212018967,-3.0277013778686523
1413393886830760500,0.0026412233710289,0.02169525809586048,0.08280569314956665,9.147961616516113,-0.025633472949266434,-3.0113909244537354
1413393886835760500,-0.0007937923073768616,0.025154968723654747,0.0821094661951065,9.418163299560547,-0.026180433109402657,-2.9461586475372314
1413393886840760500,-0.010606519877910614,0.025146199390292168,0.08490517735481262,9.114981651306152,-0.14768044650554657,-3.0599091053009033
1413393886845760500,-0.00848080962896347,0.030017925426363945,0.08839067816734314,9.335931777954102,-0.11546774208545685,-3.0436644554138184
1413393886850760500,-0.00639062374830246,0.027204854413866997,0.08489878475666046,9.352404594421387,-0.18084359169006348,-2.9946792125701904
1413393886855760500,0.0012631788849830627,0.027239633724093437,0.08560782670974731,9.246237754821777,-0.07482939958572388,-2.9296488761901855
1413393886860760500,0.004735000431537628,0.030705654993653297,0.07654695212841034,9.164106369018555,-0.1803497076034546,-3.0191824436187744
1413393886865760500,0.008938618004322052,0.02238207869231701,0.07583393156528473,9.270905494689941,-0.017806336283683777,-2.9381344318389893
1413393886870760500,0.006842069327831268,0.01888938806951046,0.07023787498474121,9.254292488098145,-0.08273101598024368,-3.0685958862304688
1413393886875760500,0.002652488648891449,0.01685563288629055,0.07443647086620331,9.148247718811035,0.08024366199970245,-2.954620361328125
1413393886880760500,-0.007762886583805084,0.02447156049311161,0.07792161405086517,9.385212898254395,-0.03402399644255638,-3.044029951095581
1413393886885760500,-0.009869121015071869,0.02095910720527172,0.07861582934856415,9.328083038330078,-0.11566057801246643,-2.970454216003418
1413393886890760500,-0.008410565555095673,0.02372106723487377,0.07510554790496826,9.687561988830566,-0.14830289781093597,-3.2152512073516846
1413393886895760500,-0.004998005926609039,0.028691932559013367,0.08074367046356201,9.213643074035645,0.08021029084920883,-2.9135971069335938
1413393886900760500,-0.0021849796175956726,0.02650046907365322,0.07303789258003235,9.458829879760742,-0.19722028076648712,-3.0111501216888428
1413393886905760500,0.0033768489956855774,0.0278973039239645,0.07444769144058228,9.344581604003906,-0.1728663295507431,-2.8643155097961426
1413393886910760500,0.015919096767902374,0.021630393341183662,0.08068400621414185,9.466958999633789,-0.1401790976524353,-3.0848288536071777
1413393886915760500,0.008912600576877594,0.023806871846318245,0.07725387811660767,9.058341026306152,0.055735211819410324,-2.832097053527832
1413393886920760500,-8.801370859146118e-05,0.021006377413868904,0.08417615294456482,9.466967582702637,0.04745669290423393,-3.1176724433898926
1413393886925760500,-0.007096089422702789,0.02375246398150921,0.08211949467658997,9.23002815246582,-0.09118629992008209,-2.8888306617736816
1413393886930760500,-0.004970811307430267,0.017480282112956047,0.09184342622756958,9.508186340332031,-0.018266335129737854,-2.978816509246826
1413393886935760500,-0.007120631635189056,0.025904744863510132,0.08771204948425293,9.066244125366211,0.055993396788835526,-2.9460716247558594
1413393886940760500,-0.007087878882884979,0.020196394994854927,0.0820874273777008,9.401490211486816,-0.2950577139854431,-3.010885000228882
1413393886945760500,0.002618826925754547,0.016038591042160988,0.0820963978767395,9.066073417663574,-0.26200681924819946,-2.961996555328369
1413393886950760500,0.010347343981266022,0.016765212640166283,0.07510845363140106,9.418156623840332,-0.10771946609020233,-2.9870595932006836
1413393886955760500,0.0061344727873802185,0.018207138404250145,0.07792399823665619,9.172807693481445,-0.009632594883441925,-2.905501127243042
1413393886960760500,0.0013159587979316711,0.01325765810906887,0.07578350603580475,9.597947120666504,-0.16485826671123505,-3.1093552112579346
1413393886965760500,-0.00014651566743850708,0.019580574706196785,0.07514525949954987,9.074628829956055,-0.09099061787128448,-2.864459991455078
1413393886970760500,-0.0014754757285118103,0.011284248903393745,0.09110553562641144,9.507654190063477,0.12918716669082642,-3.2973670959472656
1413393886975760500,-0.01333124190568924,0.03843501955270767,0.08494144678115845,9.360732078552246,0.07201596349477768,-2.946012496948242
1413393886980760500,-0.01337512582540512,0.02162967436015606,0.08629344403743744,9.246282577514648,-0.1890217810869217,-2.913060188293457
1413393886985760500,-0.004992462694644928,0.025742320343852043,0.07164233922958374,9.376930236816406,-0.4008704423904419,-2.9372332096099854
1413393886990760500,0.012402571737766266,0.023053502663969994,0.07930907607078552,9.229650497436523,-0.1153290867805481,-3.0602762699127197
1413393886995760500,0.013136990368366241,0.02376723848283291,0.08418801426887512,9.43443775177002,0.006445314269512892,-2.9952683448791504
1413393887000760500,0.0019860342144966125,0.016802752390503883,0.07511745393276215,9.369099617004395,-0.026083102449774742,-2.987147808074951
1413393887005760500,0.0026671364903450012,0.023054232820868492,0.07791577279567719,9.311537742614746,-0.10731890052556992,-3.0439510345458984
1413393887010760500,0.0005624070763587952,0.019695540890097618,0.08908006548881531,9.197192192077637,0.24343153834342957,-3.028179168701172
1413393887015760500,-0.013284005224704742,0.02796756848692894,0.0911695808172226,9.655327796936035,0.11229528486728668,-3.011486053466797
1413393887020760500,-0.017540298402309418,0.03071429394185543,0.08352820575237274,9.270791053771973,-0.12367558479309082,-2.913064956665039
1413393887025760500,-0.005002461373806,0.01667686738073826,0.07580137252807617,9.393241882324219,-0.4090859591960907,-3.010748863220215
1413393887030760500,0.010317109525203705,0.030691979452967644,0.07166603207588196,9.188799858093262,-0.20492225885391235,-2.9539644718170166
1413393887035760500,0.01382029801607132,0.018883028998970985,0.08348412811756134,9.369098663330078,-0.01804947853088379,-2.9626619815826416
1413393887040760500,0.00617363303899765,0.02790091000497341,0.07373815774917603,9.442479133605957,-0.1646105945110321,-3.0030813217163086
1413393887045760500,0.007527045905590057,0.019595542922616005,0.0821017324924469,9.205377578735352,-0.025856463238596916,-2.9706995487213135
1413393887050760500,0.001955367624759674,0.026672430336475372,0.08213353157043457,9.131741523742676,0.2517651915550232,-2.995488405227661
1413393887055760500,-0.01749870926141739,0.020353537052869797,0.0862877368927002,9.442692756652832,0.17784768342971802,-3.0198886394500732
1413393887060760500,-0.021009765565395355,0.03349945694208145,0.08003363013267517,9.360383033752441,-0.1560659259557724,-3.0679948329925537
1413393887065760500,-0.007109411060810089,0.018106849864125252,0.08209668099880219,9.229884147644043,-0.30311158299446106,-2.8966143131256104
1413393887070760500,0.005432687699794769,0.02161392755806446,0.07582858204841614,9.188909530639648,-0.24588078260421753,-2.929464340209961
1413393887075760500,0.013786427676677704,0.01048566959798336,0.08137856423854828,9.197278022766113,-0.1483437865972519,-2.9380035400390625
1413393887080760500,0.008272819221019745,0.020932095125317574,0.07580581307411194,9.524319648742676,-0.14030951261520386,-3.052205801010132
1413393887085760500,0.011007197201251984,0.0126118715852499,0.07580740749835968,9.189065933227539,-0.07479865849018097,-2.9789273738861084
1413393887090760500,0.005456231534481049,0.02105516754090786,0.0800141841173172,9.262657165527344,0.15362407267093658,-3.0199739933013916
1413393887095760500,-0.009883783757686615,0.007834842428565025,0.08487671613693237,9.222014427185059,0.2023540735244751,-2.9793293476104736
1413393887100760500,-0.025851331651210785,0.023042546585202217,0.07861152291297913,9.557106018066406,-0.11589430272579193,-3.019327163696289
1413393887105760500,-0.015458352863788605,0.018773769959807396,0.08487607538700104,9.376988410949707,-0.38477641344070435,-2.9453225135803223
1413393887110760500,0.001976095139980316,0.030609214678406715,0.08210088312625885,9.474899291992188,-0.4009624421596527,-3.0105788707733154
1413393887115760500,0.008901156485080719,0.01812813989818096,0.08419656753540039,9.099102973937988,-0.22159437835216522,-2.8397414684295654
1413393887120760500,0.014550067484378815,0.020896749570965767,0.07789193093776703,9.606258392333984,-0.1976543515920639,-3.0031802654266357
1413393887125760500,0.0158916637301445,0.01678590290248394,0.07512560486793518,9.197408676147461,-0.0668346956372261,-2.8810367584228516
1413393887130760500,0.012446530163288116,0.022450638934969902,0.08208918571472168,9.409723281860352,0.1781180500984192,-3.1342549324035645
1413393887135760500,-0.00568852573633194,0.030149735510349274,0.08145223557949066,9.205456733703613,0.25978609919548035,-2.9465110301971436
1413393887140760500,-0.025838546454906464,0.022431975230574608,0.08211271464824677,9.516408920288086,0.15329359471797943,-2.995342493057251
1413393887145760500,-0.023111633956432343,0.032082006335258484,0.0814359039068222,9.303474426269531,-0.21335579454898834,-2.904674530029297
1413393887150760500,-0.007113225758075714,0.01810535229742527,0.08278422057628632,9.270448684692383,-0.32736584544181824,-3.0434296131134033
1413393887155760500,-0.0001401081681251526,0.03555550426244736,0.07656486332416534,9.139670372009277,-0.2618885934352875,-2.9046828746795654
1413393887160760500,0.013117976486682892,0.019483933225274086,0.07790052890777588,9.377189636230469,-0.2952256500720978,-2.9131813049316406
1413393887165760500,0.01730693131685257,0.029286818578839302,0.06816139817237854,9.368732452392578,-0.20514115691184998,-3.027552366256714
1413393887170760500,0.017280660569667816,0.01899711601436138,0.08209110796451569,9.197097778320312,0.21909672021865845,-3.101682662963867
1413393887175760500,-0.004963330924510956,0.03785426914691925,0.07938624918460846,9.303577423095703,0.39853599667549133,-2.9548428058624268
1413393887180760500,-0.025182507932186127,0.02453071065247059,0.08560596406459808,9.32804012298584,0.12918512523174286,-3.0278186798095703
1413393887185760500,-0.02866426855325699,0.027203531935811043,0.07582980394363403,9.450326919555664,-0.23770849406719208,-3.108729124069214
1413393887190760500,-0.016871698200702667,0.011837458238005638,0.0827842652797699,9.205398559570312,-0.3113018870353699,-2.8965909481048584
1413393887195760500,-0.0014798268675804138,0.0355076938867569,0.0744415670633316,9.573084831237793,-0.3439497649669647,-3.027024984359741
1413393887200760500,0.015163592994213104,0.022254137322306633,0.08279994130134583,9.090514183044434,-0.4005679488182068,-2.9046192169189453
1413393887205760500,0.023609809577465057,0.01806546561419964,0.0723019391298294,9.639124870300293,-0.2956330180168152,-2.9378743171691895
1413393887210760500,0.024261437356472015,0.014091970399022102,0.0737297534942627,9.238426208496094,0.20221959054470062,-2.9061121940612793
1413393887215760500,0.012486346065998077,0.025298694148659706,0.08349661529064178,9.5570650100708,0.39828482270240784,-3.1264238357543945
1413393887220760500,-0.020303688943386078,0.028064193204045296,0.08353254199028015,9.279007911682129,0.2680094838142395,-3.0198898315429688
1413393887225760500,-0.026574738323688507,0.027963729575276375,0.08073689043521881,9.352776527404785,-0.009655522182583809,-2.9214868545532227
1413393887230760500,-0.020353861153125763,0.013947779312729836,0.08907465636730194,9.197528839111328,-0.2218613177537918,-2.798760414123535
1413393887235760500,-0.0036017075181007385,0.020163608714938164,0.08974224328994751,9.523961067199707,-0.3685057461261749,-3.10046124458313
1413393887240760500,0.013086892664432526,0.032021284103393555,0.0849149227142334,9.139622688293457,-0.36797893047332764,-2.871906280517578
1413393887245760500,0.020103834569454193,0.022943975403904915,0.07442130148410797,9.402022361755371,-0.32806679606437683,-2.7744479179382324
1413393887250760500,0.02632898837327957,0.01396862231194973,0.07441510260105133,9.148242950439453,-0.14829231798648834,-2.889130115509033
1413393887255760500,0.015901483595371246,0.009989514946937561,0.0778825432062149,9.270894050598145,0.34956949949264526,-3.15915584564209
1413393887260760500,-0.007079087197780609,0.03230665251612663,0.08496695756912231,9.205585479736328,0.4800683856010437,-2.8978970050811768
1413393887265760500,-0.030722953379154205,0.018251242116093636,0.07653018832206726,9.467406272888184,0.12070377171039581,-2.9872076511383057
1413393887270760500,-0.030094094574451447,0.01950882188975811,0.07861597836017609,9.278907775878906,-0.3274826109409332,-2.9290385246276855
1413393887275760500,-0.016862384974956512,0.011142497882246971,0.07091949880123138,9.254190444946289,-0.34363171458244324,-3.043513536453247
1413393887280760500,0.0012775585055351257,0.03341497480869293,0.07514828443527222,9.344240188598633,-0.36824676394462585,-2.8882529735565186
1413393887285760500,0.01033095270395279,0.01388867013156414,0.07508771121501923,9.458721160888672,-0.36846426129341125,-3.059990406036377
1413393887290760500,0.02290017157793045,0.024364961311221123,0.07093048095703125,9.51630687713623,-0.2546045482158661,-2.929687738418579
1413393887295760500,0.021450944244861603,0.009916054084897041,0.07301494479179382,9.123749732971191,0.1617715209722519,-2.99574613571167
1413393887300760500,0.0097116157412529,0.03437312692403793,0.08771806955337524,9.589784622192383,0.4961455762386322,-3.0448029041290283
1413393887305760500,-0.02241530269384384,0.023191852495074272,0.08980084955692291,9.213643074035645,0.28426477313041687,-2.9954452514648438
1413393887310760500,-0.030743829905986786,0.018146468326449394,0.08766323328018188,9.557181358337402,-0.1568305492401123,-2.9947030544281006
1413393887315760500,-0.02175866812467575,0.02509469725191593,0.08490993082523346,9.123223304748535,-0.3026282787322998,-2.9697561264038086
1413393887320760500,-0.009152181446552277,0.021570691838860512,0.09322614967823029,9.646662712097168,-0.311606228351593,-3.1413121223449707
1413393887325760500,0.008207716047763824,0.02294141985476017,0.08001461625099182,9.11516284942627,-0.4332168400287628,-2.847402811050415
1413393887330760500,0.025673888623714447,0.01664932258427143,0.0792677104473114,9.581610679626465,-0.3769218325614929,-3.002927541732788
1413393887335760500,0.028435759246349335,0.03562462329864502,0.0681973248720169,9.148026466369629,-0.03378180414438248,-2.9054300785064697
1413393887340760500,0.016638077795505524,0.019765296950936317,0.08977767825126648,9.483713150024414,0.5286067128181458,-3.020656108856201
1413393887345760500,-0.015392594039440155,0.038524918258190155,0.07936674356460571,9.393290519714355,0.30895137786865234,-3.085134267807007
1413393887350760500,-0.03145483881235123,0.026625394821166992,0.07307206094264984,9.246326446533203,0.09679493308067322,-3.0032949447631836
1413393887355760500,-0.02593795210123062,0.03068813867866993,0.08143579959869385,9.098474502563477,-0.27787867188453674,-3.0513036251068115
1413393887360760500,-0.01406397670507431,0.020232556387782097,0.07930618524551392,9.303282737731934,-0.2295835316181183,-3.035444498062134
1413393887365760500,0.002655617892742157,0.03967005014419556,0.08074641227722168,9.221383094787598,-0.44129881262779236,-2.838989019393921
1413393887370760500,0.012411840260028839,0.018045468255877495,0.07789507508277893,9.328011512756348,-0.43366721272468567,-2.872070550918579
1413393887375760500,0.03053239732980728,0.027202391996979713,0.07304540276527405,9.270879745483398,-0.14833495020866394,-2.880890130996704
1413393887380760500,0.017965368926525116,0.008627263829112053,0.07581046223640442,9.132062911987305,0.43102288246154785,-3.0206246376037598
1413393887385760500,-0.00075482577085495,0.032292887568473816,0.08912214636802673,9.499909400939941,0.504324197769165,-2.995851516723633
1413393887390760500,-0.03144267946481705,0.015489807352423668,0.07930999994277954,9.352681159973145,0.15364553034305573,-3.0688202381134033
1413393887395760500,-0.03075972944498062,0.019585734233260155,0.08210054039955139,9.385326385498047,-0.07487635314464569,-3.011185884475708
1413393887400760500,-0.025214307010173798,0.0055428724735975266,0.07718096673488617,9.360796928405762,-0.3848530650138855,-2.953672170639038
1413393887405760500,-0.0049575939774513245,0.02086513303220272,0.08416162431240082,9.687772750854492,-0.3198784589767456,-3.076152801513672
1413393887410760500,0.004736386239528656,0.018044931814074516,0.0786009281873703,9.221635818481445,-0.46607697010040283,-2.8392536640167236
1413393887415760500,0.026371590793132782,0.014546787366271019,0.07298733294010162,9.565266609191895,-0.4176161587238312,-2.986602306365967
1413393887420760500,0.029836468398571014,0.021697724238038063,0.07024301588535309,9.270864486694336,0.0230284184217453,-2.987339496612549
1413393887425760500,0.018032781779766083,0.006520146504044533,0.09041169285774231,9.53276252746582,0.4715646803379059,-3.1839263439178467
1413393887430760500,-0.0070496127009391785,0.0371227040886879,0.08494502305984497,9.360715866088867,0.3087354004383087,-3.003596782684326
1413393887435760500,-0.03076793998479843,0.016830159351229668,0.08279441297054291,9.311657905578613,-0.0013074189191684127,-3.060303211212158
1413393887440760500,-0.027304045855998993,0.02724016271531582,0.08212199807167053,9.229623794555664,-0.13966529071331024,-3.0353755950927734
1413393887445760500,-0.012698151171207428,0.013206521049141884,0.08974434435367584,9.28670597076416,-0.3845161199569702,-3.07592511177063
1413393887450760500,0.006139792501926422,0.036154940724372864,0.08560134470462799,9.384713172912598,-0.5066633224487305,-2.9694418907165527
1413393887455760500,0.020749680697917938,0.014551093801856041,0.08207568526268005,9.180715560913086,-0.457963764667511,-2.847581624984741
1413393887460760500,0.0347190722823143,0.024395683780312538,0.07581101357936859,9.409801483154297,-0.18098559975624084,-3.003293037414551
1413393887465760500,0.020737700164318085,0.01764885149896145,0.07931628823280334,9.033651351928711,0.32519006729125977,-3.0202529430389404
1413393887470760500,-0.0021724924445152283,0.023983750492334366,0.08354096114635468,9.385610580444336,0.5941552519798279,-2.9961836338043213
1413393887475760500,-0.02728033810853958,0.023847835138440132,0.07934054732322693,9.24634838104248,0.14560700953006744,-2.9952445030212402
1413393887480760500,-0.03703206032514572,0.023075276985764503,0.07095496356487274,9.319681167602539,-0.1152413934469223,-3.076357841491699
1413393887485760500,-0.024526230990886688,0.014637114480137825,0.0792999416589737,9.262486457824707,-0.3030249774456024,-2.9781546592712402
1413393887490760500,-0.0056711360812187195,0.028523674234747887,0.07930846512317657,9.54056453704834,-0.3767411708831787,-2.9535348415374756
1413393887495760500,0.013097517192363739,0.02430119924247265,0.07721038162708282,9.28673267364502,-0.5147932171821594,-2.937058448791504
1413393887500760500,0.03054683655500412,0.025032298639416695,0.07301682233810425,9.483386993408203,-0.34407228231430054,-2.9703152179718018
1413393887505760500,0.029146619141101837,0.021728912368416786,0.07303108274936676,9.311750411987305,0.11273863911628723,-3.0201117992401123
1413393887510760500,0.013158358633518219,0.016990985721349716,0.08001677691936493,9.451078414916992,0.528694212436676,-3.0289103984832764
1413393887515760500,-0.012610621750354767,0.03156186267733574,0.08911964297294617,9.434494972229004,0.3819621801376343,-2.979285478591919
1413393887520760500,-0.034897275269031525,0.025935417041182518,0.0772286206483841,9.442243576049805,0.13766758143901825,-3.1991562843322754
1413393887525760500,-0.02729450911283493,0.027877992019057274,0.08630092442035675,9.360733985900879,-0.2705756425857544,-2.9127063751220703
1413393887530760500,-0.017550326883792877,0.022285347804427147,0.07790879905223846,9.35203742980957,-0.35985586047172546,-3.1248958110809326
1413393887535760500,0.005443297326564789,0.037564828991889954,0.08143579959869385,9.229597091674805,-0.4739360809326172,-2.8226423263549805
1413393887540760500,0.02354823797941208,0.02083408273756504,0.08137904107570648,9.360453605651855,-0.42535948753356934,-3.0026745796203613
1413393887545760500,0.035427726805210114,0.028595944866538048,0.07653088867664337,9.393749237060547,-0.0915883257985115,-2.8483810424804688
1413393887550760500,0.01793397217988968,0.013562352396547794,0.0834963470697403,9.02567195892334,0.5618447661399841,-3.0614211559295654
1413393887555760500,-0.009788952767848969,0.035102665424346924,0.09191614389419556,9.56522274017334,0.5779380202293396,-3.069268226623535
1413393887560760500,-0.041220493614673615,0.026669006794691086,0.0849251002073288,9.188891410827637,0.2275514304637909,-3.08491587638855
1413393887565760500,-0.03284887224435806,0.033406272530555725,0.08281147480010986,9.532167434692383,-0.433589369058609,-2.9775524139404297
1413393887570760500,-0.018943332135677338,0.02153029851615429,0.06885439157485962,9.205208778381348,-0.5472648739814758,-2.814438819885254
1413393887575760500,0.006822250783443451,0.02778044156730175,0.0744314193725586,9.270126342773438,-0.5715874433517456,-2.9939470291137695
1413393887580760500,0.021461762487888336,0.019503137096762657,0.0695292055606842,9.2950439453125,-0.28658244013786316,-3.068310260772705
1413393887585760500,0.02709529548883438,0.007868999615311623,0.0750497579574585,9.532326698303223,0.3089686632156372,-3.4121148586273193
1413393887590760500,0.0027644112706184387,0.03715277463197708,0.07029907405376434,9.581517219543457,0.42299237847328186,-3.1018636226654053
1413393887595760500,-0.027861349284648895,0.02809622697532177,0.06680051982402802,9.622565269470215,0.4067274034023285,-3.1426875591278076
1413393887600760500,-0.03483644872903824,0.04034838825464249,0.059804994612932205,10.013970375061035,-0.5149558186531067,-3.3856844902038574
1413393887605760500,-0.00914839655160904,0.019386978819966316,0.06742717325687408,9.507865905761719,-0.645587682723999,-2.8225862979888916
1413393887610760500,0.015198953449726105,0.05017769709229469,0.08354045450687408,9.351710319519043,-0.2862033247947693,-3.1656525135040283
1413393887615760500,0.032552771270275116,0.056528881192207336,0.124041348695755,8.94300365447998,0.01526758074760437,-2.831409454345703
1413393887620760500,0.022755317389965057,0.0348968431353569,0.1525651514530182,8.99193286895752,-0.03401311859488487,-2.95369553565979
1413393887625760500,0.022834189236164093,0.05780722200870514,0.14282108843326569,9.43371295928955,-0.2463681548833847,-2.953050136566162
1413393887630760500,0.01581772416830063,0.03141620010137558,0.11841815710067749,8.877882957458496,-0.0583222322165966,-2.798825263977051
1413393887635760500,0.0005353465676307678,0.02395978756248951,0.10862143337726593,9.139822959899902,0.48015832901000977,-3.0609941482543945
1413393887640760500,-0.03982891887426376,0.05032171308994293,0.08155356347560883,9.075008392333984,0.20288841426372528,-2.6766419410705566
1413393887645760500,-0.05168939381837845,0.032740332186222076,0.05285823717713356,9.180378913879395,-0.4896259903907776,-2.9611518383026123
1413393887650760500,-0.020261235535144806,0.03046352230012417,0.023565668612718582,9.024426460266113,-1.0753241777420044,-2.7157883644104004
1413393887655760500,0.015183381736278534,0.010473893955349922,0.0318884439766407,8.641127586364746,-0.30219244956970215,-2.652117967605591
1413393887660760500,0.03058304637670517,0.04815845564007759,0.05008156970143318,9.466801643371582,-0.04194488748908043,-3.027817487716675
1413393887665760500,0.010974176228046417,0.03501444682478905,0.05499811843037605,8.518360137939453,0.17893634736537933,-2.6361334323883057
1413393887670760500,0.012457035481929779,-0.0012926757335662842,0.0680743008852005,9.499882698059082,0.031104538589715958,-3.2160935401916504
1413393887675760500,-0.0007580891251564026,0.03227189928293228,0.06963871419429779,9.393978118896484,0.45520538091659546,-2.7756049633026123
1413393887680760500,-0.009259544312953949,0.0037693213671445847,0.13365362584590912,9.172646522521973,0.5451081395149231,-3.1265060901641846
1413393887685760500,-0.03912610560655594,0.032754361629486084,0.10931718349456787,9.549156188964844,-0.17336487770080566,-2.839082956314087
1413393887690760500,-0.01969210058450699,-0.01617310382425785,0.10850502550601959,9.401487350463867,-0.629815399646759,-2.9776337146759033
1413393887695760500,6.876885890960693e-06,0.0033750291913747787,0.07225967943668365,10.195481300354004,-0.40219640731811523,-3.0683529376983643
1413393887700760500,0.009640835225582123,-0.008217567577958107,0.10780082643032074,9.524699211120605,0.23438270390033722,-3.093858242034912
1413393887705760500,-0.0076842233538627625,0.04172617197036743,0.06746910512447357,9.989696502685547,-0.49878332018852234,-3.2959530353546143
1413393887710760500,0.011752314865589142,0.0069223809987306595,0.06883928179740906,8.928849220275879,-0.31185418367385864,-2.2765777111053467
1413393887715760500,0.025827594101428986,0.00615299679338932,0.05273977294564247,10.358620643615723,-0.44211140275001526,-3.435807704925537
1413393887720760500,0.02072068303823471,0.03523751348257065,0.06687124073505402,8.894879341125488,0.8232147097587585,-2.833188056945801
1413393887725760500,0.0013363286852836609,0.030902208760380745,0.09534594416618347,9.532083511352539,0.4477061629295349,-3.3056650161743164
1413393887730760500,-0.021721087396144867,0.07604121416807175,0.07814100384712219,8.706855773925781,-0.04080934450030327,-2.463768482208252
1413393887735760500,-0.010637454688549042,-0.0012828614562749863,0.095313161611557,9.017274856567383,0.015000051818788052,-3.011532783508301
1413393887740760500,-0.014042504131793976,0.0439387783408165,0.07585839927196503,9.376067161560059,-0.22890974581241608,-3.288048505783081
1413393887745760500,-0.00928661972284317,0.0251587126404047,0.1086498349905014,8.6731595993042,-0.0983196422457695,-2.9208898544311523
1413393887750760500,-0.014781676232814789,0.0584510862827301,0.08498647809028625,9.0405912399292,-0.6683853268623352,-2.8950674533843994
1413393887755760500,0.0004994049668312073,0.01396149955689907,0.07934688031673431,8.575589179992676,-0.24529819190502167,-2.643615961074829
1413393887760760500,0.020122431218624115,-0.005661288276314735,0.05550171807408333,9.75300121307373,-0.45816484093666077,-3.4032042026519775
1413393887765760500,0.019369982182979584,0.014168815687298775,0.06327930092811584,9.099278450012207,0.3413282036781311,-2.955207347869873
1413393887770760500,0.005585245788097382,0.019595446065068245,0.07646362483501434,9.850646018981934,0.06413128972053528,-3.566572904586792
1413393887775760500,-0.016843058168888092,0.04612627997994423,0.04321371391415596,8.584665298461914,0.12183595448732376,-2.3502755165100098
1413393887780760500,-0.010555185377597809,-0.02226818911731243,0.07571788132190704,9.492274284362793,-0.1409624069929123,-3.0037941932678223
1413393887785760500,-0.018072493374347687,0.010430937632918358,0.04927946999669075,10.06405258178711,-0.24643006920814514,-3.2890193462371826
1413393887790760500,-0.002921156585216522,0.00357821024954319,0.09881226718425751,9.320527076721191,0.1119069904088974,-2.815990924835205
1413393887795760500,-0.013249166309833527,0.04525447636842728,0.08978469669818878,9.99024486541748,-0.27113842964172363,-3.1002719402313232
1413393887800760500,-0.014120273292064667,0.01535387896001339,0.08352555334568024,8.80476188659668,-0.2374274581670761,-2.7251944541931152
1413393887805760500,0.013202033936977386,0.0026234332472085953,0.09038057923316956,10.260337829589844,-0.6382039189338684,-3.2880077362060547
1413393887810760500,0.021427445113658905,0.032848604023456573,0.09958572685718536,9.009014129638672,0.05570271983742714,-2.8074026107788086
1413393887815760500,0.021553270518779755,0.034308165311813354,0.11136211454868317,9.736615180969238,0.34917381405830383,-3.215717315673828
1413393887820760500,-0.006394051015377045,0.05233035236597061,0.08710046112537384,9.082955360412598,-0.04199307784438133,-2.651839256286621
1413393887825760500,-0.007101468741893768,0.01193665899336338,0.08417682349681854,9.238126754760742,-0.025883769616484642,-3.0196526050567627
1413393887830760500,-7.10412859916687e-05,0.027866648510098457,0.0751161128282547,9.646655082702637,-0.25430232286453247,-3.1497247219085693
1413393887835760500,0.0005016699433326721,0.03640725463628769,0.08079348504543304,8.624435424804688,0.16281068325042725,-2.8561980724334717
1413393887840760500,-0.008489854633808136,0.0301336869597435,0.08982065320014954,9.172708511352539,0.22711114585399628,-2.921888828277588
1413393887845760500,-0.021060504019260406,0.031421877443790436,0.06683848798274994,8.788470268249512,-0.16368891298770905,-2.692599058151245
1413393887850760500,-0.011318512260913849,-0.008998246863484383,0.0715821236371994,9.041803359985352,-0.16428756713867188,-3.0440754890441895
1413393887855760500,0.00613827258348465,0.01185632310807705,0.07439155876636505,9.335906982421875,-0.2459007054567337,-3.133634328842163
1413393887860760500,0.010259129106998444,0.002902993932366371,0.07721933722496033,8.78857421875,0.055655043572187424,-2.742471218109131
1413393887865760500,0.007648654282093048,0.01193319819867611,0.07020577788352966,9.778231620788574,0.10402589291334152,-3.085533857345581
1413393887870760500,-0.004333220422267914,0.003601314499974251,0.06327250599861145,8.95236873626709,0.031135935336351395,-2.767000198364258
1413393887875760500,-0.00912737101316452,-0.012447835877537727,0.07780741155147552,9.581642150878906,0.00648722518235445,-3.289499521255493
1413393887880760500,-0.008427165448665619,0.02859317697584629,0.08766515552997589,9.654873847961426,-0.14028124511241913,-3.141611099243164
1413393887885760500,-0.0057370588183403015,0.009053146466612816,0.08346779644489288,9.16424560546875,-0.30293911695480347,-3.019111156463623
1413393887890760500,-0.004866592586040497,0.013922983780503273,0.07717517018318176,10.023914337158203,-0.10050960630178452,-2.9870986938476562
1413393887895760500,-0.0035831257700920105,0.01814899407327175,0.07651592791080475,9.418370246887207,-0.13236269354820251,-2.8889739513397217
1413393887900760500,-0.011189155280590057,0.014667736366391182,0.07369403541088104,9.720625877380371,-0.11595242470502853,-3.1583456993103027
1413393887905760500,-0.0042567625641822815,0.029916537925601006,0.0841822475194931,9.695898056030273,-0.3443100154399872,-3.043327808380127
1413393887910760500,0.012376926839351654,0.022960064932703972,0.09046970307826996,9.147822380065918,-0.3599693179130554,-2.929119348526001
1413393887915760500,0.013879559934139252,0.022384775802493095,0.07302829623222351,9.606401443481445,0.07151149213314056,-3.0037076473236084
1413393887920760500,0.004035197198390961,0.02451922558248043,0.07865948975086212,9.042062759399414,0.10464411973953247,-2.8076584339141846
1413393887925760500,-0.009128235280513763,0.01195189543068409,0.08484803140163422,9.548848152160645,0.06363412737846375,-3.1585853099823
1413393887930760500,-0.010491661727428436,0.048855118453502655,0.09538441896438599,9.670998573303223,0.0393734909594059,-3.141514778137207
1413393887935760500,-0.004402853548526764,0.03907787427306175,0.10102087259292603,8.51752758026123,-0.1955527365207672,-2.896021842956543
1413393887940760500,0.0012820884585380554,0.021574614569544792,0.08766651153564453,9.467206954956055,-0.27914291620254517,-2.9048569202423096
1413393887945760500,0.009614549577236176,0.04955025389790535,0.082191601395607,9.049686431884766,-0.0824158787727356,-2.847773790359497
1413393887950760500,0.006057910621166229,0.004999963566660881,0.0862872451543808,8.722870826721191,0.047818634659051895,-2.831993579864502
1413393887955760500,-0.007690228521823883,0.025896981358528137,0.07163512706756592,9.65491771697998,0.09654010832309723,-3.215668201446533
1413393887960760500,-0.006423644721508026,0.039153534919023514,0.08007402718067169,8.975979804992676,0.04023420065641403,-3.0029525756835938
1413393887965760500,0.003307037055492401,0.0014147888869047165,0.07928703725337982,8.960171699523926,-0.21341156959533691,-2.8235886096954346
1413393887970760500,-4.334002733230591e-05,0.021735766902565956,0.055620986968278885,9.524747848510742,0.14511007070541382,-2.9467992782592773
1413393887975760500,-0.0008685514330863953,0.00782076083123684,0.06957267224788666,8.837821006774902,0.15356725454330444,-2.7262814044952393
1413393887980760500,-0.014584951102733612,0.004242962226271629,0.06321266293525696,9.990861892700195,0.03880922868847847,-3.2079215049743652
1413393887985760500,-0.018843062222003937,0.046733275055885315,0.06612424552440643,9.647283554077148,-0.09151071310043335,-2.8560168743133545
1413393887990760500,-0.010587923228740692,0.004788501188158989,0.08205285668373108,9.336379051208496,-0.4990929067134857,-2.8392326831817627
1413393887995760500,0.0006612762808799744,0.028432859107851982,0.07997919619083405,10.014847755432129,-0.5973524451255798,-2.9939324855804443
1413393888000760500,0.011030234396457672,0.037778615951538086,0.07448284327983856,9.197077751159668,0.13758441805839539,-2.9789505004882812
1413393888005760500,0.016586117446422577,0.003633236512541771,0.08764483034610748,9.271239280700684,0.20199447870254517,-2.930593967437744
1413393888010760500,0.007641755044460297,0.016088487580418587,0.0904153436422348,9.843484878540039,0.07132420688867569,-3.1341402530670166
1413393888015760500,-0.01124342530965805,0.030091071501374245,0.08630229532718658,9.36874008178711,0.09664853662252426,-3.08485746383667
1413393888020760500,-0.009888745844364166,0.004152799025177956,0.10157227516174316,9.467301368713379,-0.2630894184112549,-2.9538772106170654
1413393888025760500,0.0005620643496513367,0.022190911695361137,0.08905281126499176,9.442084312438965,-0.5639956593513489,-2.985750675201416
1413393888030760500,0.001945100724697113,0.011891545727849007,0.07095500826835632,9.009620666503906,-0.13206209242343903,-2.701328992843628
1413393888035760500,0.010329656302928925,0.0015396717935800552,0.08344471454620361,9.328335762023926,0.1614082008600235,-3.044785261154175
1413393888040760500,-0.001514635980129242,0.018270550295710564,0.08141805231571198,9.230172157287598,0.17790119349956512,-2.9221019744873047
1413393888045760500,-0.01408512145280838,0.011252513155341148,0.07302860915660858,9.07448673248291,-0.041817475110292435,-3.0195655822753906
1413393888050760500,-0.014023996889591217,0.02444268949329853,0.0793125331401825,9.467058181762695,-0.09943408519029617,-3.0193839073181152
1413393888055760500,-0.0015570148825645447,0.03485165536403656,0.07726942002773285,8.967720985412598,-0.31041502952575684,-2.9126484394073486
1413393888060760500,0.009629614651203156,0.013955289497971535,0.06953300535678864,9.262815475463867,-0.19728811085224152,-2.897156238555908
1413393888065760500,0.011705003678798676,0.01963741146028042,0.0786285400390625,9.140101432800293,0.09641619771718979,-2.897538661956787
1413393888070760500,0.008240006864070892,0.010586898773908615,0.08555597066879272,9.319974899291992,0.12894374132156372,-3.0527119636535645
1413393888075760500,-0.009092994034290314,0.013387918472290039,0.07718132436275482,9.622397422790527,0.18616722524166107,-3.2241194248199463
1413393888080760500,-0.023048527538776398,0.03565087914466858,0.0800342857837677,9.515804290771484,0.06406951695680618,-3.1418378353118896
1413393888085760500,-0.014092259109020233,0.02647118829190731,0.08141547441482544,9.172029495239258,-0.35957401990890503,-3.075801134109497
1413393888090760500,0.002001948654651642,0.02366642840206623,0.0758092850446701,9.573348999023438,-0.2952744960784912,-3.011016368865967
1413393888095760500,0.013093583285808563,0.02097473479807377,0.07722733914852142,9.13994026184082,-0.07470381259918213,-2.929856777191162
1413393888100760500,0.014555610716342926,0.015407295897603035,0.08205875754356384,9.5816068649292,0.022768337279558182,-3.1341819763183594
1413393888105760500,0.004823796451091766,0.019630299881100655,0.07859095931053162,9.597930908203125,0.1289285570383072,-3.142425298690796
1413393888110760500,-0.014617152512073517,0.04197658598423004,0.06750543415546417,9.687491416931152,0.26822036504745483,-3.2319939136505127
1413393888115760500,-0.017535634338855743,0.04882634058594704,0.08079338073730469,9.197206497192383,-0.15604016184806824,-2.7985355854034424
1413393888120760500,-0.004998452961444855,0.022919097915291786,0.08906173706054688,9.434377670288086,-0.450184166431427,-2.855424165725708
1413393888125760500,0.007516108453273773,0.029986785724759102,0.08771249651908875,9.123571395874023,-0.1888977289199829,-2.823302984237671
1413393888130760500,0.012436933815479279,0.01680179126560688,0.09114208817481995,9.459099769592285,0.03887362778186798,-2.9872121810913086
1413393888135760500,0.011043108999729156,0.023763222619891167,0.08627264201641083,9.434234619140625,-0.025991542264819145,-3.076747417449951
1413393888140760500,-0.014659754931926727,0.027360128238797188,0.07305048406124115,9.565102577209473,0.27615630626678467,-3.175081491470337
1413393888145760500,-0.02379060536623001,0.051659032702445984,0.0717439204454422,9.205389022827148,-0.04174058884382248,-2.839552164077759
1413393888150760500,-0.009219147264957428,0.03480090945959091,0.07936073839664459,8.97586727142334,-0.4733446538448334,-2.846949577331543
1413393888155760500,0.009594745934009552,0.01667180471122265,0.0813969075679779,9.074373245239258,-0.4170188307762146,-2.8230209350585938
1413393888160760500,0.018665067851543427,0.021692605689167976,0.0786387175321579,9.074740409851074,0.014777207747101784,-2.799485921859741
1413393888165760500,0.013820178806781769,0.016120346263051033,0.08067589998245239,9.368792533874512,0.006779798772186041,-3.134065866470337
1413393888170760500,0.000584818422794342,0.01067759282886982,0.07095427811145782,9.230401992797852,0.3573439121246338,-2.914463996887207
1413393888175760500,-0.020931489765644073,0.02527744695544243,0.07236413657665253,9.549026489257812,0.3085862100124359,-3.0691163539886475
1413393888180760500,-0.03427653759717941,0.039742179214954376,0.07519875466823578,9.090940475463867,-0.2862468361854553,-2.7737743854522705
1413393888185760500,-0.012705408036708832,0.004024317488074303,0.09041702747344971,9.237576484680176,-0.7350127696990967,-2.8793416023254395
1413393888190760500,0.015914715826511383,0.012531703338027,0.08554279804229736,9.50811767578125,-0.20581939816474915,-2.995034694671631
1413393888195760500,0.02146805077791214,0.011928575113415718,0.09113691747188568,9.33647346496582,0.047021303325891495,-2.9465444087982178
1413393888200760500,0.009714089334011078,-0.001991037279367447,0.07365582883358002,9.704747200012207,0.11212844401597977,-3.110212564468384
1413393888205760500,-0.006949134171009064,0.0029796957969665527,0.06183074787259102,9.76184368133545,0.33291226625442505,-3.232881784439087
1413393888210760500,-0.022329501807689667,0.04054812341928482,0.06332729756832123,9.524164199829102,0.10494464635848999,-3.0930590629577637
1413393888215760500,-0.019691117107868195,0.020198071375489235,0.0849069207906723,8.97594928741455,-0.36763837933540344,-2.945146322250366
1413393888220760500,-0.00013063102960586548,0.0068503450602293015,0.08483298122882843,9.4669771194458,-0.55617356300354,-2.9370737075805664
1413393888225760500,0.017972148954868317,0.019528327509760857,0.09602616727352142,9.327934265136719,-0.15657886862754822,-3.003091335296631
1413393888230760500,0.016623206436634064,0.016158951446413994,0.0876341164112091,9.458684921264648,0.12917381525039673,-3.2321555614471436
1413393888235760500,0.00480390340089798,0.012023115530610085,0.07649783790111542,9.475492477416992,0.2594362795352936,-3.0856566429138184
1413393888240760500,-0.016709409654140472,0.014098238199949265,0.0709104835987091,9.745035171508789,0.2433939427137375,-3.29766845703125
1413393888245760500,-0.027313970029354095,0.051608819514513016,0.07871633768081665,9.02515983581543,-0.2287992686033249,-2.8471715450286865
1413393888250760500,-0.005044601857662201,0.029168231412768364,0.0925794243812561,9.098358154296875,-0.6040545701980591,-2.8793351650238037
1413393888255760500,0.01934870332479477,0.018067741766572,0.09812936186790466,9.172736167907715,-0.32787024974823,-2.78239369392395
1413393888260760500,0.027038536965847015,0.02236507274210453,0.08906373381614685,9.311635971069336,-0.026047179475426674,-3.0034234523773193
1413393888265760500,0.015230990946292877,0.022479841485619545,0.07860693335533142,9.37700366973877,0.24348309636116028,-3.1425364017486572
1413393888270760500,-0.013271383941173553,0.01761523261666298,0.048640791326761246,9.483662605285645,0.243497833609581,-3.1101431846618652
1413393888275760500,-0.0223536416888237,0.03641120344400406,0.05496634915471077,9.352543830871582,0.17856739461421967,-3.060636043548584
1413393888280760500,-0.02241482585668564,0.04812750220298767,0.06267964839935303,9.001167297363281,-0.22901137173175812,-2.6760828495025635
1413393888285760500,-0.007127784192562103,0.020827488973736763,0.09048083424568176,8.992701530456543,-0.5146746039390564,-2.6838185787200928
1413393888290760500,0.008951328694820404,0.009196192026138306,0.09878996014595032,9.46728515625,0.20199885964393616,-3.0364696979522705
1413393888295760500,0.00405699759721756,0.01969252899289131,0.08699953556060791,9.246498107910156,0.2757565975189209,-2.922250986099243
1413393888300760500,-0.012595750391483307,0.011208197101950645,0.07089255750179291,9.622082710266113,-0.0991697683930397,-3.3216030597686768
1413393888305760500,-0.010512806475162506,0.015366608276963234,0.07788780331611633,9.639050483703613,-0.09981989860534668,-3.0277676582336426
1413393888310760500,0.0034042522311210632,0.0402776300907135,0.07094798982143402,9.711575508117676,-0.7023163437843323,-3.0261850357055664
1413393888315760500,0.03330305963754654,0.04379027336835861,0.0995660275220871,9.172218322753906,-0.555451512336731,-2.7408828735351562
1413393888320760500,0.0520811453461647,0.006271032616496086,0.11410638689994812,9.360928535461426,-0.10003960132598877,-2.9790542125701904
1413393888325760500,0.020885996520519257,0.030248301103711128,0.09396588802337646,9.761459350585938,0.6839271783828735,-3.2164230346679688
1413393888330760500,-0.03352334350347519,0.022726796567440033,0.0654575526714325,9.279755592346191,0.8884912729263306,-3.1434879302978516
1413393888335760500,-0.05161551386117935,0.023166663944721222,0.06399787962436676,9.385329246520996,0.14585891366004944,-3.1176748275756836
1413393888340760500,-0.055817462503910065,0.041106000542640686,0.04868221655488014,9.361115455627441,-0.4820709228515625,-2.708300828933716
1413393888345760500,-0.018301673233509064,0.007528891786932945,0.07929052412509918,8.951057434082031,-0.7505782246589661,-2.88737416267395
1413393888350760500,0.03814258426427841,0.01523418165743351,0.11482919752597809,9.31972599029541,-0.4014129638671875,-2.9047091007232666
1413393888355760500,0.045820750296115875,0.009229857474565506,0.10922916233539581,9.336223602294922,0.2756405770778656,-3.1183080673217773
1413393888360760500,0.014566592872142792,0.022525604814291,0.08628101646900177,9.54076099395752,0.43903034925460815,-3.1102049350738525
1413393888365760500,-0.010489948093891144,0.027243321761488914,0.0716337114572525,9.654804229736328,-0.05024436116218567,-3.2317066192626953
1413393888370760500,-0.01189575344324112,0.045994244515895844,0.05077653005719185,9.548881530761719,-0.30309367179870605,-2.8721141815185547
1413393888375760500,0.011692874133586884,0.039108745753765106,0.08148595690727234,8.927353858947754,-0.025537164881825447,-2.7256381511688232
1413393888380760500,0.006165064871311188,0.03368781507015228,0.08073198795318604,9.270452499389648,0.3663753569126129,-3.207662343978882
1413393888385760500,-0.03351394087076187,0.05042731761932373,0.06966444849967957,9.20517349243164,0.4401263892650604,-3.085075855255127
1413393888390760500,-0.05441244691610336,0.028742089867591858,0.07237224280834198,9.35236930847168,0.16234147548675537,-3.1582820415496826
1413393888395760500,-0.05023115128278732,0.04239479452371597,0.06052306666970253,9.3195161819458,-0.8644849061965942,-2.6503450870513916
1413393888400760500,-0.005020461976528168,0.029123859480023384,0.076566681265831,8.632135391235352,-0.8554481863975525,-2.6259584426879883
1413393888405760500,0.04650101810693741,-0.0029778946191072464,0.09106647968292236,9.278572082519531,-0.6863551139831543,-2.9371612071990967
1413393888410760500,0.052110545337200165,-0.002003459259867668,0.0757511556148529,9.29576301574707,0.07140868902206421,-2.955251693725586
1413393888415760500,0.03685619682073593,0.0008424296975135803,0.07226838171482086,9.59847354888916,0.2508355379104614,-3.0615737438201904
1413393888420760500,0.005528874695301056,0.0023138225078582764,0.08486445248126984,9.639610290527344,0.503598153591156,-2.939281702041626
1413393888425760500,-0.016128145158290863,0.016248401254415512,0.0960819274187088,9.34498405456543,0.45500800013542175,-2.840860605239868
1413393888430760500,-0.04612787812948227,0.004478137940168381,0.08630906045436859,9.083375930786133,0.5126768946647644,-2.9552295207977295
1413393888435760500,-0.06276480108499527,0.00765240378677845,0.07578112185001373,9.769611358642578,-0.3525811731815338,-3.1249611377716064
1413393888440760500,-0.05308764427900314,0.017370542511343956,0.05072619393467903,9.15610408782959,-0.6039084196090698,-2.8632147312164307
1413393888445760500,0.00684405118227005,0.012326141819357872,0.08900630474090576,9.605210304260254,-0.89814293384552,-2.985135555267334
1413393888450760500,0.04304894059896469,0.03696584701538086,0.09048675000667572,9.262367248535156,-0.11556083709001541,-2.9623470306396484
1413393888455760500,0.05556675046682358,0.029412293806672096,0.10719682276248932,9.246025085449219,0.2023947536945343,-3.0445282459259033
1413393888460760500,0.024273552000522614,0.04337300360202789,0.059842515736818314,9.204992294311523,0.15430377423763275,-3.093230962753296
1413393888465760500,0.011056028306484222,0.014163780957460403,0.08207671344280243,9.40992259979248,0.3739031255245209,-3.1510138511657715
1413393888470760500,0.0033989623188972473,0.028013654053211212,0.08838684856891632,9.450705528259277,0.18607303500175476,-3.0362179279327393
1413393888475760500,-0.02181733399629593,0.02744784764945507,0.0919477790594101,8.641168594360352,0.4889838993549347,-2.8893649578094482
1413393888480760500,-0.04818486422300339,0.005679609254002571,0.08904020488262177,9.377079963684082,-0.017796333879232407,-3.1092469692230225
1413393888485760500,-0.0579773411154747,0.006945798173546791,0.05627741292119026,9.23755168914795,-0.5144850015640259,-3.1083335876464844
1413393888490760500,-0.0035995468497276306,-0.002948308363556862,0.0820140391588211,9.573424339294434,-0.6624033451080322,-2.879855155944824
1413393888495760500,0.022919483482837677,0.01100696437060833,0.07993237674236298,9.990077018737793,-0.5888146758079529,-3.329007387161255
1413393888500760500,0.03051527589559555,0.05167068541049957,0.07733942568302155,8.88642692565918,0.047883469611406326,-2.636026620864868
1413393888505760500,0.013879455626010895,0.021645313128829002,0.06951990723609924,9.663169860839844,-0.0830574631690979,-3.21560001373291
1413393888510760500,0.009000889956951141,0.04117361456155777,0.07724200189113617,9.61390495300293,-0.04214984178543091,-3.141808032989502
1413393888515760500,0.028467871248722076,0.028684163466095924,0.1113673597574234,9.573351860046387,0.2101464569568634,-3.0443716049194336
1413393888520760500,0.003404967486858368,0.0894450917840004,0.10319027304649353,9.269482612609863,0.4649445116519928,-3.198622226715088
1413393888525760500,-0.029440082609653473,0.053804367780685425,0.0997178852558136,8.731254577636719,0.2522731423377991,-2.5949718952178955
1413393888530760500,-0.05303134769201279,0.029312508180737495,0.061191339045763016,9.466032981872559,-0.26157018542289734,-3.410621404647827
1413393888535760500,-0.023101679980754852,0.055710338056087494,0.07103297114372253,9.196822166442871,-0.5059773921966553,-2.76507830619812
1413393888540760500,0.013758458197116852,0.026363911107182503,0.08489173650741577,9.1144380569458,-0.6447218656539917,-2.993744373321533
1413393888545760500,0.027017109096050262,0.04184877127408981,0.07661919295787811,8.60824203491211,-0.21253275871276855,-2.5457797050476074
1413393888550760500,0.01794935017824173,-0.007631612941622734,0.05347359552979469,8.657917022705078,-0.18083496391773224,-2.5627620220184326
1413393888555760500,0.018833033740520477,-0.01243756152689457,0.056181419640779495,9.909056663513184,0.14510707557201385,-3.3472228050231934
1413393888560760500,0.016663722693920135,0.024688635021448135,0.07305394113063812,9.516246795654297,0.6025253534317017,-3.1675946712493896
1413393888565760500,-0.0015406087040901184,0.03223245590925217,0.1093934178352356,9.15667724609375,0.43063923716545105,-2.6528236865997314
1413393888570760500,-0.035660989582538605,0.04189334809780121,0.08220241963863373,9.09960651397705,-0.02571057714521885,-2.6681602001190186
1413393888575760500,-0.03146802634000778,-0.006303871050477028,0.07227291166782379,9.451096534729004,-0.3770729601383209,-2.9212515354156494
1413393888580760500,-0.005641169846057892,0.023606853559613228,0.0813700407743454,9.826528549194336,-0.4665412902832031,-3.149240255355835
1413393888585760500,0.00895708054304123,0.018112564459443092,0.10857650637626648,9.59860610961914,-0.05975969135761261,-2.7909202575683594
1413393888590760500,0.008274607360363007,0.029956264421343803,0.09742981195449829,9.646997451782227,-0.17325739562511444,-3.0110023021698
1413393888595760500,-0.002156756818294525,0.025692174211144447,0.06326550245285034,9.44307804107666,-0.5236000418663025,-2.635206937789917
1413393888600760500,0.013865254819393158,0.025042327120900154,0.049312565475702286,9.646688461303711,-0.37636420130729675,-3.1579999923706055
1413393888605760500,0.0285278782248497,0.010452019050717354,0.06743258237838745,9.672831535339355,-0.002974440110847354,-2.636502504348755
1413393888610760500,0.010396771132946014,0.02511669136583805,0.07792690396308899,9.62326431274414,-0.010631158016622066,-2.7667672634124756
1413393888615760500,-0.011943824589252472,0.05446609854698181,0.07108992338180542,9.075109481811523,0.08852049708366394,-2.5786657333374023
1413393888620760500,-0.01756032556295395,0.012671168893575668,0.08696091175079346,9.172425270080566,0.03975529223680496,-3.1501212120056152
1413393888625760500,-0.007042445242404938,0.023168211802840233,0.11412423849105835,9.556358337402344,0.26798081398010254,-3.346073627471924
1413393888630760500,-0.018264062702655792,0.025140343233942986,0.11556413769721985,9.319341659545898,-0.09109466522932053,-3.108736515045166
1413393888635760500,-0.020355813205242157,0.03764398396015167,0.08145648241043091,9.106790542602539,-0.3023972511291504,-2.9451403617858887
1413393888640760500,0.015855051577091217,-0.000807126984000206,0.08135227859020233,8.992668151855469,-0.547502875328064,-2.7577104568481445
1413393888645760500,0.034743376076221466,0.0077475327998399734,0.08621150255203247,9.581696510314941,0.06346363574266434,-3.158936023712158
1413393888650760500,0.009652487933635712,0.03014189936220646,0.075860396027565,9.295345306396484,0.2434099316596985,-2.9955861568450928
1413393888655760500,-0.016777224838733673,0.061433590948581696,0.051518041640520096,9.392573356628418,-0.016537470743060112,-3.247567892074585
1413393888660760500,0.0025898441672325134,0.002163747325539589,0.06958113610744476,8.404483795166016,-0.03385394439101219,-2.3911609649658203
1413393888665760500,0.012519381940364838,0.024567585438489914,0.09811130166053772,9.769645690917969,0.3980259895324707,-3.158931016921997
1413393888670760500,-0.01889241486787796,0.06973385810852051,0.06896333396434784,9.384404182434082,-0.1962168961763382,-3.083779811859131
1413393888675760500,-0.022457875311374664,0.022225139662623405,0.08005711436271667,8.608406066894531,-0.6195752620697021,-2.5284416675567627
1413393888680760500,0.024247340857982635,0.015254253521561623,0.09599655866622925,9.49953842163086,-0.39311909675598145,-3.0680034160614014
1413393888685760500,0.0068219974637031555,0.014941481873393059,0.09743095934391022,9.238182067871094,0.5617132186889648,-3.1429622173309326
1413393888690760500,-0.03208542615175247,0.03975764662027359,0.05424417927861214,9.638219833374023,-0.21306796371936798,-3.206742286682129
1413393888695760500,-0.00991048663854599,-0.018195806071162224,0.058325473219156265,8.592684745788574,-0.5635111331939697,-2.447681427001953
1413393888700760500,0.0257582888007164,0.022984830662608147,0.06464254856109619,9.860090255737305,-0.12457900494337082,-2.9872372150421143
1413393888705760500,0.006913043558597565,0.01630842313170433,0.07509353756904602,9.532286643981934,0.5131288766860962,-3.4039885997772217
1413393888710760500,-0.02797011286020279,0.026495764032006264,0.05425256863236427,9.091910362243652,-0.3031299114227295,-2.5293822288513184
1413393888715760500,0.013832174241542816,-0.003015877678990364,0.09036029875278473,9.753059387207031,-0.8336055278778076,-2.903981924057007
1413393888720760500,0.03398642688989639,0.011491418816149235,0.11410190165042877,9.417975425720215,0.6516788005828857,-3.428705930709839
1413393888725760500,-0.009687088429927826,0.062107644975185394,0.08428415656089783,9.998619079589844,0.25926053524017334,-2.9867238998413086
1413393888730760500,-0.0294356569647789,0.029855957254767418,0.09048859775066376,9.187931060791016,-0.7017589211463928,-3.0258028507232666
1413393888735760500,0.012377522885799408,0.04398106411099434,0.10314859449863434,8.854070663452148,0.08834175765514374,-2.497088670730591
1413393888740760500,0.0036896392703056335,0.05648135393857956,0.10232096910476685,10.487983703613281,0.22728849947452545,-3.671755313873291
1413393888745760500,-0.023114599287509918,0.048091769218444824,0.056444887071847916,8.404372215270996,-0.41510501503944397,-2.3899967670440674
1413393888750760500,0.004017762839794159,0.013242492452263832,0.06189500167965889,8.739323616027832,-0.3268946707248688,-2.676368474960327
1413393888755760500,0.03638901561498642,0.040500152856111526,0.10852628946304321,10.463872909545898,0.36579379439353943,-3.647740125656128
1413393888760760500,-0.009880177676677704,0.07954619824886322,0.060021091252565384,8.428230285644531,-0.05633438006043434,-2.5617096424102783
1413393888765760500,-0.014749057590961456,-0.009811477735638618,0.03462259843945503,8.919770240783691,-0.5229275822639465,-2.6030049324035645
1413393888770760500,0.01532077044248581,0.012100433930754662,0.09734813868999481,9.818099021911621,0.5375521779060364,-3.640554666519165
1413393888775760500,-0.007813133299350739,0.07740145176649094,0.07044638693332672,8.50118637084961,-0.27616679668426514,-2.7895889282226562
1413393888780760500,-0.038434065878391266,0.016691943630576134,0.023551303893327713,8.731572151184082,-0.5869499444961548,-2.5453357696533203
1413393888785760500,0.009760372340679169,0.0106426440179348,0.10500609874725342,9.891895294189453,0.40649545192718506,-3.485363245010376
1413393888790760500,0.011682160198688507,0.0710846334695816,0.11082930862903595,8.951027870178223,-0.29398396611213684,-2.7815706729888916
1413393888795760500,-0.005660034716129303,0.009623145684599876,0.06324413418769836,8.813426971435547,-0.783149242401123,-2.3819756507873535
1413393888800760500,0.017871655523777008,-0.03383568674325943,0.0959332138299942,8.944436073303223,0.5282940864562988,-3.00483775138855
1413393888805760500,0.012510009109973907,0.009980626404285431,0.11618000268936157,9.826967239379883,0.5366286635398865,-3.257106065750122
1413393888810760500,-0.025843240320682526,0.012372149154543877,0.06252233684062958,9.573095321655273,-0.8574802279472351,-2.748727798461914
1413393888815760500,-0.016912288963794708,-0.0285190436989069,0.04994267597794533,8.706871032714844,-0.22131377458572388,-2.815575122833252
1413393888820760500,0.008512578904628754,0.010573796927928925,0.09246313571929932,10.34216022491455,0.4307515323162079,-3.4772472381591797
1413393888825760500,-0.009821973741054535,0.03475744277238846,0.09953971207141876,9.713112831115723,-0.3859215974807739,-2.6675844192504883
1413393888830760500,-0.011358536779880524,-0.00975864939391613,0.04858787730336189,8.509965896606445,-0.37527525424957275,-2.871926784515381
1413393888835760500,0.030705295503139496,-0.0034040044993162155,0.11610515415668488,10.285511016845703,0.31572628021240234,-3.2895829677581787
1413393888840760500,0.0034439638257026672,0.0571608692407608,0.10792244970798492,9.809446334838867,-0.12364732474088669,-3.3532280921936035
1413393888845760500,-0.012057892978191376,0.021679403260350227,0.061966557055711746,7.986705303192139,-0.0730864405632019,-2.43117094039917
1413393888850760500,0.01670122891664505,0.010634779930114746,0.1112867146730423,9.859506607055664,0.4062027931213379,-3.33854603767395
1413393888855760500,-0.0014042332768440247,0.06487692147493362,0.09123168885707855,9.768797874450684,0.039618607610464096,-3.214770793914795
1413393888860760500,-0.026621930301189423,0.03626541793346405,0.014570984989404678,7.733193874359131,-0.20214007794857025,-2.3326938152313232
1413393888865760500,-0.00203830748796463,-0.017896516248583794,0.07988116145133972,9.982967376708984,0.49580109119415283,-3.3394241333007812
1413393888870760500,-0.00769408792257309,0.04261068254709244,0.08491431176662445,9.662827491760254,0.09664356708526611,-3.1989500522613525
1413393888875760500,-0.0244707390666008,0.04878668487071991,0.03202025964856148,8.543684005737305,-0.46400508284568787,-2.3739147186279297
1413393888880760500,0.004071570932865143,-0.014493083581328392,0.08617950975894928,9.442916870117188,0.1449340283870697,-3.1347289085388184
1413393888885760500,0.02358696609735489,0.021538643166422844,0.11690421402454376,9.802168846130371,-0.2956804037094116,-3.1821959018707275
1413393888890760500,-0.0014314129948616028,0.04802697151899338,0.061266396194696426,8.691100120544434,-0.6600487232208252,-2.2187206745147705
1413393888895760500,0.005713768303394318,0.005003837868571281,0.08687186241149902,10.276534080505371,0.38194289803504944,-3.5670816898345947
1413393888900760500,0.004121758043766022,0.03631758317351341,0.11833693087100983,9.728299140930176,0.11244350671768188,-3.1906514167785645
1413393888905760500,-0.03701292723417282,0.059134334325790405,0.044525209814310074,9.473760604858398,-0.7826525568962097,-3.090895891189575
1413393888910760500,-0.030004777014255524,0.029411595314741135,0.03681521490216255,9.409802436828613,0.03991512209177017,-3.1095736026763916
1413393888915760500,0.006085522472858429,0.01259576715528965,0.10510340332984924,9.074462890625,-0.08310361206531525,-2.913344144821167
1413393888920760500,-0.0062584951519966125,0.045754775404930115,0.056995902210474014,9.922308921813965,-1.2964270114898682,-3.0329277515411377
1413393888925760500,-0.00014666467905044556,0.028759362176060677,0.03607994690537453,8.959559440612793,0.14699102938175201,-3.3214282989501953
1413393888930760500,0.03732914477586746,0.016258172690868378,0.13723987340927124,8.714517593383789,0.5121747255325317,-2.7021656036376953
1413393888935760500,0.010431163012981415,0.025579025968909264,0.09669394791126251,10.080025672912598,-0.8665553331375122,-2.789397954940796
1413393888940760500,-0.009100012481212616,0.035726048052310944,0.06124894693493843,9.450932502746582,0.28417277336120605,-2.9629955291748047
1413393888945760500,0.035346828401088715,0.007679848000407219,0.15316003561019897,9.483721733093262,0.0705782100558281,-2.8727104663848877
1413393888950760500,-0.014031954109668732,0.021579748019576073,0.08277477324008942,9.572891235351562,-0.3357655107975006,-3.1902709007263184
1413393888955760500,-0.0286763533949852,0.04775945469737053,0.06555278599262238,9.009625434875488,0.8316701650619507,-2.849327564239502
1413393888960760500,0.003390677273273468,0.002033030614256859,0.1552000492811203,10.064165115356445,-0.2148427516222,-3.2718663215637207
1413393888965760500,-0.03002365678548813,0.06678949296474457,0.0689251720905304,9.824973106384277,-0.7913565039634705,-3.360018491744995
1413393888970760500,-0.016841895878314972,0.08520663529634476,0.06772507727146149,8.665544509887695,0.31829634308815,-2.603139877319336
1413393888975760500,0.036834217607975006,0.04442007094621658,0.13230697810649872,9.565271377563477,-0.6788270473480225,-2.593564748764038
1413393888980760500,0.013819865882396698,0.0549117773771286,0.05358066037297249,9.212212562561035,-0.7987050414085388,-2.936123847961426
1413393888985760500,0.021478407084941864,0.048337727785110474,0.05645446851849556,8.960144996643066,0.5048201084136963,-2.636807680130005
1413393888990760500,0.03900507837533951,0.023709824308753014,0.10155187547206879,10.039536476135254,0.014254122972488403,-3.2726798057556152
1413393888995760500,-0.00565684586763382,0.08115048706531525,0.026501629501581192,8.92672348022461,0.5472376942634583,-3.1336569786071777
1413393889000760500,-0.01766837388277054,0.03720198571681976,0.09833207726478577,8.436933517456055,0.6929779052734375,-2.4981114864349365
1413393889005760500,-0.03266335278749466,0.03490952402353287,0.07163794338703156,9.989235877990723,0.03175561875104904,-3.590606689453125
1413393889010760500,-0.05451633781194687,0.07465451210737228,0.044669974595308304,7.994904518127441,0.12414120882749557,-2.69990873336792
1413393889015760500,-0.019016273319721222,-0.013993853703141212,0.09880107641220093,8.756470680236816,-0.3931374251842499,-2.4557554721832275
1413393889020760500,-0.015470124781131744,0.02357991598546505,0.07580238580703735,9.522987365722656,-0.6940355896949768,-3.3446474075317383
1413393889025760500,0.0004849955439567566,0.007694883272051811,0.0793524980545044,8.215953826904297,-0.22884300351142883,-2.3905317783355713
1413393889030760500,0.034039370715618134,-0.03996327519416809,0.10213373601436615,10.138365745544434,-0.7042957544326782,-2.978325128555298
1413393889035760500,0.027823172509670258,0.050096169114112854,0.04936385527253151,9.712141036987305,-0.4417528212070465,-2.9210050106048584
1413393889040760500,0.038184069097042084,-0.012459108605980873,0.0751412957906723,8.985761642456055,0.3235602080821991,-2.269465923309326
1413393889045760500,0.010106272995471954,-0.011880790814757347,0.05896228924393654,11.046428680419922,0.16983479261398315,-3.7877755165100098
1413393889050760500,-0.03001699596643448,0.11516641825437546,0.023848745971918106,8.624495506286621,0.24581806361675262,-2.7331953048706055
1413393889055760500,-0.02516486495733261,0.00841698981821537,0.06953544914722443,9.45976734161377,-0.08375323563814163,-2.8075385093688965
1413393889060760500,-0.03192766755819321,0.08155432343482971,0.06339500844478607,10.16116714477539,-0.058057114481925964,-3.320561408996582
1413393889065760500,-0.02249271422624588,0.04046308621764183,0.10323381423950195,8.086101531982422,0.016132963821291924,-1.9575178623199463
1413393889070760500,-0.005722202360630035,-0.03365878760814667,0.11611784994602203,9.876277923583984,-0.7203422784805298,-3.0430188179016113
1413393889075760500,0.010264880955219269,0.05081254243850708,0.10516269505023956,9.171156883239746,-0.522300124168396,-3.2301650047302246
1413393889080760500,0.038044847548007965,-0.0062623899430036545,0.13016650080680847,8.771595001220703,-0.1647961288690567,-2.856212615966797
1413393889085760500,0.031376950442790985,-0.008413420990109444,0.10566982626914978,10.351421356201172,-0.027595622465014458,-3.109816074371338
1413393889090760500,0.029070444405078888,0.04541730135679245,0.09963531792163849,8.746973037719727,0.07258183509111404,-2.774606227874756
1413393889095760500,0.02435927838087082,-0.01319599337875843,0.0973043143749237,9.966780662536621,0.10337649285793304,-3.118377447128296
1413393889100760500,-0.006859324872493744,0.014802629128098488,0.06326736509799957,10.056406021118164,0.4388262629508972,-3.1838815212249756
1413393889105760500,-0.020151160657405853,0.02321752719581127,0.0696135014295578,9.827680587768555,0.5692919492721558,-2.9226865768432617
1413393889110760500,-0.04306710511445999,0.03346269577741623,0.05214862897992134,10.326905250549316,-0.018884340301156044,-2.897374153137207
1413393889115760500,-0.014748729765415192,0.08089637756347656,0.10034343600273132,9.252540588378906,-0.1955142617225647,-3.5077712535858154
1413393889120760500,-0.0007899180054664612,0.10513261705636978,0.11364667117595673,9.38381290435791,-0.7336847186088562,-2.812746047973633
1413393889125760500,0.008889786899089813,0.09406931698322296,0.10743683576583862,8.54936695098877,-0.5123512744903564,-2.8622729778289795
1413393889130760500,0.04158402234315872,0.08526784181594849,0.12273532152175903,8.508743286132812,0.28592339158058167,-3.04339337348938
1413393889135760500,0.019413016736507416,0.009049845859408379,0.10444009304046631,9.395005226135254,0.09478364139795303,-2.3419299125671387
1413393889140760500,-0.0002821609377861023,0.012084798887372017,0.09320919215679169,8.452592849731445,0.3596961796283722,-3.533154010772705
1413393889145760500,-0.023867659270763397,-0.006192175671458244,0.07305371761322021,8.764911651611328,-0.02631412446498871,-2.4810421466827393
1413393889150760500,-0.032166384160518646,-0.03681839257478714,0.042913246899843216,9.22997760772705,-0.10717673599720001,-3.363046169281006
1413393889155760500,0.003356926143169403,-0.025821378454566002,0.07290680706501007,9.467307090759277,-0.3281424343585968,-3.1259098052978516
1413393889160760500,-0.008301101624965668,-0.020893441513180733,0.035280171781778336,10.082086563110352,-0.03569481521844864,-2.865854263305664
1413393889165760500,0.01805039495229721,0.040130048990249634,0.0787101686000824,9.540817260742188,0.9373347163200378,-3.2086055278778076
1413393889170760500,-0.000718630850315094,0.062062911689281464,0.06409706175327301,9.508926391601562,-0.02645343914628029,-2.472249984741211
1413393889175760500,-0.0023498758673667908,0.04360112547874451,0.0982438325881958,8.542978286743164,0.7914172410964966,-3.0445542335510254
1413393889180760500,-0.00268564373254776,0.10096705704927444,0.10803322494029999,10.577737808227539,-0.5068187117576599,-3.6130599975585938
1413393889185760500,-0.0159975066781044,0.051042214035987854,0.07662294805049896,8.20266056060791,-0.5619493722915649,-1.4428679943084717
1413393889190760500,0.034673042595386505,-0.005661288276314735,0.12592241168022156,9.572705268859863,-0.5811560750007629,-3.8931429386138916
1413393889195760500,0.01958068460226059,0.047925084829330444,0.05768560245633125,9.483490943908691,-0.9627168774604797,-2.3328473567962646
1413393889200760500,0.019659049808979034,-0.0881977528333664,0.0929490476846695,7.766479969024658,0.6514144539833069,-2.978506326675415
1413393889205760500,-0.007417567074298859,0.017302265390753746,0.05279884114861488,11.242809295654297,-0.4190704822540283,-2.9716567993164062
1413393889210760500,-0.03999415785074234,-0.01368209533393383,0.04802403226494789,8.143244743347168,0.7172014713287354,-2.2123794555664062
1413393889215760500,-0.005225710570812225,0.03492409735918045,0.08790355920791626,12.258689880371094,-0.8890954852104187,-4.128515720367432
1413393889220760500,-0.02085893601179123,0.05237230658531189,0.05016588047146797,8.88076400756836,-0.09831475466489792,-1.62117600440979
1413393889225760500,0.028862662613391876,0.023735420778393745,0.10640610754489899,10.82215404510498,-0.09201612323522568,-4.8796916007995605
1413393889230760500,0.001494772732257843,0.15754644572734833,0.019668463617563248,9.458874702453613,-0.48031970858573914,-2.3079352378845215
1413393889235760500,0.017033256590366364,0.01855754666030407,0.11067035794258118,8.306251525878906,0.8409719467163086,-3.460440158843994
1413393889240760500,-0.005533955991268158,0.1496908813714981,0.04680706933140755,9.660160064697266,-1.0739991664886475,-2.909752368927002
1413393889245760500,0.001557774841785431,-0.011188352480530739,0.09946979582309723,6.408792972564697,0.8500862121582031,-1.6479343175888062
1413393889250760500,0.011860616505146027,0.033289678394794464,0.10022726655006409,10.578754425048828,-0.8009361624717712,-3.360495090484619
1413393889255760500,0.00802920013666153,-0.031372249126434326,0.10375584661960602,7.192733287811279,0.5535587072372437,-1.305757999420166
1413393889260760500,0.03688966482877731,-0.08083751052618027,0.14463187754154205,10.18913745880127,-0.804021418094635,-4.523800849914551
1413393889265760500,0.0067771002650260925,0.02299213781952858,0.07465535402297974,7.765419006347656,0.5718052983283997,-1.4684308767318726
1413393889270760500,0.022449098527431488,-0.05358763039112091,0.11594186723232269,10.578237533569336,0.09525999426841736,-4.59585428237915
1413393889275760500,-0.04877520352602005,0.06426841020584106,-0.0014031343162059784,9.05210018157959,0.015709398314356804,-2.080043077468872
1413393889280760500,-0.00783238559961319,-0.02201216109097004,0.11194056272506714,9.287269592285156,0.47196540236473083,-3.461418628692627
1413393889285760500,-0.02359239012002945,0.08209320157766342,0.020866427570581436,9.571985244750977,-1.0831737518310547,-2.5769381523132324
1413393889290760500,0.025399886071681976,-0.02635500393807888,0.09947517514228821,7.667355060577393,0.12121612578630447,-2.366269588470459
1413393889295760500,0.04175705462694168,0.02348378859460354,0.03741495683789253,9.711801528930664,-0.8325627446174622,-2.855311393737793
1413393889300760500,0.04774201661348343,-0.05540182441473007,0.08406804502010345,8.617474555969238,0.7886262536048889,-2.6054866313934326
1413393889305760500,0.014614082872867584,-0.031165296211838722,0.04289088025689125,9.680333137512207,0.27584925293922424,-3.3803279399871826
1413393889310760500,-0.008012346923351288,-0.05341740697622299,0.10160669684410095,8.347663879394531,0.5847311019897461,-2.343445301055908
1413393889315760500,-0.027948223054409027,-0.059328168630599976,0.08608222007751465,9.966611862182617,-0.4676993787288666,-3.264695644378662
1413393889320760500,-0.03340744227170944,-0.04189915210008621,0.07844698429107666,10.342449188232422,-0.4428621530532837,-3.566652297973633
1413393889325760500,-0.009315215051174164,-0.036831945180892944,0.08622632920742035,8.510906219482422,0.03877958282828331,-2.587425470352173
1413393889330760500,0.004767455160617828,-0.016900213435292244,0.07291087508201599,9.87560749053955,-0.8830522894859314,-3.8276331424713135
1413393889335760500,0.0024659112095832825,-0.013067042455077171,0.07313868403434753,7.9870781898498535,0.7825875878334045,-1.9756226539611816
1413393889340760500,0.006249062716960907,-0.0968005508184433,0.1144900768995285,10.113715171813965,-0.059931278228759766,-4.05825662612915
1413393889345760500,-0.015461660921573639,0.00022410042583942413,0.09465622901916504,9.247040748596191,0.4384874701499939,-2.8002569675445557
1413393889350760500,-0.008607901632785797,-0.06490690261125565,0.11888685822486877,9.147782325744629,-0.5159859657287598,-3.550548553466797
1413393889355760500,-0.014694340527057648,-0.04881890118122101,0.08472952246665955,9.845475196838379,-0.07742956280708313,-2.661207914352417
1413393889360760500,0.007677830755710602,-0.04810204356908798,0.09441617131233215,10.203413963317871,-0.18994922935962677,-3.689781904220581
1413393889365760500,-0.015244849026203156,0.008309843018651009,0.041550952941179276,9.698802947998047,-0.49263831973075867,-2.0224950313568115
1413393889370760500,0.01569283753633499,-0.04167237877845764,0.09936478734016418,8.379366874694824,0.16301336884498596,-3.4683563709259033
1413393889375760500,-0.012072600424289703,-0.02716178260743618,0.07298550009727478,8.355450630187988,-0.2540854811668396,-2.4560842514038086
1413393889380760500,0.003228582441806793,-0.06863336265087128,0.1473863124847412,9.541725158691406,0.830776035785675,-3.9367799758911133
1413393889385760500,-0.02804435044527054,-0.02175409533083439,0.11964477598667145,9.646742820739746,-0.654690682888031,-3.1652815341949463
1413393889390760500,0.002011232078075409,-0.036154188215732574,0.1515905261039734,10.040213584899902,0.22547464072704315,-3.273292303085327
1413393889395760500,-0.001598753035068512,0.0031708311289548874,0.09670065343379974,8.745231628417969,-1.2731117010116577,-2.984342336654663
1413393889400760500,0.01926378160715103,-0.06735280156135559,0.09021016955375671,9.001771926879883,0.36595937609672546,-3.518958568572998
1413393889405760500,0.008235655725002289,-0.03626496344804764,0.053384680300951004,9.165630340576172,-0.26350048184394836,-2.685626268386841
1413393889410760500,0.0048596784472465515,-0.08970873802900314,0.09220615029335022,9.98352336883545,0.3076653480529785,-3.6178841590881348
1413393889415760500,-0.016840137541294098,0.015434922650456429,0.09673233330249786,9.352675437927246,0.07169746607542038,-3.0033457279205322
1413393889420760500,-0.011419273912906647,-0.029228871688246727,0.14407041668891907,8.992766380310059,-0.051133181899785995,-2.937978506088257
1413393889425760500,-0.002997167408466339,0.02780347876250744,0.14766569435596466,9.213093757629395,-0.3686542510986328,-2.8876421451568604
1413393889430760500,0.015225417912006378,0.008309727534651756,0.14266173541545868,9.875038146972656,-0.3853228688240051,-3.6802473068237305
1413393889435760500,-0.014824606478214264,0.03991743177175522,0.0563398040831089,8.607810020446777,0.2291845679283142,-3.320810317993164
1413393889440760500,-0.044795386493206024,-0.03259465843439102,0.026212934404611588,8.54329776763916,-0.00859788991510868,-3.003230094909668
1413393889445760500,-0.05726974457502365,-0.02265179343521595,0.020038459450006485,8.822593688964844,0.4879908859729767,-2.702697992324829
1413393889450760500,-0.055902861058712006,-0.0719742402434349,0.027525532990694046,8.356963157653809,-1.1999711990356445,-2.2607009410858154
1413393889455760500,-0.050338663160800934,-0.12788164615631104,0.051160816103219986,8.872016906738281,0.24948906898498535,-2.834075927734375
1413393889460760500,-0.008507780730724335,-0.15759696066379547,0.09195287525653839,8.767778396606445,-0.764132559299469,-1.541115641593933
1413393889465760500,-0.01941470056772232,-0.15598443150520325,0.08926582336425781,10.55633544921875,-0.11031458526849747,-4.483716011047363
1413393889470760500,0.007432974874973297,-0.09967365115880966,0.12510496377944946,9.338508605957031,0.09303060919046402,-2.4819390773773193
1413393889475760500,-0.029366157948970795,-0.12181182205677032,0.11585742235183716,9.770316123962402,0.3318912088871002,-4.597652435302734
1413393889480760500,-0.006517849862575531,-0.020822396501898766,0.15599356591701508,9.181816101074219,0.36386820673942566,-2.505739688873291
1413393889485760500,-0.03897132724523544,-0.08151169121265411,0.13276979327201843,10.359466552734375,-0.5184389352798462,-4.441715717315674
1413393889490760500,0.004210226237773895,0.03470694273710251,0.11067745089530945,10.367480278015137,-0.41149964928627014,-2.6922013759613037
1413393889495760500,0.01635054498910904,-0.0629371702671051,0.11272701621055603,8.296125411987305,-0.6960889101028442,-3.9260847568511963
1413393889500760500,0.027803830802440643,0.005623511970043182,0.09254348278045654,9.64821720123291,0.21722643077373505,-2.6366043090820312
1413393889505760500,0.0021927282214164734,-0.12934088706970215,0.10474781692028046,7.635740756988525,0.5614749193191528,-3.0435259342193604
1413393889510760500,-0.01644039899110794,-0.09958891570568085,0.12774814665317535,11.270557403564453,0.7975242733955383,-3.6342287063598633
1413393889515760500,-0.0548357293009758,-0.18290534615516663,0.08804844319820404,7.079584121704102,0.03790164366364479,-1.981895089149475
1413393889520760500,-0.02389349788427353,-0.22858597338199615,0.13675715029239655,10.672074317932129,-0.6653108596801758,-3.805525779724121
1413393889525760500,-0.02344781905412674,-0.2533447742462158,0.04244248941540718,6.910633087158203,-0.6141040325164795,-2.031033754348755
1413393889530760500,0.010924451053142548,-0.3501984775066376,0.08334752917289734,10.460211753845215,-0.30684879422187805,-4.225224494934082
1413393889535760500,-0.013638876378536224,-0.2784513533115387,0.016606662422418594,8.257500648498535,0.899959146976471,-2.0079963207244873
1413393889540760500,-0.02787960320711136,-0.3363651931285858,0.06156859174370766,11.916329383850098,0.6409738063812256,-4.879835605621338
1413393889545760500,-0.0873531773686409,-0.19438691437244415,-0.01466337963938713,8.43466567993164,0.39698266983032227,-1.2612683773040771
1413393889550760500,-0.06626076251268387,-0.285695344209671,0.1206144392490387,12.114376068115234,-0.3716857433319092,-3.731813907623291
1413393889555760500,-0.04325462132692337,-0.08318422734737396,0.057360414415597916,9.648796081542969,-1.0638909339904785,-2.333806037902832
1413393889560760500,0.0074632540345191956,-0.20347607135772705,0.1694260686635971,10.77868366241455,-0.22451047599315643,-3.8221733570098877
1413393889565760500,0.007407672703266144,-0.08491794764995575,0.08186200261116028,8.764503479003906,-0.002014575991779566,-3.069488048553467
1413393889570760500,-0.0113910511136055,-0.2053041160106659,0.14710842072963715,10.010759353637695,0.7966077923774719,-3.858494281768799
1413393889575760500,-0.06663355976343155,-0.17178596556186676,0.05651158466935158,8.119467735290527,0.6513525247573853,-3.6978983879089355
1413393889580760500,-0.0913100615143776,-0.2805052399635315,0.09538067877292633,10.304483413696289,0.3705002963542938,-4.430077075958252
1413393889585760500,-0.0972609892487526,-0.21033291518688202,0.021815497428178787,7.2175211906433105,-0.32685568928718567,-3.058638334274292
1413393889590760500,-0.05521807819604874,-0.34900665283203125,0.0466478206217289,10.043556213378906,-0.8875524401664734,-4.22540807723999
1413393889595760500,-0.03839481621980667,-0.29231441020965576,0.00466122105717659,9.445188522338867,0.052918996661901474,-3.2446181774139404
1413393889600760500,-0.03417400270700455,-0.3273319900035858,0.005067955702543259,10.615287780761719,0.46092689037323,-4.936102390289307
1413393889605760500,-0.0676342025399208,-0.224643737077713,-0.020106125622987747,9.92311954498291,1.3333526849746704,-2.6899611949920654
1413393889610760500,-0.11692795902490616,-0.2979705035686493,0.01367151364684105,10.714012145996094,0.3621984124183655,-4.57730770111084
1413393889615760500,-0.11083162575960159,-0.1628675013780594,0.03922409191727638,9.724717140197754,0.019227368757128716,-2.5895488262176514
1413393889620760500,-0.09142903238534927,-0.2524013817310333,0.047557342797517776,9.95191764831543,-1.222123384475708,-3.9788124561309814
1413393889625760500,-0.02735709398984909,-0.2118586152791977,0.06417982280254364,9.461146354675293,-0.3876754939556122,-2.8752119541168213
1413393889630760500,-0.01602775603532791,-0.2472103387117386,0.05218321457505226,10.598677635192871,-0.47822195291519165,-4.297265529632568
1413393889635760500,-0.020580224692821503,-0.22600139677524567,0.04118349030613899,8.529277801513672,0.9817843437194824,-2.385570764541626
1413393889640760500,-0.087642140686512,-0.3051352798938751,0.00035017356276512146,11.46066951751709,0.7235056161880493,-4.382755279541016
1413393889645760500,-0.10493931919336319,-0.25656747817993164,0.025196347385644913,8.45685863494873,1.1782835721969604,-2.115044593811035
1413393889650760500,-0.16486868262290955,-0.2457169145345688,-0.07556512951850891,12.490893363952637,-0.5755079984664917,-4.526469707489014
1413393889655760500,-0.13232675194740295,-0.30149778723716736,-0.08170722424983978,8.971083641052246,-0.370694100856781,-3.3326592445373535
1413393889660760500,-0.1257556676864624,-0.17707571387290955,-0.1634794920682907,11.857872009277344,-0.8335427045822144,-3.5723235607147217
1413393889665760500,-0.07223407179117203,-0.208363339304924,-0.11173169314861298,10.605271339416504,-0.38583600521087646,-3.6040592193603516
1413393889670760500,-0.09343702346086502,-0.12943637371063232,-0.1583378165960312,9.762256622314453,0.5456982254981995,-4.672475814819336
1413393889675760500,-0.08196980506181717,-0.16145138442516327,-0.08004562556743622,10.420289993286133,0.6088145971298218,-2.755035161972046
1413393889680760500,-0.1190735474228859,-0.1077948659658432,-0.06956586241722107,11.280367851257324,0.8134158253669739,-5.504238128662109
1413393889685760500,-0.14199060201644897,-0.11328952014446259,-0.08415147662162781,9.805825233459473,0.07012368738651276,-2.7376251220703125
1413393889690760500,-0.1334400773048401,-0.11219321191310883,-0.0716107040643692,10.908390045166016,-0.32851898670196533,-3.8239784240722656
1413393889695760500,-0.12106902152299881,-0.14489804208278656,-0.08230642974376678,10.156746864318848,-0.3631000816822052,-4.884029865264893
1413393889700760500,-0.07819057255983353,-0.07727175951004028,-0.011557739228010178,8.47977066040039,-0.3688531517982483,-2.3099400997161865
1413393889705760500,-0.06111747771501541,-0.18601225316524506,0.009824428707361221,11.23653507232666,-0.5749898552894592,-4.1574602127075195
1413393889710760500,-0.010158516466617584,-0.1759844273328781,0.08100630342960358,8.11876392364502,0.3394450545310974,-2.8981480598449707
1413393889715760500,-0.034770332276821136,-0.2652485966682434,0.05273375287652016,10.991263389587402,0.06079739332199097,-4.338663101196289
1413393889720760500,-0.04599446803331375,-0.25134438276290894,0.03266749158501625,10.601900100708008,1.0316905975341797,-2.9270431995391846
1413393889725760500,-0.11844588071107864,-0.287725031375885,-0.055195461958646774,12.934536933898926,0.31935814023017883,-5.857818126678467
1413393889730760500,-0.15681156516075134,-0.24307496845722198,-0.14084190130233765,8.572844505310059,0.8852280974388123,-3.5126657485961914
1413393889735760500,-0.17886337637901306,-0.22802193462848663,-0.20116190612316132,10.69576644897461,-0.6315409541130066,-3.810168981552124
1413393889740760500,-0.14873233437538147,-0.21234188973903656,-0.21279709041118622,13.139076232910156,-0.21786685287952423,-3.690361499786377
1413393889745760500,-0.12071707099676132,-0.08424268662929535,-0.22349731624126434,11.986888885498047,-0.9545245170593262,-3.156660795211792
1413393889750760500,-0.1098780706524849,-0.12869930267333984,-0.18121947348117828,11.858026504516602,0.364170640707016,-4.9773359298706055
1413393889755760500,-0.11093879491090775,-0.09703876823186874,-0.10368147492408752,9.314153671264648,1.0517144203186035,-3.913235664367676
1413393889760760500,-0.13626614212989807,-0.04583641141653061,-0.1022016853094101,10.681307792663574,0.10380874574184418,-2.7213847637176514
1413393889765760500,-0.11874210089445114,-0.11622606217861176,0.009875718504190445,11.72613525390625,0.1918383538722992,-4.827648639678955
1413393889770760500,-0.11020482331514359,-0.10386797785758972,-0.008097376674413681,9.362135887145996,-0.7137817740440369,-4.31166410446167
1413393889775760500,-0.053588978946208954,-0.09635181725025177,0.022511277347803116,10.646421432495117,-0.7057917714118958,-2.7353687286376953
1413393889780760500,-0.043683312833309174,-0.12762443721294403,-0.050114523619413376,10.89216423034668,-0.45956194400787354,-3.1619396209716797
1413393889785760500,-0.021103300154209137,-0.10154186189174652,-0.05725162848830223,13.007216453552246,0.43222054839134216,-4.509819030761719
1413393889790760500,-0.06742797046899796,-0.0692828968167305,-0.11192591488361359,9.731039047241211,0.5864720940589905,-3.2685153484344482
1413393889795760500,-0.09774414449930191,-0.10791026055812836,-0.0988786518573761,12.213099479675293,0.49712952971458435,-4.414383888244629
1413393889800760500,-0.14067721366882324,-0.0998951718211174,-0.11194100975990295,9.846029281616211,0.9295989871025085,-3.971940279006958
1413393889805760500,-0.14974209666252136,-0.07308773696422577,-0.1239330917596817,9.663273811340332,-0.4579541087150574,-3.495577096939087
1413393889810760500,-0.13636499643325806,-0.1969880908727646,-0.10110954940319061,9.771527290344238,-0.2231331765651703,-3.538170337677002
1413393889815760500,-0.11541689187288284,-0.1722971796989441,-0.19070371985435486,11.08696460723877,-0.9405568242073059,-3.6615500450134277
1413393889820760500,-0.058204732835292816,-0.16571840643882751,-0.1403660625219345,12.211130142211914,0.014431843534111977,-4.527642726898193
1413393889825760500,-0.08969209343194962,-0.17047752439975739,-0.20293118059635162,9.870721817016602,0.3572656214237213,-4.119120121002197
1413393889830760500,-0.09207860380411148,-0.09190910309553146,-0.16498258709907532,12.348787307739258,0.8991456031799316,-3.519357442855835
1413393889835760500,-0.14442205429077148,-0.04720141738653183,-0.17314638197422028,11.502317428588867,0.6292962431907654,-3.6329238414764404
1413393889840760500,-0.15427476167678833,-0.03036496229469776,-0.1551520973443985,12.567143440246582,-0.23145945370197296,-4.992110729217529
1413393889845760500,-0.14938151836395264,-0.02437240444123745,-0.1393469274044037,8.25778865814209,-0.12939095497131348,-3.2554004192352295
1413393889850760500,-0.0827048048377037,0.046312227845191956,-0.13764354586601257,12.095975875854492,-1.3922830820083618,-2.8270158767700195
1413393889855760500,-0.03307204693555832,-0.09727279096841812,-0.10391046106815338,12.782465934753418,-0.3938044309616089,-4.761626243591309
1413393889860760500,-0.02954278141260147,0.007808960974216461,-0.1776789277791977,8.967336654663086,0.5236473679542542,-4.28488826751709
1413393889865760500,-0.06875862926244736,-0.0260405782610178,-0.14283870160579681,10.839970588684082,1.5831923484802246,-4.047003269195557
1413393889870760500,-0.16687047481536865,-0.010024705901741982,-0.20919571816921234,10.741778373718262,1.087294578552246,-2.9768614768981934
1413393889875760500,-0.2029402256011963,-0.024058418348431587,-0.20443497598171234,12.75127124786377,0.4159667491912842,-4.572227954864502
1413393889880760500,-0.20176556706428528,0.008121026679873466,-0.2309621423482895,9.139269828796387,-0.7256836891174316,-4.1651082038879395
1413393889885760500,-0.12717336416244507,-0.005679907277226448,-0.2168814092874527,10.879725456237793,-1.5915828943252563,-3.8874411582946777
1413393889890760500,-0.07205139845609665,0.01756308786571026,-0.21956570446491241,11.053715705871582,-0.587980329990387,-2.6889069080352783
1413393889895760500,-0.05378127843141556,0.05883166193962097,-0.2241031974554062,12.743617057800293,0.02604834735393524,-3.8280677795410156
1413393889900760500,-0.1011895015835762,0.06140173226594925,-0.20679251849651337,10.477751731872559,1.7876567840576172,-4.4623703956604
1413393889905760500,-0.16400375962257385,0.1614760309457779,-0.21159090101718903,10.985174179077148,1.0479730367660522,-3.4083638191223145
1413393889910760500,-0.18754827976226807,0.15487834811210632,-0.16431941092014313,11.830009460449219,-0.11322988569736481,-4.167295455932617
1413393889915760500,-0.17935314774513245,0.20616964995861053,-0.19840319454669952,9.37688159942627,-1.1277762651443481,-2.8712544441223145
1413393889920760500,-0.06648220866918564,0.17502348124980927,-0.1677037924528122,11.470417022705078,-1.8029171228408813,-3.018726348876953
1413393889925760500,-0.03749764710664749,0.10881701111793518,-0.18907396495342255,10.233269691467285,-0.34105759859085083,-3.7387802600860596
1413393889930760500,-0.02909763902425766,0.16342777013778687,-0.18174348771572113,10.347905158996582,0.7211118936538696,-4.400508403778076
1413393889935760500,-0.10214266926050186,0.1064818799495697,-0.18706105649471283,10.355985641479492,1.8141775131225586,-3.3081324100494385
1413393889940760500,-0.1622781753540039,0.22339089214801788,-0.1723208874464035,12.179010391235352,0.9248936772346497,-3.52453875541687
1413393889945760500,-0.1995023488998413,0.1883949339389801,-0.1990804225206375,11.478837966918945,0.2138533890247345,-4.21673583984375
1413393889950760500,-0.16164180636405945,0.2664559781551361,-0.22092173993587494,9.150070190429688,-1.648191213607788,-2.85446834564209
1413393889955760500,-0.09815604239702225,0.23226042091846466,-0.22631315886974335,11.56251049041748,-1.0309300422668457,-3.4852707386016846
1413393889960760500,-0.049086906015872955,0.2566271424293518,-0.22909359633922577,11.147233963012695,-0.5762915015220642,-3.982729196548462
1413393889965760500,-0.07082671672105789,0.24360977113246918,-0.224167600274086,9.01590633392334,1.3070420026779175,-3.8418402671813965
1413393889970760500,-0.12443739920854568,0.20454779267311096,-0.22271768748760223,8.919984817504883,1.554193139076233,-2.6573102474212646
1413393889975760500,-0.17068907618522644,0.26576921343803406,-0.17662474513053894,11.764970779418945,0.18157659471035004,-3.7830960750579834
1413393889980760500,-0.20069652795791626,0.1415172964334488,-0.19755356013774872,9.808602333068848,-0.10371565073728561,-4.237757682800293
1413393889985760500,-0.1322041153907776,0.2813208997249603,-0.15125370025634766,9.857505798339844,-1.5655509233474731,-2.7000327110290527
1413393889990760500,-0.08445876091718674,0.17436659336090088,-0.14489050209522247,11.892242431640625,-1.0253887176513672,-4.301304340362549
1413393889995760500,-0.012342937290668488,0.32961001992225647,-0.1018233597278595,9.277045249938965,-0.5898329019546509,-2.852978229522705
1413393890000760500,-0.03135896474123001,0.23702117800712585,-0.093648761510849,12.249137878417969,0.6868059039115906,-3.8636651039123535
1413393890005760500,-0.04286078363656998,0.33330708742141724,-0.08219146728515625,9.119475364685059,0.7207534909248352,-2.9425785541534424
1413393890010760500,-0.09851180762052536,0.2853473424911499,-0.06899954378604889,10.328682899475098,1.0645607709884644,-4.585994720458984
1413393890015760500,-0.10844732075929642,0.28285786509513855,-0.04535692557692528,8.804051399230957,-0.29723504185676575,-2.9670026302337646
1413393890020760500,-0.0952160581946373,0.28786730766296387,0.003953192383050919,10.01862907409668,-0.551613986492157,-3.741631269454956
1413393890025760500,-0.04802248626947403,0.17849726974964142,0.06794115900993347,8.715965270996094,-0.3885391354560852,-2.078791379928589
1413393890030760500,0.012571357190608978,0.3143329620361328,0.09314599633216858,10.263568878173828,-0.6510670185089111,-3.6754865646362305
1413393890035760500,0.03278016299009323,0.1653202772140503,0.1325756460428238,9.938190460205078,0.3832257091999054,-3.400796890258789
1413393890040760500,0.027190901339054108,0.32068851590156555,0.12879325449466705,9.830276489257812,0.0985756367444992,-3.1782240867614746
1413393890045760500,-0.0007788464426994324,0.15804140269756317,0.17249689996242523,9.488349914550781,1.2329819202423096,-3.6142141819000244
1413393890050760500,-0.01604735106229782,0.2754138708114624,0.17964637279510498,9.72698974609375,-0.09740570932626724,-2.476936101913452
1413393890055760500,-0.036198996007442474,0.14373287558555603,0.18417130410671234,9.634047508239746,0.0737951323390007,-4.168124198913574
1413393890060760500,-0.0014671161770820618,0.2467057853937149,0.1789054125547409,9.137575149536133,-0.7068387866020203,-2.631859064102173
1413393890065760500,0.029904238879680634,0.14563187956809998,0.19951236248016357,10.487695693969727,-0.8413043022155762,-3.481121778488159
1413393890070760500,0.0631854459643364,0.22455888986587524,0.18305297195911407,8.800246238708496,-0.0642722100019455,-3.3757455348968506
1413393890075760500,0.08071773499250412,0.1771891564130783,0.25108450651168823,10.167343139648438,0.37387627363204956,-3.530761957168579
1413393890080760500,0.06308480352163315,0.19893743097782135,0.28693923354148865,8.947548866271973,0.5879987478256226,-3.3439815044403076
1413393890085760500,0.031064100563526154,0.24059970676898956,0.3240160346031189,9.078950881958008,0.22046948969364166,-3.3429579734802246
1413393890090760500,0.031005509197711945,0.16997955739498138,0.3315293788909912,9.016205787658691,0.015877481549978256,-2.641733407974243
1413393890095760500,0.04578839987516403,0.23554323613643646,0.30923694372177124,9.915397644042969,-0.7757834196090698,-3.3583176136016846
1413393890100760500,0.06656458228826523,0.18604162335395813,0.2848450541496277,8.74477767944336,-0.25260451436042786,-2.7638237476348877
1413393890105760500,0.06734076887369156,0.24745796620845795,0.25842082500457764,9.292814254760742,-0.06535839289426804,-2.7714712619781494
1413393890110760500,0.05823595076799393,0.19058166444301605,0.258436381816864,8.031622886657715,0.3688160479068756,-3.38496470451355
1413393890115760500,0.03944515436887741,0.2713111639022827,0.2592417299747467,8.971719741821289,0.4829414188861847,-2.8858251571655273
1413393890120760500,0.03599940985441208,0.19399894773960114,0.30111005902290344,7.058535099029541,0.08424718677997589,-3.4250824451446533
1413393890125760500,0.04503264278173447,0.25568315386772156,0.3164370059967041,8.713140487670898,-0.4377966821193695,-2.4123544692993164
1413393890130760500,0.055451638996601105,0.18615055084228516,0.33455121517181396,6.4191670417785645,-0.16770009696483612,-2.8598580360412598
1413393890135760500,0.07564754039049149,0.23618724942207336,0.28986355662345886,8.646244049072266,-0.4062378406524658,-2.632709264755249
1413393890140760500,0.07202135771512985,0.14712628722190857,0.3001815378665924,7.124058723449707,0.059557512402534485,-2.518860340118408
1413393890145760500,0.05483897775411606,0.21481426060199738,0.27779415249824524,9.65978717803955,0.29288461804389954,-3.326371192932129
1413393890150760500,0.04344546049833298,0.18677450716495514,0.2785269021987915,6.3738627433776855,0.7239653468132019,-2.103518009185791
1413393890155760500,0.02762400358915329,0.2106321156024933,0.2787642478942871,8.268797874450684,-0.12080066651105881,-3.351167917251587
1413393890160760500,0.027048394083976746,0.1753680258989334,0.28217005729675293,6.400162220001221,0.19233442842960358,-1.2839365005493164
1413393890165760500,0.054115526378154755,0.19089621305465698,0.28827598690986633,9.390518188476562,-1.0198843479156494,-3.41561222076416
1413393890170760500,0.066317118704319,0.16455258429050446,0.28539353609085083,5.2983574867248535,0.31702399253845215,-1.1494487524032593
1413393890175760500,0.0868312194943428,0.12329485267400742,0.31756526231765747,8.915812492370605,-0.9802218079566956,-3.669992446899414
1413393890180760500,0.06749134510755539,0.1631048023700714,0.2914665937423706,5.611431121826172,0.8051978945732117,-1.129945158958435
1413393890185760500,0.06604408472776413,0.06075990945100784,0.3046991229057312,9.759650230407715,-0.32037627696990967,-4.089324474334717
1413393890190760500,0.028518155217170715,0.1405532956123352,0.28609877824783325,5.250586032867432,1.2557557821273804,-1.0108634233474731
1413393890195760500,0.047295503318309784,0.09423179179430008,0.3083949387073517,10.055987358093262,-1.3976006507873535,-4.136727809906006
1413393890200760500,0.0378202423453331,0.19215340912342072,0.240130215883255,5.457265377044678,0.7301865816116333,-0.8950151801109314
1413393890205760500,0.08471047133207321,0.07159019261598587,0.3173808455467224,8.940528869628906,-1.2581177949905396,-3.4656307697296143
1413393890210760500,0.06866874545812607,0.22354106605052948,0.22852839529514313,6.701855659484863,0.764509916305542,-1.6465160846710205
1413393890215760500,0.0984371230006218,0.08567655086517334,0.3495340645313263,7.951042652130127,-0.23707464337348938,-3.0499892234802246
1413393890220760500,0.03789917379617691,0.21622362732887268,0.24110783636569977,7.803042411804199,1.0244468450546265,-2.186878204345703
1413393890225760500,0.04623705893754959,0.09765453636646271,0.3187011778354645,6.078354358673096,0.1760278344154358,-2.550215482711792
1413393890230760500,-0.012756340205669403,0.17706315219402313,0.20892563462257385,8.777823448181152,0.63068687915802,-2.0953590869903564
1413393890235760500,0.028289183974266052,0.10433461517095566,0.27439597249031067,7.147925853729248,-1.2650723457336426,-2.718877077102661
1413393890240760500,0.02076173573732376,0.1366131752729416,0.18019108474254608,8.231847763061523,-0.06354716420173645,-1.9316319227218628
1413393890245760500,0.08604880422353745,0.0717739462852478,0.2754555940628052,6.301163196563721,-0.4534968137741089,-1.9194464683532715
1413393890250760500,0.060338668525218964,0.15839709341526031,0.2136060744524002,8.695039749145508,0.3919546604156494,-2.854787588119507
1413393890255760500,0.07402806729078293,0.10949543863534927,0.3081248998641968,5.940830707550049,0.5275133848190308,-2.387983560562134
1413393890260760500,0.02693360298871994,0.15276743471622467,0.25193721055984497,8.907554626464844,0.03272373601794243,-3.3600828647613525
1413393890265760500,0.03374197334051132,0.1334516853094101,0.30383360385894775,5.651373386383057,0.9871223568916321,-1.6538002490997314
1413393890270760500,0.019348546862602234,0.12323975563049316,0.2664504051208496,9.620357513427734,-1.191361427307129,-3.2523677349090576
