#timestamp [ns],w_RS_S_x [rad s^-1],w_RS_S_y [rad s^-1],w_RS_S_z [rad s^-1],a_RS_S_x [m s^-2],a_RS_S_y [m s^-2],a_RS_S_z [m s^-2]
1413393885975760500,0.050963614158234416,0.041887902047863905,0.06841690667817772,9.438900625,-0.4004382083333333,-2.729517583333333
1413393885980760500,0.05375614096142535,0.03630284844148206,0.07051130178057091,9.398039583333333,0.032688833333333334,-3.195333458333333
1413393885985760500,0.03839724354387525,0.04258603374866164,0.04677482395344803,9.561483749999999,0.2533384583333333,-3.015544875
1413393885990760500,0.028623399732707,0.047472955654245766,0.07120943348136866,9.283628666666665,0.269682875,-3.0890947499999997
1413393885995760500,0.0027925268031909274,0.06562437987498679,0.06213372137099814,9.610517,0.4985047083333333,-3.0400614999999998
1413393886000760500,-0.025132741228718346,0.03839724354387525,0.08377580409572781,9.161045541666667,0.7681875833333334,-3.2280222916666665
1413393886005760500,-0.05235987755982988,0.04817108735504349,0.08936085770210968,9.283628666666665,0.3350605416666666,-3.0809225416666663
1413393886010760500,-0.05585053606381855,0.03839724354387525,0.08098327729253688,9.054806833333332,-0.35140495833333335,-2.7867230416666664
1413393886015760500,-0.04049163864626844,0.009075712110370514,0.0747000919853573,9.259112041666667,-0.5720545833333333,-2.754034208333333
1413393886020760500,-0.013264502315156905,0.00767944870877505,0.08656833089891874,9.357178541666666,-0.6701210833333332,-2.7376897916666665
1413393886025760500,0.023038346126325153,0.010471975511965976,0.07819075048934597,9.520622708333333,-0.612915625,-2.9093061666666666
1413393886030760500,0.0439822971502571,0.032114058236695664,0.08307767239493008,9.586000375,-0.3759215833333333,-2.941995
1413393886035760500,0.04049163864626844,0.028623399732707,0.07819075048934597,9.250939833333334,0.18796079166666665,-2.811239666666667
1413393886040760500,0.021642082724729686,0.02652900463031381,0.07190756518216637,9.259112041666667,0.416782625,-3.023717083333333
1413393886045760500,-0.005585053606381855,0.04677482395344803,0.06911503837897544,9.373522958333332,0.367749375,-3.0400614999999998
1413393886050760500,-0.023736477827122883,0.03420845333908886,0.06771877497737998,9.144701125,0.057205458333333334,-2.982856041666666
1413393886055760500,-0.03490658503988659,0.01884955592153876,0.06981317007977318,9.07115125,0.10623870833333333,-2.7376897916666665
1413393886060760500,-0.03490658503988659,0.013962634015954637,0.08237954069413235,9.1201845,-0.2533384583333333,-2.9093061666666666
1413393886065760500,-0.021642082724729686,0.009075712110370514,0.08028514559173915,9.242767624999999,-0.4004382083333333,-2.999200458333333
1413393886070760500,-0.008377580409572781,0.006981317007977318,0.08726646259971647,9.536967125,-0.392266,-2.9583394166666666
1413393886075760500,0.00767944870877505,0.02234021442552742,0.08307767239493008,9.406211791666665,-0.3105439166666667,-2.974683833333333
1413393886080760500,0.017453292519943295,0.02234021442552742,0.07260569688296412,9.349006333333334,-0.3023717083333333,-3.015544875
1413393886085760500,0.025132741228718346,0.02722713633111154,0.06562437987498679,9.520622708333333,-0.17978858333333333,-2.974683833333333
1413393886090760500,0.02652900463031381,0.02234021442552742,0.08098327729253688,9.291800875,0.17161637500000002,-2.9338227916666666
1413393886095760500,0.009773843811168246,0.017453292519943295,0.08517206749732328,9.234595416666666,0.35957716666666667,-2.8766173333333334
1413393886100760500,-0.013264502315156905,0.02024581932313422,0.09564404300928926,8.989429166666666,0.3840937916666667,-2.8684451249999996
1413393886105760500,-0.033510321638291124,0.008377580409572781,0.09215338450530061,9.635033625,0.08989429166666667,-3.1299557916666663
1413393886110760500,-0.04537856055185257,0.009075712110370514,0.08237954069413235,9.5124505,-0.20430520833333332,-3.0645781249999997
1413393886115760500,-0.02722713633111154,0.016755160819145562,0.07330382858376185,9.398039583333333,-0.661948875,-2.8766173333333334
1413393886120760500,0.00012392178177833557,0.026124462485313416,0.06388751417398453,9.475608825683594,-0.5617160201072693,-3.0524280071258545
1413393886125760500,0.02490205690264702,0.02830769121646881,0.07339425384998322,9.32794189453125,-0.10415618866682053,-2.9615261554718018
1413393886130760500,0.03907657042145729,0.02335880696773529,0.08746273070573807,9.172481536865234,-0.10201111435890198,-2.812943935394287
1413393886135760500,0.030818071216344833,0.0141226127743721,0.07729674130678177,9.52140998840332,0.19490978121757507,-3.1137585639953613
1413393886140760500,0.001635093241930008,0.03008132427930832,0.07993504405021667,9.300590515136719,0.47609055042266846,-2.995079517364502
1413393886145760500,-0.02199675142765045,0.014759466052055359,0.081139475107193,9.57784366607666,0.3059721291065216,-3.255159378051758
1413393886150760500,-0.033517204225063324,0.02666042000055313,0.07210318744182587,9.46418571472168,-0.2032080888748169,-3.0794742107391357
1413393886155760500,-0.023238562047481537,0.036224961280822754,0.07466632127761841,9.424300193786621,-0.2062094360589981,-3.111469268798828
1413393886160760500,-0.013380469754338264,0.042525842785835266,0.07950569689273834,9.242055892944336,-0.042642004787921906,-2.908379316329956
1413393886165760500,-0.0037611685693264008,0.02968142181634903,0.07640346884727478,9.239775657653809,-0.20361949503421783,-2.8516645431518555
1413393886170760500,0.0017736516892910004,0.018543779850006104,0.0715133398771286,9.26003646850586,-0.4104853868484497,-3.006213903427124
1413393886175760500,0.010328281670808792,0.02397622913122177,0.07833084464073181,9.455416679382324,-0.005305210594087839,-3.3473000526428223
1413393886180760500,0.00695115327835083,0.042111314833164215,0.08540274202823639,9.160931587219238,0.019146138802170753,-2.8755578994750977
1413393886185760500,-0.00012056902050971985,0.022069454193115234,0.08805098384618759,9.452569007873535,-0.12173973768949509,-2.97927188873291
1413393886190760500,0.004479814320802689,0.03702728450298309,0.0821705013513565,9.50761604309082,-0.21602888405323029,-2.931175708770752
1413393886195760500,0.008645690977573395,0.04382997751235962,0.08450230956077576,9.300859451293945,0.15100723505020142,-2.91738224029541
1413393886200760500,-0.003214452415704727,0.035855866968631744,0.08238685876131058,9.183637619018555,0.20683754980564117,-2.9170901775360107
1413393886205760500,-0.018205154687166214,0.019495710730552673,0.06809645891189575,9.408130645751953,-0.04987208917737007,-2.898829221725464
1413393886210760500,-0.02153944782912731,0.018632136285305023,0.06608709692955017,9.29324722290039,-0.18394476175308228,-3.015054225921631
1413393886215760500,-0.014807796105742455,0.026268772780895233,0.07139309495687485,9.388191223144531,-0.233321875333786,-3.0704596042633057
1413393886220760500,-0.015584748238325119,0.03361373394727707,0.07739013433456421,9.162095069885254,-0.2279721349477768,-2.841827154159546
1413393886225760500,-0.00101378932595253,0.024903371930122375,0.08681998401880264,9.386832237243652,-0.2748088538646698,-2.992196798324585
1413393886230760500,0.014668121933937073,0.02621624618768692,0.08506905287504196,9.25818157196045,-0.22620128095149994,-2.8815362453460693
1413393886235760500,0.025583337992429733,0.024846479296684265,0.0859929695725441,9.346753120422363,0.04298935830593109,-2.931398630142212
1413393886240760500,0.017184577882289886,0.026868782937526703,0.08107320219278336,9.212730407714844,0.22832593321800232,-3.02580189704895
1413393886245760500,0.0011636503040790558,0.019972287118434906,0.08508903533220291,9.486796379089355,0.1894889920949936,-3.0496058464050293
1413393886250760500,-0.015304705128073692,0.02772783488035202,0.08165066689252853,9.132932662963867,0.03370964527130127,-3.03228497505188
1413393886255760500,-0.018702030181884766,0.01642657071352005,0.09586764127016068,9.447649002075195,0.1728345900774002,-2.972522020339966
1413393886260760500,-0.023030804470181465,0.027835287153720856,0.09598022699356079,9.173069953918457,0.005905655212700367,-2.9224417209625244
1413393886265760500,-0.01473388820886612,0.00752606987953186,0.09661933779716492,9.29725456237793,-0.40246766805648804,-2.795715093612671
1413393886270760500,-0.0015490539371967316,0.01205568015575409,0.07437395304441452,9.441166877746582,-0.4266259968280792,-2.9667820930480957
1413393886275760500,0.010593947023153305,0.01237029954791069,0.06495075672864914,9.513141632080078,-0.3153996467590332,-3.0692410469055176
1413393886280760500,0.01247846707701683,0.02314811199903488,0.05327329784631729,9.427275657653809,-0.12349538505077362,-3.062713384628296
1413393886285760500,0.016992978751659393,0.008255667984485626,0.060565270483493805,9.351329803466797,-0.02004733495414257,-3.0011706352233887
1413393886290760500,0.006412036716938019,0.030091866850852966,0.06063452363014221,9.408547401428223,0.20674121379852295,-3.0969479084014893
1413393886295760500,-0.012338617816567421,0.016357041895389557,0.08721233904361725,9.354352951049805,0.5111636519432068,-3.020977258682251
1413393886300760500,-0.025963475927710533,0.034362003207206726,0.09376664459705353,9.230903625488281,0.10400115698575974,-2.924882650375366
1413393886305760500,-0.026587624102830887,0.021118059754371643,0.09052477777004242,9.15703010559082,-0.25332748889923096,-2.929469585418701
1413393886310760500,-0.01582854986190796,0.02801395207643509,0.08644599467515945,9.396066665649414,-0.4214794337749481,-3.147355794906616
1413393886315760500,-0.0022948384284973145,0.023214608430862427,0.09182629734277725,9.274600982666016,-0.28922927379608154,-3.101120948791504
1413393886320760500,0.012085016816854477,0.030634112656116486,0.0809759870171547,9.360176086425781,-0.4108801782131195,-2.9360768795013428
1413393886325760500,0.027372296899557114,0.02293558418750763,0.0883498415350914,9.266749382019043,-0.2764076590538025,-2.999540328979492
1413393886330760500,0.02799953892827034,0.03231729567050934,0.08589675277471542,9.333003997802734,0.16101115942001343,-3.003303050994873
1413393886335760500,0.014467764645814896,0.025417357683181763,0.10286804288625717,9.253997802734375,0.4190506935119629,-2.989734649658203
1413393886340760500,-0.014433560892939568,0.03306613862514496,0.08640957623720169,9.230485916137695,0.0420171357691288,-3.1122994422912598
1413393886345760500,-0.028819456696510315,0.016521669924259186,0.07246332615613937,9.446428298950195,-0.18005773425102234,-3.1818482875823975
1413393886350760500,-0.029021121561527252,0.02963785082101822,0.06349097192287445,9.549139976501465,-0.2126043736934662,-3.2133712768554688
1413393886355760500,-0.016336143016815186,0.02703113853931427,0.06387962400913239,9.288887023925781,-0.3757060468196869,-2.851008653640747
1413393886360760500,-0.002008669078350067,0.023014575242996216,0.06267393380403519,9.356160163879395,-0.4243868291378021,-2.991888999938965
1413393886365760500,0.0188276469707489,0.02946794033050537,0.07743676751852036,9.436017036437988,-0.18238046765327454,-2.892087936401367
1413393886370760500,0.018663588911294937,0.03884528577327728,0.086638905107975,9.285004615783691,0.2579234838485718,-3.035156488418579
1413393886375760500,0.007156793028116226,0.03454302251338959,0.08801374584436417,9.148202896118164,0.3538132309913635,-2.8304829597473145
1413393886380760500,-0.006469409912824631,0.026159465312957764,0.09240908175706863,9.453147888183594,0.02143300697207451,-2.939790725708008
1413393886385760500,-0.011817239224910736,0.028194263577461243,0.08907132595777512,9.411354064941406,-0.04836197942495346,-2.9545183181762695
1413393886390760500,-0.010904546827077866,0.0389188677072525,0.08831357210874557,9.435137748718262,-0.16773195564746857,-2.977567434310913
1413393886395760500,-0.009313344955444336,0.029543399810791016,0.0856773853302002,9.10094928741455,-0.19264020025730133,-2.8577260971069336
1413393886400760500,0.005986247211694717,0.023353077471256256,0.08509937673807144,9.500225067138672,-0.3924756348133087,-2.999502182006836
1413393886405760500,0.014697138220071793,0.02488134056329727,0.07911785691976547,9.269037246704102,-0.021564636379480362,-2.9223978519439697
1413393886410760500,0.006595980376005173,0.022139444947242737,0.075669065117836,9.317727088928223,0.1856929361820221,-3.018095016479492
1413393886415760500,-0.009661978110671043,0.011389505118131638,0.07690338790416718,9.382081985473633,0.035284340381622314,-2.946650266647339
1413393886420760500,-0.013615243136882782,0.012600306421518326,0.06950356811285019,9.510881423950195,-0.08874349296092987,-3.165729284286499
1413393886425760500,-0.01242716796696186,0.01889827847480774,0.060647010803222656,9.298991203308105,-0.28757786750793457,-2.8654239177703857
1413393886430760500,-0.006986405700445175,0.022697918117046356,0.060055047273635864,9.37649154663086,-0.18193568289279938,-3.133373260498047
1413393886435760500,0.0074515677988529205,0.021033212542533875,0.07597009837627411,9.363848686218262,-0.28260934352874756,-2.8348240852355957
1413393886440760500,0.012361939996480942,0.017923712730407715,0.0835709273815155,9.446333885192871,0.00454477034509182,-3.0105433464050293
1413393886445760500,0.005591049790382385,0.023966744542121887,0.08781354129314423,9.21295166015625,0.17852959036827087,-2.806251287460327
1413393886450760500,-0.0051820166409015656,0.017670147120952606,0.08937491476535797,9.375892639160156,0.0924808531999588,-3.0567922592163086
1413393886455760500,-0.01392773725092411,0.017356909811496735,0.0926700308918953,9.407905578613281,-0.06630854308605194,-3.134516954421997
1413393886460760500,-0.015835443511605263,0.023069269955158234,0.08832245320081711,9.453840255737305,-0.11397566646337509,-3.0563716888427734
1413393886465760500,-0.011614898219704628,0.027856595814228058,0.08423417806625366,9.179868698120117,-0.3503980040550232,-2.9201531410217285
1413393886470760500,0.006635971367359161,0.02964577078819275,0.08826266974210739,9.371172904968262,-0.40872833132743835,-2.8973028659820557
1413393886475760500,0.01763215661048889,0.020123910158872604,0.09178069233894348,9.235488891601562,-0.24403896927833557,-2.913792610168457
1413393886480760500,0.020127519965171814,0.0169149748980999,0.08385380357503891,9.453319549560547,0.043050963431596756,-3.0500435829162598
1413393886485760500,0.009836148470640182,0.024384602904319763,0.07440141588449478,9.308663368225098,0.18733619153499603,-2.93146014213562
1413393886490760500,-0.0026528798043727875,0.01683354377746582,0.0744360163807869,9.400078773498535,0.277262419462204,-3.1205179691314697
1413393886495760500,-0.017319172620773315,0.017920255661010742,0.0776568129658699,9.376884460449219,0.09580069780349731,-3.119856834411621
1413393886500760500,-0.024537522345781326,0.023018285632133484,0.07279212027788162,9.551604270935059,-0.19813689589500427,-3.13499116897583
1413393886505760500,-0.020328547805547714,0.042898520827293396,0.0760868564248085,9.404478073120117,-0.20259150862693787,-2.852642774581909
1413393886510760500,-0.007537763565778732,0.03106621652841568,0.08245117962360382,9.310111045837402,-0.24950288236141205,-2.9613256454467773
1413393886515760500,0.0099966861307621,0.03825616091489792,0.08706869184970856,9.364684104919434,-0.24221044778823853,-2.945211172103882
1413393886520760500,0.016681291162967682,0.03289961814880371,0.08852724730968475,9.205921173095703,-0.08399993181228638,-3.0709228515625
1413393886525760500,0.012105591595172882,0.033588260412216187,0.08383752405643463,9.380959510803223,0.11318404972553253,-2.931746244430542
1413393886530760500,-0.0017803125083446503,0.02121378481388092,0.07735223323106766,9.39096736907959,0.1414455771446228,-3.1200764179229736
1413393886535760500,-0.005873817950487137,0.03826041519641876,0.0761738270521164,9.323503494262695,-0.02559358812868595,-2.9073028564453125
1413393886540760500,-0.013959072530269623,0.03247959911823273,0.07556283473968506,9.119296073913574,-0.04552539438009262,-3.119143486022949
1413393886545760500,-0.010919542983174324,0.04490867257118225,0.08204200863838196,9.445813179016113,-0.10462502390146255,-2.931856870651245
1413393886550760500,-0.011524461209774017,0.025505274534225464,0.08228792250156403,9.156208038330078,-0.2075977623462677,-2.9532485008239746
1413393886555760500,-0.0032829008996486664,0.03438723087310791,0.08216757327318192,9.23240852355957,-0.30173859000205994,-2.607391834259033
1413393886560760500,0.0009617283940315247,0.005023490637540817,0.07908051460981369,9.100201606750488,-0.12308618426322937,-2.952075481414795
1413393886565760500,0.0071433596312999725,0.025730416178703308,0.07420140504837036,9.593894004821777,-0.02978384867310524,-2.9458775520324707
1413393886570760500,-0.0053979456424713135,0.017228763550519943,0.07291164249181747,9.31427001953125,-0.08240722864866257,-3.0230867862701416
1413393886575760500,0.0016388148069381714,0.027074843645095825,0.06597260385751724,9.4094877243042,-0.2108953595161438,-2.8421573638916016
1413393886580760500,-0.003677964210510254,0.01676752418279648,0.06824941188097,9.198247909545898,0.03867177665233612,-2.992236375808716
1413393886585760500,-0.0023023374378681183,0.04229015111923218,0.08820866048336029,9.615416526794434,0.15775786340236664,-3.1288704872131348
1413393886590760500,-0.009493207558989525,0.03587176650762558,0.08553952723741531,9.074234008789062,-0.12831684947013855,-2.7719409465789795
1413393886595760500,-0.004123818129301071,0.015901461243629456,0.09242001175880432,9.307591438293457,-0.2657879889011383,-2.8663554191589355
1413393886600760500,-0.00025045499205589294,0.011733464896678925,0.08322907239198685,9.244309425354004,-0.21804268658161163,-3.037060499191284
1413393886605760500,0.003766346722841263,0.019850369542837143,0.09601917117834091,9.579519271850586,-0.012480571866035461,-3.13442063331604
1413393886610760500,-0.0039955973625183105,0.03212963789701462,0.08220244199037552,9.321457862854004,-0.1940021961927414,-2.9837806224823
1413393886615760500,0.003687996417284012,0.016188550740480423,0.07895097136497498,9.38813304901123,-0.22656288743019104,-2.921433925628662
1413393886620760500,0.0068387798964977264,0.022645339369773865,0.07779094576835632,9.223453521728516,-0.01783890090882778,-3.110588788986206
1413393886625760500,0.0057389140129089355,0.03180931508541107,0.09246846288442612,9.40064525604248,0.1405569463968277,-3.1448135375976562
1413393886630760500,-0.010885745286941528,0.03166695684194565,0.0816587433218956,9.133407592773438,0.03919520601630211,-2.970470428466797
1413393886635760500,-0.009213915094733238,0.009625870734453201,0.08516137301921844,9.189502716064453,-0.08070670813322067,-2.930579900741577
1413393886640760500,-0.006491698324680328,0.01677733287215233,0.08259691298007965,9.180152893066406,-0.16730667650699615,-3.0469508171081543
1413393886645760500,-0.0055637843906879425,0.01525365561246872,0.08259494602680206,9.476608276367188,-0.010873843915760517,-3.174846887588501
1413393886650760500,-0.015362441539764404,0.029384002089500427,0.06743386387825012,9.465729713439941,-0.15489602088928223,-2.9859063625335693
1413393886655760500,0.0034814663231372833,0.023758091032505035,0.07892207056283951,9.354543685913086,-0.17886686325073242,-2.9150490760803223
1413393886660760500,0.007264126092195511,0.035312362015247345,0.07230760157108307,9.325361251831055,-0.19323784112930298,-3.047788619995117
1413393886665760500,0.005220729857683182,0.028248310089111328,0.08039883524179459,9.417058944702148,0.1553993821144104,-3.1368415355682373
1413393886670760500,-0.004419546574354172,0.03034018725156784,0.07618609815835953,9.253426551818848,-0.009724339470267296,-2.9788525104522705
1413393886675760500,-0.002317514270544052,0.01926102489233017,0.08240886777639389,9.468379974365234,-0.1921376883983612,-3.0256710052490234
1413393886680760500,-0.004912491887807846,0.024906739592552185,0.08162988722324371,9.25188159942627,-0.18383707106113434,-3.031820297241211
1413393886685760500,-0.006942484527826309,0.021795660257339478,0.08159147202968597,9.57315731048584,-0.027175655588507652,-3.05795955657959
1413393886690760500,-0.01015697605907917,0.03133893013000488,0.0795527771115303,9.404375076293945,-0.1456477791070938,-2.9314377307891846
1413393886695760500,0.0049472711980342865,0.034170255064964294,0.08088932186365128,9.428580284118652,-0.1862165331840515,-2.97017765045166
1413393886700760500,0.007300589233636856,0.03333732485771179,0.08094853907823563,9.287386894226074,-0.12173762172460556,-3.001053810119629
1413393886705760500,0.0031728558242321014,0.037737563252449036,0.07827538996934891,9.465389251708984,0.15588603913784027,-3.0817360877990723
1413393886710760500,-0.002963978797197342,0.031599320471286774,0.0794951468706131,9.12411117553711,0.019791176542639732,-2.7423367500305176
1413393886715760500,-0.0023392103612422943,0.016867175698280334,0.08159299939870834,9.590408325195312,-0.16874073445796967,-3.0649566650390625
1413393886720760500,-0.0030026473104953766,0.026744641363620758,0.08369267731904984,9.22962760925293,0.046219754964113235,-2.993213653564453
1413393886725760500,-0.008180301636457443,0.031602516770362854,0.07627963274717331,9.437880516052246,-0.01851920783519745,-3.0018701553344727
1413393886730760500,-0.0002597235143184662,0.025784991681575775,0.07963600009679794,9.206093788146973,-0.15323907136917114,-2.9140331745147705
1413393886735760500,0.002605251967906952,0.028874866664409637,0.07494129985570908,9.54251766204834,-0.051687151193618774,-3.041100025177002
1413393886740760500,0.01048356294631958,0.030861392617225647,0.08569463342428207,9.23795223236084,0.05302797257900238,-3.0095598697662354
1413393886745760500,0.0006226375699043274,0.03244134783744812,0.07490460574626923,9.382777214050293,0.052924346178770065,-2.9788553714752197
1413393886750760500,-0.0027686767280101776,0.015254370868206024,0.08378026634454727,9.12481689453125,0.0744548887014389,-2.7738687992095947
1413393886755760500,-0.0029939673840999603,0.01450466737151146,0.08099546283483505,9.445656776428223,-0.09063656628131866,-2.9308526515960693
1413393886760760500,-0.004944447427988052,0.01752885803580284,0.08981654793024063,9.293814659118652,-0.0876820981502533,-3.149383783340454
1413393886765760500,-0.011412553489208221,0.026013776659965515,0.07959038764238358,9.48432731628418,-0.17772206664085388,-3.0708720684051514
1413393886770760500,-0.004407275468111038,0.014640718698501587,0.08174283057451248,9.316408157348633,-0.28795620799064636,-3.0627124309539795
1413393886775760500,0.00319700688123703,0.02730366587638855,0.07832789421081543,9.461224555969238,-0.11488164961338043,-2.986173152923584
1413393886780760500,0.013202585279941559,0.016272954642772675,0.08772511780261993,9.295186996459961,0.019986603409051895,-3.034191846847534
1413393886785760500,0.003444567322731018,0.029729530215263367,0.07362578809261322,9.487380981445312,0.053283728659152985,-3.026846170425415
1413393886790760500,-0.0042541176080703735,0.009711090475320816,0.07984315603971481,9.142982482910156,0.11761106550693512,-2.9710090160369873
1413393886795760500,-0.009107232093811035,0.019239507615566254,0.07824979722499847,9.453338623046875,-0.23179176449775696,-3.0165460109710693
1413393886800760500,-0.00857873260974884,0.021603405475616455,0.0884408950805664,9.302875518798828,-0.14305426180362701,-3.2049288749694824
1413393886805760500,-0.009496891871094704,0.029364682734012604,0.08158037066459656,9.508095741271973,-0.1782631129026413,-3.0331685543060303
1413393886810760500,-0.004260014742612839,0.016294557601213455,0.08386368304491043,9.222021102905273,-0.1129874736070633,-3.009927272796631
1413393886815760500,-7.59027898311615e-05,0.03565961867570877,0.0750461295247078,9.49334716796875,-0.20926536619663239,-3.017810106277466
1413393886820760500,0.003736015409231186,0.028888612985610962,0.0803360864520073,9.142488479614258,-0.1301257610321045,-3.048112154006958
1413393886825760500,0.006369207054376602,0.03612178564071655,0.07819484919309616,9.510345458984375,-0.04413583129644394,-3.0425331592559814
1413393886830760500,0.0017586015164852142,0.023892782628536224,0.08309327811002731,9.157235145568848,-0.033567413687705994,-3.0250680446624756
1413393886835760500,-0.0015008263289928436,0.026950329542160034,0.08238085359334946,9.420849800109863,-0.034239813685417175,-2.96355938911438
1413393886840760500,-0.011024810373783112,0.02695782482624054,0.08518283814191818,9.125550270080566,-0.1500881165266037,-3.071052312850952
1413393886845760500,-0.009138531982898712,0.03194556385278702,0.08847921341657639,9.3411283493042,-0.12091869115829468,-3.056962013244629
1413393886850760500,-0.007024411112070084,0.029588401317596436,0.08497513085603714,9.355374336242676,-0.18595659732818604,-3.009575605392456
1413393886855760500,0.0004634000360965729,0.029266878962516785,0.08578723669052124,9.251565933227539,-0.08300874382257462,-2.947175979614258
1413393886860760500,0.003811601549386978,0.03248511999845505,0.07710081338882446,9.171220779418945,-0.18410663306713104,-3.0315051078796387
1413393886865760500,0.007872741669416428,0.024524517357349396,0.07643542438745499,9.276703834533691,-0.027424437925219536,-2.954911470413208
1413393886870760500,0.005776386708021164,0.02131546288728714,0.07096575945615768,9.259214401245117,-0.08944586664438248,-3.0797886848449707
1413393886875760500,0.0016548149287700653,0.018868334591388702,0.07497765868902206,9.155118942260742,0.06974752992391586,-2.970325231552124
1413393886880760500,-0.00830182433128357,0.02643030881881714,0.07821096479892731,9.387655258178711,-0.04103458300232887,-3.056792974472046
1413393886885760500,-0.010382086038589478,0.023430027067661285,0.0789686068892479,9.329965591430664,-0.12078291922807693,-2.985830307006836
1413393886890760500,-0.009145645424723625,0.026294313371181488,0.0756692960858345,9.683317184448242,-0.15241649746894836,-3.222330331802368
1413393886895760500,-0.005620896816253662,0.030318185687065125,0.08096296340227127,9.219862937927246,0.06802515685558319,-2.9321701526641846
1413393886900760500,-0.00279940664768219,0.02864915132522583,0.0735083818435669,9.461393356323242,-0.20044612884521484,-3.0256903171539307
1413393886905760500,0.0025897733867168427,0.029985152184963226,0.0747753232717514,9.349385261535645,-0.17891062796115875,-2.883471965789795
1413393886910760500,0.01441875472664833,0.024061277508735657,0.08091029524803162,9.468348503112793,-0.14687298238277435,-3.095791816711426
1413393886915760500,0.008100070059299469,0.025658532977104187,0.07766509801149368,9.067051887512207,0.044467743486166,-2.8520915508270264
1413393886920760500,-0.0008696801960468292,0.023134291172027588,0.08433656394481659,9.471137046813965,0.03851061314344406,-3.128272771835327
1413393886925760500,-0.007718931883573532,0.02585001289844513,0.08220537006855011,9.23517894744873,-0.09733807295560837,-2.90665602684021
1413393886930760500,-0.005625694990158081,0.019975442439317703,0.0917603150010109,9.509132385253906,-0.026574481278657913,-2.9958913326263428
1413393886935760500,-0.007707707583904266,0.02763044834136963,0.08769045025110245,9.077468872070312,0.04549047350883484,-2.962294816970825
1413393886940760500,-0.007442552596330643,0.022689342498779297,0.08237097412347794,9.405485153198242,-0.29557502269744873,-3.0237343311309814
1413393886945760500,0.0017546340823173523,0.01873914524912834,0.08248233050107956,9.0772123336792,-0.26427212357521057,-2.975588321685791
1413393886950760500,0.009300615638494492,0.01913505420088768,0.07559607923030853,9.420218467712402,-0.11546564847230911,-3.0013351440429688
1413393886955760500,0.005406782031059265,0.020290225744247437,0.07833683490753174,9.178594589233398,-0.01942131668329239,-2.9223172664642334
1413393886960760500,0.0004704780876636505,0.016173958778381348,0.07616788148880005,9.595280647277832,-0.16931584477424622,-3.119126081466675
1413393886965760500,-0.0009875334799289703,0.02175607532262802,0.07570790499448776,9.082191467285156,-0.09849092364311218,-2.8821425437927246
1413393886970760500,-0.002538856118917465,0.013815388083457947,0.09125565737485886,9.513458251953125,0.11865759640932083,-3.301564931869507
1413393886975760500,-0.013452781364321709,0.039573706686496735,0.08498114347457886,9.365487098693848,0.06171269714832306,-2.9635372161865234
1413393886980760500,-0.013652658089995384,0.024042002856731415,0.08654022961854935,9.252219200134277,-0.1924254596233368,-2.930558681488037
1413393886985760500,-0.005672398954629898,0.028321266174316406,0.07222384214401245,9.378567695617676,-0.3989326059818268,-2.952402353286743
1413393886990760500,0.011044275015592575,0.024857401847839355,0.07980475574731827,9.236588478088379,-0.12195003777742386,-3.0709333419799805
1413393886995760500,0.012201599776744843,0.025591708719730377,0.08421621471643448,9.434734344482422,-0.005251525901257992,-3.010655641555786
1413393887000760500,0.0015315525233745575,0.01929100975394249,0.07560356706380844,9.37297248840332,-0.03402905538678169,-3.002019166946411
1413393887005760500,0.0014530494809150696,0.02508895844221115,0.0784243792295456,9.316131591796875,-0.11251108348369598,-3.055802822113037
1413393887010760500,-0.0006842799484729767,0.021509133279323578,0.08919917047023773,9.207169532775879,0.22828726470470428,-3.042771100997925
1413393887015760500,-0.013362880796194077,0.029847577214241028,0.09108511358499527,9.656054496765137,0.09957586228847504,-3.029057741165161
1413393887020760500,-0.01780589669942856,0.03248031437397003,0.08358015865087509,9.27560043334961,-0.12808078527450562,-2.9311256408691406
1413393887025760500,-0.005775798112154007,0.019610363990068436,0.07636187970638275,9.39648151397705,-0.4060160219669342,-3.023225784301758
1413393887030760500,0.009271848946809769,0.03233864903450012,0.07241097837686539,9.197346687316895,-0.20939186215400696,-2.968065023422241
1413393887035760500,0.012852292507886887,0.02100355178117752,0.08355420082807541,9.373702049255371,-0.029565732926130295,-2.9786081314086914
1413393887040760500,0.005476187914609909,0.03020043671131134,0.07412420213222504,9.443832397460938,-0.17036055028438568,-3.016575336456299
1413393887045760500,0.006289713084697723,0.021884657442569733,0.08250639587640762,9.212358474731445,-0.034017737954854965,-2.9853389263153076
1413393887050760500,0.0006992332637310028,0.02822805941104889,0.08251627534627914,9.141023635864258,0.2367948740720749,-3.010739803314209
1413393887055760500,-0.01751265488564968,0.022373683750629425,0.08653873950242996,9.448882102966309,0.16561844944953918,-3.0350329875946045
1413393887060760500,-0.02136654034256935,0.03513193130493164,0.08025798946619034,9.364154815673828,-0.15833713114261627,-3.0796170234680176
1413393887065760500,-0.007821217179298401,0.02075999230146408,0.08225761353969574,9.234793663024902,-0.30322253704071045,-2.913393259048462
1413393887070760500,0.004787415266036987,0.023983649909496307,0.07642217725515366,9.196429252624512,-0.24863477051258087,-2.9447765350341797
1413393887075760500,0.01281827688217163,0.01302650198340416,0.08171280473470688,9.203713417053223,-0.15516099333763123,-2.9528186321258545
1413393887080760500,0.007479168474674225,0.02316857874393463,0.07626121491193771,9.523143768310547,-0.14749494194984436,-3.064098834991455
1413393887085760500,0.009743530303239822,0.015272524207830429,0.07641757279634476,9.194207191467285,-0.08207250386476517,-2.992595672607422
1413393887090760500,0.004140876233577728,0.0231439471244812,0.0803883820772171,9.268213272094727,0.14009690284729004,-3.0340771675109863
1413393887095760500,-0.010227736085653305,0.010313745588064194,0.08511475473642349,9.230802536010742,0.18882746994495392,-2.994804859161377
1413393887100760500,-0.025642741471529007,0.02499663084745407,0.07891073077917099,9.556173324584961,-0.11947751045227051,-3.034146308898926
1413393887105760500,-0.015970122069120407,0.021243788301944733,0.08489497005939484,9.37746524810791,-0.3820219039916992,-2.960676431655884
1413393887110760500,0.0011025629937648773,0.03289150446653366,0.08229216933250427,9.473623275756836,-0.39981609582901,-3.0230672359466553
1413393887115760500,0.008333336561918259,0.020787149667739868,0.08441391587257385,9.107388496398926,-0.2277376353740692,-2.8577466011047363
1413393887120760500,0.013456739485263824,0.023325324058532715,0.07819513976573944,9.604589462280273,-0.20323185622692108,-3.017106771469116
1413393887125760500,0.01466178148984909,0.01886676251888275,0.07577567547559738,9.203516960144043,-0.07573994249105453,-2.898122787475586
1413393887130760500,0.010981246829032898,0.02420330047607422,0.08245903253555298,9.414397239685059,0.16426725685596466,-3.144200325012207
1413393887135760500,-0.0064141713082790375,0.031543612480163574,0.0815991684794426,9.213529586791992,0.2451380044221878,-2.9632928371429443
1413393887140760500,-0.025741083547472954,0.024511240422725677,0.08236971497535706,9.519241333007812,0.14237239956855774,-3.0114126205444336
1413393887145760500,-0.023389510810375214,0.03387073427438736,0.08158888667821884,9.30826473236084,-0.21461492776870728,-2.922089099884033
1413393887150760500,-0.007823023945093155,0.0204659104347229,0.08313118666410446,9.27817440032959,-0.3260710537433624,-3.054290533065796
1413393887155760500,-0.00048007071018218994,0.037016212940216064,0.07692775875329971,9.148240089416504,-0.26597753167152405,-2.9202182292938232
1413393887160760500,0.01208321750164032,0.022043675184249878,0.07817404717206955,9.379570007324219,-0.2997293472290039,-2.9288482666015625
1413393887165760500,0.015987545251846313,0.03147454559803009,0.0689411386847496,9.369646072387695,-0.210605189204216,-3.038544178009033
1413393887170760500,0.01567426696419716,0.02100616693496704,0.08250395208597183,9.204551696777344,0.20319950580596924,-3.11197566986084
1413393887175760500,-0.00577472522854805,0.03871070593595505,0.07958205789327621,9.308998107910156,0.3802456259727478,-2.9722909927368164
1413393887180760500,-0.025313660502433777,0.026543252170085907,0.08574528247117996,9.334793090820312,0.12019877880811691,-3.041991710662842
1413393887185760500,-0.028906866908073425,0.029479190707206726,0.07625651359558105,9.453217506408691,-0.23714077472686768,-3.1188297271728516
1413393887190760500,-0.01716991700232029,0.014505792409181595,0.08300776779651642,9.211897850036621,-0.311367392539978,-2.9137179851531982
1413393887195760500,-0.0020727328956127167,0.03700423985719681,0.07473213225603104,9.570380210876465,-0.3435799479484558,-3.0399467945098877
1413393887200760500,0.014136862009763718,0.02492959052324295,0.08289752155542374,9.097452163696289,-0.40066367387771606,-2.918407440185547
1413393887205760500,0.022364262491464615,0.021358348429203033,0.07279305160045624,9.633153915405273,-0.29999786615371704,-2.9540042877197266
1413393887210760500,0.022596921771764755,0.01621277630329132,0.07450634986162186,9.244382858276367,0.1851997971534729,-2.924309730529785
1413393887215760500,0.01079624891281128,0.026529617607593536,0.08375559002161026,9.559406280517578,0.378898948431015,-3.1380457878112793
1413393887220760500,-0.020413514226675034,0.029733292758464813,0.08359520882368088,9.287752151489258,0.2552769184112549,-3.034348964691162
1413393887225760500,-0.026903938502073288,0.030095770955085754,0.08088391274213791,9.359779357910156,-0.015081701800227165,-2.939868450164795
1413393887230760500,-0.020627165213227272,0.016739655286073685,0.08891331404447556,9.205839157104492,-0.22397977113723755,-2.8201563358306885
1413393887235760500,-0.004000995308160782,0.022510990500450134,0.08982302993535995,9.525522232055664,-0.36693868041038513,-3.109931230545044
1413393887240760500,0.01215149462223053,0.03365982323884964,0.08507948368787766,9.144497871398926,-0.3701023459434509,-2.887707233428955
1413393887245760500,0.019190620630979538,0.02573944628238678,0.07486255466938019,9.401265144348145,-0.3332272469997406,-2.795261859893799
1413393887250760500,0.02477099373936653,0.017058104276657104,0.07515417784452438,9.155702590942383,-0.15749530494213104,-2.904423475265503
1413393887255760500,0.014056466519832611,0.011853635311126709,0.07851389795541763,9.279455184936523,0.33013832569122314,-3.1666879653930664
1413393887260760500,-0.007738683372735977,0.03288426995277405,0.08497676253318787,9.21288013458252,0.4604530930519104,-2.9168484210968018
1413393887265760500,-0.030512584373354912,0.020570166409015656,0.07700518518686295,9.47047233581543,0.11322161555290222,-3.0026538372039795
1413393887270760500,-0.03007446601986885,0.022363558411598206,0.07899352163076401,9.28288745880127,-0.3248487710952759,-2.9438979625701904
1413393887275760500,-0.01713196188211441,0.01364336907863617,0.07165142893791199,9.26107406616211,-0.3424946963787079,-3.0536270141601562
1413393887280760500,0.0007269084453582764,0.03481212258338928,0.07535221427679062,9.345582962036133,-0.36889323592185974,-2.904604911804199
1413393887285760500,0.009596217423677444,0.017070945352315903,0.07539088279008865,9.458645820617676,-0.3688933849334717,-3.069143533706665
1413393887290760500,0.021472040563821793,0.026984207332134247,0.07151947170495987,9.512453079223633,-0.2609194815158844,-2.944810628890991
1413393887295760500,0.01976213976740837,0.012102380394935608,0.07385151833295822,9.132694244384766,0.14625975489616394,-3.009420871734619
1413393887300760500,0.008279137313365936,0.03524744510650635,0.08770023286342621,9.591954231262207,0.4736619293689728,-3.060359239578247
1413393887305760500,-0.02245999313890934,0.025019370019435883,0.08974713087081909,9.223310470581055,0.2714402377605438,-3.0104939937591553
1413393887310760500,-0.030692432075738907,0.020917266607284546,0.087554432451725,9.55833911895752,-0.1572830080986023,-3.01067852973938
1413393887315760500,-0.022176139056682587,0.0268796905875206,0.08508238941431046,9.13385009765625,-0.3005450963973999,-2.9835031032562256
1413393887320760500,-0.009470028802752495,0.02379164844751358,0.09304606169462204,9.645015716552734,-0.3122802674770355,-3.150245428085327
1413393887325760500,0.007364790886640549,0.025629863142967224,0.08031322062015533,9.122115135192871,-0.4334266185760498,-2.8641979694366455
1413393887330760500,0.024160470813512802,0.019589655101299286,0.07956887036561966,9.578877449035645,-0.3788720369338989,-3.0160746574401855
1413393887335760500,0.026895929127931595,0.03691111505031586,0.06902919709682465,9.155952453613281,-0.04589623957872391,-2.9214446544647217
1413393887340760500,0.014983434230089188,0.02167586237192154,0.08997832983732224,9.489012718200684,0.5043757557868958,-3.0371663570404053
1413393887345760500,-0.015977703034877777,0.03982463479042053,0.07958442717790604,9.399391174316406,0.2942308485507965,-3.0977818965911865
1413393887350760500,-0.031675808131694794,0.0281449556350708,0.07368497550487518,9.25634765625,0.09070664644241333,-3.017650604248047
1413393887355760500,-0.02641923353075981,0.03257565200328827,0.0817253366112709,9.111072540283203,-0.2750197947025299,-3.0623555183410645
1413393887360760500,-0.014251736924052238,0.022506311535835266,0.07967153936624527,9.311628341674805,-0.23085346817970276,-3.0477097034454346
1413393887365760500,0.0021591857075691223,0.0411582887172699,0.08092702925205231,9.222822189331055,-0.44058850407600403,-2.8571276664733887
1413393887370760500,0.011635560542345047,0.021085605025291443,0.07817156612873077,9.327463150024414,-0.4343143403530121,-2.888842821121216
1413393887375760500,0.028672631829977036,0.02953343093395233,0.07392122596502304,9.272697448730469,-0.15838591754436493,-2.8976621627807617
1413393887380760500,0.01634931191802025,0.010603304952383041,0.07660017162561417,9.1397123336792,0.40960875153541565,-3.033707857131958
1413393887385760500,-0.0017895475029945374,0.03325699269771576,0.08895616233348846,9.502685546875,0.4833779036998749,-3.0128374099731445
1413393887390760500,-0.03139229491353035,0.01778196170926094,0.07974744588136673,9.358687400817871,0.14544084668159485,-3.0804507732391357
1413393887395760500,-0.03095899522304535,0.022141367197036743,0.08231157809495926,9.389633178710938,-0.07825688272714615,-3.0257163047790527
1413393887400760500,-0.025172188878059387,0.00860358402132988,0.07755602896213531,9.365013122558594,-0.3821682929992676,-2.9686577320098877
1413393887405760500,-0.005487114191055298,0.023049548268318176,0.08413773775100708,9.682992935180664,-0.32035407423973083,-3.0881638526916504
1413393887410760500,0.0042481981217861176,0.0208599716424942,0.07877450436353683,9.22507095336914,-0.46616944670677185,-2.856470823287964
1413393887415760500,0.02469879761338234,0.017941102385520935,0.07353360205888748,9.562753677368164,-0.41839757561683655,-2.999660015106201
1413393887420760500,0.027963783591985703,0.023862332105636597,0.07112514227628708,9.277822494506836,0.008549717254936695,-3.000692367553711
1413393887425760500,0.016311071813106537,0.00877157598733902,0.09057547152042389,9.538317680358887,0.44892311096191406,-3.193397045135498
1413393887430760500,-0.007857341319322586,0.03811927139759064,0.08501464128494263,9.367422103881836,0.29506683349609375,-3.0195765495300293
1413393887435760500,-0.03065679222345352,0.019035063683986664,0.0831180214881897,9.321786880493164,-0.0045109642669558525,-3.073503017425537
1413393887440760500,-0.027701977640390396,0.029416978359222412,0.08241968601942062,9.241077423095703,-0.1414782553911209,-3.0487112998962402
1413393887445760500,-0.013230934739112854,0.015825077891349792,0.0898405984044075,9.295648574829102,-0.38101041316986084,-3.0868306159973145
1413393887450760500,0.005494292825460434,0.037737756967544556,0.0855879932641983,9.384819984436035,-0.5034299492835999,-2.9835095405578613
1413393887455760500,0.019685916602611542,0.017625026404857635,0.08236861228942871,9.185606956481934,-0.45925357937812805,-2.8644022941589355
1413393887460760500,0.03284705802798271,0.026849716901779175,0.076615110039711,9.410945892333984,-0.18931151926517487,-3.01649808883667
1413393887465760500,0.019181162118911743,0.019250955432653427,0.07992441952228546,9.044942855834961,0.30596017837524414,-3.0335352420806885
1413393887470760500,-0.0033123865723609924,0.025243327021598816,0.08385786414146423,9.391179084777832,0.5710307359695435,-3.0133473873138428
1413393887475760500,-0.027544857934117317,0.02566135674715042,0.07963501662015915,9.25422477722168,0.1382392793893814,-3.0106451511383057
1413393887480760500,-0.036812812089920044,0.025045931339263916,0.07160768657922745,9.32592487335205,-0.11623650789260864,-3.0881125926971436
1413393887485760500,-0.02465539053082466,0.0172727033495903,0.07958665490150452,9.267578125,-0.302778959274292,-2.9925432205200195
1413393887490760500,-0.006052836775779724,0.030396178364753723,0.07938277721405029,9.537212371826172,-0.37568870186805725,-2.9698545932769775
1413393887495760500,0.012378629297018051,0.026819437742233276,0.07760642468929291,9.286905288696289,-0.5120836496353149,-2.9502780437469482
1413393887500760500,0.02886826917529106,0.02778710424900055,0.07359934598207474,9.481605529785156,-0.348397433757782,-2.98384165763855
1413393887505760500,0.027418088167905807,0.023836679756641388,0.07384233176708221,9.316837310791016,0.09644608199596405,-3.0333969593048096
1413393887510760500,0.011613022536039352,0.018614232540130615,0.0804850310087204,9.455229759216309,0.5054999589920044,-3.044421434402466
1413393887515760500,-0.013311384245753288,0.032759085297584534,0.08896610140800476,9.439213752746582,0.3655984103679657,-2.9967267513275146
1413393887520760500,-0.03496513515710831,0.027650214731693268,0.07773914188146591,9.449751853942871,0.13182379305362701,-3.2077274322509766
1413393887525760500,-0.02748120203614235,0.03023117035627365,0.08625214546918869,9.365777969360352,-0.2693212926387787,-2.9307732582092285
1413393887530760500,-0.017735082656145096,0.024619437754154205,0.07831206917762756,9.359606742858887,-0.35730090737342834,-3.134157419204712
1413393887535760500,0.0047480203211307526,0.0391320139169693,0.08157290518283844,9.234309196472168,-0.4731919765472412,-2.8413708209991455
1413393887540760500,0.022129599004983902,0.023732192814350128,0.08149522542953491,9.36337947845459,-0.4253634214401245,-3.0144882202148438
1413393887545760500,0.03374825790524483,0.03078809380531311,0.07703515142202377,9.394572257995605,-0.10427983850240707,-2.8683183193206787
1413393887550760500,0.016248006373643875,0.015211306512355804,0.08407880365848541,9.036394119262695,0.5378219485282898,-3.0742340087890625
1413393887555760500,-0.010742506012320518,0.035999640822410583,0.09184332191944122,9.569212913513184,0.5566903352737427,-3.084381580352783
1413393887560760500,-0.0411219522356987,0.028337284922599792,0.08523613214492798,9.200160026550293,0.2189090996980667,-3.097198009490967
1413393887565760500,-0.03311462327837944,0.03573451191186905,0.08278397470712662,9.531122207641602,-0.42681482434272766,-2.9930052757263184
1413393887570760500,-0.019084177911281586,0.02404596656560898,0.06952057033777237,9.211257934570312,-0.5415124297142029,-2.8329544067382812
1413393887575760500,0.006196197122335434,0.029968172311782837,0.07500747591257095,9.273233413696289,-0.566098153591156,-3.0049824714660645
1413393887580760500,0.020311344414949417,0.022047728300094604,0.07015308737754822,9.300237655639648,-0.289680540561676,-3.0775585174560547
1413393887585760500,0.025009166449308395,0.01058584451675415,0.07595349103212357,9.538129806518555,0.2912141978740692,-3.412158489227295
1413393887590760500,0.0016342438757419586,0.038088805973529816,0.07107319682836533,9.580341339111328,0.4025494456291199,-3.114975929260254
1413393887595760500,-0.0284983292222023,0.029633432626724243,0.0676044151186943,9.625969886779785,0.3887404203414917,-3.155088424682617
1413393887600760500,-0.035558246076107025,0.04287075996398926,0.0605536550283432,10.004281044006348,-0.5046981573104858,-3.3862130641937256
1413393887605760500,-0.010173335671424866,0.022214233875274658,0.06756913661956787,9.508628845214844,-0.6359819173812866,-2.843634605407715
1413393887610760500,0.01412748172879219,0.051042765378952026,0.08331798017024994,9.363594055175781,-0.2856689393520355,-3.1757144927978516
1413393887615760500,0.03133632615208626,0.05714164674282074,0.12240087985992432,8.962995529174805,0.006194779183715582,-2.852238416671753
1413393887620760500,0.02202616259455681,0.037815406918525696,0.15063604712486267,9.00882625579834,-0.04304349794983864,-2.9701175689697266
1413393887625760500,0.021159067749977112,0.05932264029979706,0.14153042435646057,9.432454109191895,-0.25350451469421387,-2.9711062908172607
1413393887630760500,0.01404404267668724,0.032981567084789276,0.11841709911823273,8.88633918762207,-0.07092832028865814,-2.8193085193634033
1413393887635760500,-0.0007307678461074829,0.02600858360528946,0.10873957723379135,9.146523475646973,0.4587053060531616,-3.075425386428833
1413393887640760500,-0.03858056664466858,0.05053771287202835,0.08167485892772675,9.084052085876465,0.19300736486911774,-2.7033517360687256
1413393887645760500,-0.050775982439517975,0.03477939963340759,0.0541619136929512,9.187386512756348,-0.4781034588813782,-2.9741077423095703
1413393887650760500,-0.02166246622800827,0.033424995839595795,0.026402302086353302,9.027644157409668,-1.058850884437561,-2.7296364307403564
1413393887655760500,0.01362530142068863,0.012959230691194534,0.03427109867334366,8.654609680175781,-0.3116596043109894,-2.6723108291625977
1413393887660760500,0.02912989631295204,0.04872272163629532,0.05105030536651611,9.46016788482666,-0.053256113082170486,-3.0381298065185547
1413393887665760500,0.010445158928632736,0.03651335835456848,0.05578501522541046,8.524962425231934,0.16951492428779602,-2.6572389602661133
1413393887670760500,0.010841932147741318,0.003257356584072113,0.06924597173929214,9.492735862731934,0.023779677227139473,-3.2199583053588867
1413393887675760500,-0.0018322616815567017,0.03322628140449524,0.07059572637081146,9.38754940032959,0.43415167927742004,-2.7970762252807617
1413393887680760500,-0.010277356952428818,0.005623623728752136,0.13262885808944702,9.173491477966309,0.5235295295715332,-3.1367151737213135
1413393887685760500,-0.03784782066941261,0.03545287251472473,0.10832348465919495,9.543329238891602,-0.17574656009674072,-2.860997200012207
1413393887690760500,-0.019882846623659134,-0.01101202517747879,0.10841777920722961,9.400157928466797,-0.6183652281761169,-2.9892141819000244
1413393887695760500,-0.0009561777114868164,0.006710678339004517,0.07288593053817749,10.170845031738281,-0.4028387665748596,-3.079040765762329
1413393887700760500,0.008814822882413864,-0.005511317402124405,0.10755068808794022,9.528892517089844,0.21316330134868622,-3.10569167137146
1413393887705760500,-0.00815364345908165,0.04336186498403549,0.06755369156599045,9.976471900939941,-0.49424225091934204,-3.2968130111694336
1413393887710760500,0.010124221444129944,0.010651163756847382,0.06915688514709473,8.94198989868164,-0.32388636469841003,-2.3150644302368164
1413393887715760500,0.023327279835939407,0.010280385613441467,0.054039426147937775,10.340932846069336,-0.4371398389339447,-3.431417465209961
1413393887720760500,0.01903441920876503,0.034518174827098846,0.06754712760448456,8.906288146972656,0.7986986637115479,-2.852997303009033
1413393887725760500,4.203617572784424e-05,0.03205688297748566,0.09476956725120544,9.543266296386719,0.4318656921386719,-3.312525749206543
1413393887730760500,-0.021439306437969208,0.0760357677936554,0.07769066840410233,8.726810455322266,-0.041469790041446686,-2.4953830242156982
1413393887735760500,-0.01169545203447342,0.002340860664844513,0.0959126353263855,9.036666870117188,0.00872785784304142,-3.0244054794311523
1413393887740760500,-0.01478281244635582,0.04491107165813446,0.07652965188026428,9.383054733276367,-0.23288433253765106,-3.2902915477752686
1413393887745760500,-0.009555218741297722,0.025544606149196625,0.10842355340719223,8.691460609436035,-0.1050000861287117,-2.935438394546509
1413393887750760500,-0.014726735651493073,0.05962088704109192,0.08514263480901718,9.044248580932617,-0.6608874201774597,-2.9080426692962646
1413393887755760500,-0.0002751760184764862,0.017403334379196167,0.08033205568790436,8.594772338867188,-0.2498805671930313,-2.6647582054138184
1413393887760760500,0.018184762448072433,-0.001614738255739212,0.057343460619449615,9.740643501281738,-0.45638754963874817,-3.3982086181640625
1413393887765760500,0.017861448228359222,0.014806479215621948,0.06431644409894943,9.10007095336914,0.3213641047477722,-2.970165967941284
1413393887770760500,0.004297167062759399,0.021532632410526276,0.07672420144081116,9.842529296875,0.056061357259750366,-3.5602006912231445
1413393887775760500,-0.016889452934265137,0.047536492347717285,0.04396431893110275,8.593673706054688,0.1154996007680893,-2.383814811706543
1413393887780760500,-0.011304056271910667,-0.01688203774392605,0.07621487230062485,9.497054100036621,-0.14417223632335663,-3.0193936824798584
1413393887785760500,-0.018478669226169586,0.012814141809940338,0.05024123191833496,10.048449516296387,-0.24513961374759674,-3.29050350189209
1413393887790760500,-0.003473091870546341,0.005079001188278198,0.09839382022619247,9.318709373474121,0.09737640619277954,-2.839682102203369
1413393887795760500,-0.013185165822505951,0.047064751386642456,0.08867595344781876,9.973824501037598,-0.2724943459033966,-3.1135382652282715
1413393887800760500,-0.014062616974115372,0.019038420170545578,0.08403266221284866,8.822728157043457,-0.24129055440425873,-2.7453534603118896
1413393887805760500,0.010615039616823196,0.007314592599868774,0.09014797955751419,10.23861312866211,-0.6312819719314575,-3.290099620819092
1413393887810760500,0.019924737513065338,0.03322051465511322,0.09907223284244537,9.023306846618652,0.04055934026837349,-2.829084873199463
1413393887815760500,0.02007570117712021,0.035279810428619385,0.11090967059135437,9.737931251525879,0.328788697719574,-3.226632595062256
1413393887820760500,-0.0063448213040828705,0.05370698869228363,0.08680018037557602,9.093730926513672,-0.04693129286170006,-2.677936315536499
1413393887825760500,-0.007936831563711166,0.015053335577249527,0.08505048602819443,9.252039909362793,-0.032241739332675934,-3.0341148376464844
1413393887830760500,-0.0015529654920101166,0.029566511511802673,0.07573340088129044,9.644647598266602,-0.25574633479118347,-3.1569700241088867
1413393887835760500,-0.0005296356976032257,0.03642822802066803,0.08080587536096573,8.647090911865234,0.1516515612602234,-2.8744914531707764
1413393887840760500,-0.008708983659744263,0.031872160732746124,0.08956117182970047,9.182538986206055,0.21236608922481537,-2.939265727996826
1413393887845760500,-0.02088201604783535,0.03361159563064575,0.06779993325471878,8.806248664855957,-0.16591423749923706,-2.714914321899414
1413393887850760500,-0.012217339128255844,-0.005486857146024704,0.07274597883224487,9.049800872802734,-0.1686326414346695,-3.054166316986084
1413393887855760500,0.00452427938580513,0.014087975025177002,0.0750269740819931,9.335796356201172,-0.25259777903556824,-3.1407039165496826
1413393887860760500,0.00947963073849678,0.004990819841623306,0.07775936275720596,8.797750473022461,0.041748784482479095,-2.7630019187927246
1413393887865760500,0.006918694823980331,0.014815524220466614,0.07082229852676392,9.766851425170898,0.09406770020723343,-3.0970373153686523
1413393887870760500,-0.004578433930873871,0.0066867396235466,0.06434416025876999,8.962088584899902,0.0237568411976099,-2.7878615856170654
1413393887875760500,-0.009857263416051865,-0.008858256042003632,0.07869765162467957,9.580177307128906,-0.00035545864375308156,-3.292619466781616
1413393887880760500,-0.009342176839709282,0.030022628605365753,0.08734582364559174,9.652591705322266,-0.14674516022205353,-3.1512088775634766
1413393887885760500,-0.00623224675655365,0.011834509670734406,0.08370444178581238,9.168771743774414,-0.3040194809436798,-3.0301928520202637
1413393887890760500,-0.0050970204174518585,0.017284289002418518,0.07745657116174698,10.008872985839844,-0.10729538649320602,-3.0054771900177
1413393887895760500,-0.004008013755083084,0.02022237330675125,0.07688737660646439,9.420648574829102,-0.13798554241657257,-2.9080581665039062
1413393887900760500,-0.011613510549068451,0.016858041286468506,0.07407958805561066,9.715691566467285,-0.12148768454790115,-3.168088436126709
1413393887905760500,-0.0053289495408535,0.0320892259478569,0.08359629660844803,9.697166442871094,-0.34541869163513184,-3.05621337890625
1413393887910760500,0.010709624737501144,0.025238819420337677,0.09028338640928268,9.15762996673584,-0.3613359332084656,-2.943631410598755
1413393887915760500,0.012857630848884583,0.024501577019691467,0.07382161915302277,9.610799789428711,0.05939824506640434,-3.020167589187622
1413393887920760500,0.0035114139318466187,0.02586035430431366,0.07912622392177582,9.058719635009766,0.09408946335315704,-2.828645944595337
1413393887925760500,-0.009766455739736557,0.014130599796772003,0.08501538634300232,9.552928924560547,0.05611918494105339,-3.1686654090881348
1413393887930760500,-0.011429835110902786,0.049490153789520264,0.09482734650373459,9.674818992614746,0.030528225004673004,-3.1533398628234863
1413393887935760500,-0.00552702322602272,0.04037719964981079,0.10069230198860168,8.540653228759766,-0.1978510022163391,-2.91115665435791
1413393887940760500,0.0006877146661281586,0.02488257735967636,0.08805064111948013,9.472681045532227,-0.282547265291214,-2.923233985900879
1413393887945760500,0.008691634982824326,0.0499688982963562,0.0828339010477066,9.063474655151367,-0.09127499908208847,-2.866065263748169
1413393887950760500,0.00535321980714798,0.007180247455835342,0.08652087301015854,8.735496520996094,0.03887837380170822,-2.8495936393737793
1413393887955760500,-0.008324883878231049,0.02804674208164215,0.07232771813869476,9.65599250793457,0.08639820665121078,-3.2227327823638916
1413393887960760500,-0.00782850757241249,0.03970398008823395,0.08033782243728638,8.982669830322266,0.029608028009533882,-3.015294313430786
1413393887965760500,0.0021333880722522736,0.005294516682624817,0.07975710183382034,8.965707778930664,-0.21764066815376282,-2.8415234088897705
1413393887970760500,-0.00043139979243278503,0.024003565311431885,0.057145796716213226,9.527573585510254,0.13203118741512299,-2.963454246520996
1413393887975760500,-0.0014171302318572998,0.009172968566417694,0.07013104856014252,8.844036102294922,0.14236874878406525,-2.747800350189209
1413393887980760500,-0.014738673344254494,0.007367637008428574,0.06387101858854294,9.979394912719727,0.03333796188235283,-3.215568780899048
1413393887985760500,-0.018923230469226837,0.04745525121688843,0.0664672702550888,9.639793395996094,-0.09950036555528641,-2.8757236003875732
1413393887990760500,-0.011445935815572739,0.008625742048025131,0.0818566083908081,9.331028938293457,-0.49819454550743103,-2.85583758354187
1413393887995760500,-0.0003247670829296112,0.03174678236246109,0.07997014373540878,10.002031326293945,-0.5928624868392944,-3.0073249340057373
1413393888000760500,0.009806334972381592,0.038086920976638794,0.07508739084005356,9.206978797912598,0.12249304354190826,-2.9922685623168945
1413393888005760500,0.015299085527658463,0.006736196577548981,0.0876251757144928,9.279326438903809,0.1891998052597046,-2.948650598526001
1413393888010760500,0.006902892142534256,0.018837489187717438,0.09042253345251083,9.844971656799316,0.0642889142036438,-3.1458144187927246
1413393888015760500,-0.011773217469453812,0.030612997710704803,0.08638640493154526,9.372095108032227,0.08498400449752808,-3.0959596633911133
1413393888020760500,-0.010844660922884941,0.008112035691738129,0.10105232149362564,9.470508575439453,-0.26685017347335815,-2.9707908630371094
1413393888025760500,-0.0004974789917469025,0.025284811854362488,0.08915846794843674,9.447739601135254,-0.5565530061721802,-2.998176336288452
1413393888030760500,0.0016453154385089874,0.013732090592384338,0.07180310785770416,9.02291202545166,-0.14086833596229553,-2.724632740020752
1413393888035760500,0.009173959493637085,0.004518546164035797,0.08366759866476059,9.343754768371582,0.14924518764019012,-3.058121681213379
1413393888040760500,-0.001886073499917984,0.019863151013851166,0.08171281963586807,9.241154670715332,0.16583485901355743,-2.938427209854126
1413393888045760500,-0.014401683583855629,0.013413496315479279,0.0737474113702774,9.085592269897461,-0.051996611058712006,-3.0311241149902344
1413393888050760500,-0.015091782435774803,0.02689708024263382,0.07944313436746597,9.47132682800293,-0.10820241272449493,-3.0322208404541016
1413393888055760500,-0.0027133002877235413,0.03640744090080261,0.07794273644685745,8.977229118347168,-0.30975672602653503,-2.9267160892486572
1413393888060760500,0.008893143385648727,0.016834817826747894,0.07036130130290985,9.267477035522461,-0.2019258588552475,-2.914200782775879
1413393888065760500,0.011019200086593628,0.021506577730178833,0.07877892255783081,9.149513244628906,0.0864909365773201,-2.914935350418091
1413393888070760500,0.007463641464710236,0.012269280850887299,0.08600739389657974,9.323103904724121,0.11833939701318741,-3.064885377883911
1413393888075760500,-0.009683411568403244,0.015534274280071259,0.07793755829334259,9.622273445129395,0.17206500470638275,-3.2304184436798096
1413393888080760500,-0.02366219274699688,0.03697192668914795,0.08025704324245453,9.515862464904785,0.05214311555027962,-3.1510040760040283
1413393888085760500,-0.01516609638929367,0.02893027663230896,0.08179230988025665,9.17844009399414,-0.3574090301990509,-3.08601713180542
1413393888090760500,0.0011480487883090973,0.026472285389900208,0.07609464973211288,9.574583053588867,-0.29634642601013184,-3.025576591491699
1413393888095760500,0.012372232973575592,0.02257368713617325,0.0774981752038002,9.148195266723633,-0.08213324844837189,-2.9463038444519043
1413393888100760500,0.013544552028179169,0.017418652772903442,0.08235649764537811,9.581697463989258,0.014256368391215801,-3.1455087661743164
1413393888105760500,0.003842923790216446,0.021684318780899048,0.0790889784693718,9.59817886352539,0.11689423024654388,-3.1528263092041016
1413393888110760500,-0.01569029688835144,0.042918622493743896,0.06820069253444672,9.686100006103516,0.25146377086639404,-3.240389108657837
1413393888115760500,-0.018406357616186142,0.05025250464677811,0.08060240745544434,9.206564903259277,-0.16137148439884186,-2.8212196826934814
1413393888120760500,-0.005856785923242569,0.026259206235408783,0.08872435986995697,9.44023609161377,-0.44821274280548096,-2.8755784034729004
1413393888125760500,0.006980523467063904,0.03162311017513275,0.08778350800275803,9.135777473449707,-0.1954737901687622,-2.8440001010894775
1413393888130760500,0.01181771606206894,0.018419399857521057,0.0912463590502739,9.464599609375,0.029296670109033585,-3.00374436378479
1413393888135760500,0.010100454092025757,0.025886669754981995,0.08670443296432495,9.436802864074707,-0.03290431946516037,-3.0883209705352783
1413393888140760500,-0.015119422227144241,0.029271066188812256,0.0739356279373169,9.567892074584961,0.25903451442718506,-3.1841065883636475
1413393888145760500,-0.024525456130504608,0.052657514810562134,0.07178962230682373,9.213922500610352,-0.050249818712472916,-2.8597211837768555
1413393888150760500,-0.010579496622085571,0.037291593849658966,0.07958899438381195,8.991216659545898,-0.4690019190311432,-2.8640494346618652
1413393888155760500,0.008836284279823303,0.019759319722652435,0.08174581080675125,9.086499214172363,-0.41830015182495117,-2.840731143951416
1413393888160760500,0.017996661365032196,0.023003168404102325,0.07912160456180573,9.08337116241455,0.0050513348542153835,-2.819493532180786
1413393888165760500,0.012974798679351807,0.01802818849682808,0.08133205771446228,9.368999481201172,0.0011708614183589816,-3.142181396484375
1413393888170760500,-0.0002269931137561798,0.013255808502435684,0.07182767987251282,9.232008934020996,0.33979809284210205,-2.930422782897949
1413393888175760500,-0.021691584959626198,0.02719433605670929,0.07272615283727646,9.54810619354248,0.29213351011276245,-3.0815258026123047
1413393888180760500,-0.034377120435237885,0.04118986427783966,0.07516644150018692,9.098685264587402,-0.28679925203323364,-2.7941880226135254
1413393888185760500,-0.013606216758489609,0.008411362767219543,0.09029484540224075,9.241801261901855,-0.7269907593727112,-2.893385410308838
1413393888190760500,0.014856163412332535,0.015300728380680084,0.08576706796884537,9.507682800292969,-0.2125667780637741,-3.0085577964782715
1413393888195760500,0.021078240126371384,0.013567466288805008,0.09143123775720596,9.337407112121582,0.037259943783283234,-2.96207594871521
1413393888200760500,0.00908232107758522,0.0013529583811759949,0.07464670389890671,9.699065208435059,0.10107184201478958,-3.1201908588409424
1413393888205760500,-0.008243430405855179,0.005902346223592758,0.06306041777133942,9.760934829711914,0.31488776206970215,-3.2389910221099854
1413393888210760500,-0.02327311970293522,0.04125923663377762,0.0636884868144989,9.527100563049316,0.09342381358146667,-3.1048057079315186
1413393888215760500,-0.020449679344892502,0.02312580496072769,0.08466484397649765,8.994645118713379,-0.36555686593055725,-2.960127115249634
1413393888220760500,-0.0009600073099136353,0.01094185933470726,0.08484673500061035,9.47224235534668,-0.5522955060005188,-2.9525766372680664
1413393888225760500,0.017336934804916382,0.020990140736103058,0.0959823802113533,9.333235740661621,-0.1605047732591629,-3.016828775405884
1413393888230760500,0.015771396458148956,0.01778581738471985,0.08831670135259628,9.462353706359863,0.11849626898765564,-3.2391483783721924
1413393888235760500,0.0037023648619651794,0.01474270224571228,0.07732977718114853,9.478543281555176,0.24274824559688568,-3.0983426570892334
1413393888240760500,-0.017840402200818062,0.016452983021736145,0.07143129408359528,9.748180389404297,0.22748532891273499,-3.303629159927368
1413393888245760500,-0.027863994240760803,0.051945336163043976,0.07849261164665222,9.040603637695312,-0.2316931188106537,-2.866866111755371
1413393888250760500,-0.006348978728055954,0.031826697289943695,0.09243179857730865,9.113445281982422,-0.59833163022995,-2.8960981369018555
1413393888255760500,0.01846771314740181,0.021277621388435364,0.09789441525936127,9.182889938354492,-0.3318367600440979,-2.80397629737854
1413393888260760500,0.026410508900880814,0.0236881822347641,0.08970633149147034,9.31513786315918,-0.033238913863897324,-3.0175843238830566
1413393888265760500,0.01419094204902649,0.023567870259284973,0.07952550798654556,9.378569602966309,0.2305953949689865,-3.1523079872131348
1413393888270760500,-0.013966353610157967,0.019897431135177612,0.050080083310604095,9.48489761352539,0.22866253554821014,-3.1205646991729736
1413393888275760500,-0.02370823733508587,0.03768301010131836,0.05558927357196808,9.358575820922852,0.1651041954755783,-3.0734176635742188
1413393888280760500,-0.023141615092754364,0.048945970833301544,0.06277759373188019,9.014131546020508,-0.2331276535987854,-2.7010912895202637
1413393888285760500,-0.007352452725172043,0.023957423865795135,0.09019549190998077,9.004404067993164,-0.5123150944709778,-2.7067689895629883
1413393888290760500,0.008352745324373245,0.011729162186384201,0.09887464344501495,9.470651626586914,0.1879725605249405,-3.050924777984619
1413393888295760500,0.0039087459444999695,0.020528241991996765,0.08775646239519119,9.247461318969727,0.26162827014923096,-2.9392635822296143
1413393888300760500,-0.012983342632651329,0.013794369995594025,0.07197140902280807,9.61774730682373,-0.10269171744585037,-3.322115421295166
1413393888305760500,-0.011945616453886032,0.018568996340036392,0.077750064432621,9.635276794433594,-0.11073821038007736,-3.040949583053589
1413393888310760500,0.0016712658107280731,0.04236125200986862,0.07093115895986557,9.701925277709961,-0.6941059827804565,-3.036733388900757
1413393888315760500,0.031420525163412094,0.0458497554063797,0.0988340973854065,9.178653717041016,-0.553689181804657,-2.761993408203125
1413393888320760500,0.050395432859659195,0.010385558009147644,0.11363484710454941,9.369067192077637,-0.1106807067990303,-2.994702100753784
1413393888325760500,0.020428244024515152,0.03093574196100235,0.0949455052614212,9.764209747314453,0.6640733480453491,-3.2268152236938477
1413393888330760500,-0.03355730324983597,0.022658444941043854,0.06694425642490387,9.28702449798584,0.8697488903999329,-3.1544349193573
1413393888335760500,-0.05265270173549652,0.025454536080360413,0.0645267590880394,9.393704414367676,0.13574907183647156,-3.1282927989959717
1413393888340760500,-0.05566311255097389,0.0425606369972229,0.04911969602108002,9.36683177947998,-0.47988736629486084,-2.73197340965271
1413393888345760500,-0.018924511969089508,0.011039961129426956,0.07914837449789047,8.963953018188477,-0.7416426539421082,-2.9005773067474365
1413393888350760500,0.036378707736730576,0.01847272366285324,0.11386330425739288,9.324128150939941,-0.4033524692058563,-2.9211292266845703
1413393888355760500,0.04535337910056114,0.010959260165691376,0.109807588160038,9.343086242675781,0.25850969552993774,-3.1296629905700684
1413393888360760500,0.014141887426376343,0.02421616017818451,0.08740167319774628,9.540809631347656,0.41933685541152954,-3.12268328666687
1413393888365760500,-0.012261820957064629,0.029759801924228668,0.07248594611883163,9.655445098876953,-0.058902524411678314,-3.2378203868865967
1413393888370760500,-0.013630501925945282,0.047330185770988464,0.051620371639728546,9.54766845703125,-0.30930957198143005,-2.8912622928619385
1413393888375760500,0.009811103343963623,0.040795616805553436,0.08076681941747665,8.943390846252441,-0.03643360733985901,-2.7499306201934814
1413393888380760500,0.0056941919028759,0.03502821922302246,0.08099684119224548,9.287044525146484,0.35586270689964294,-3.2164466381073
1413393888385760500,-0.031847819685935974,0.05017770081758499,0.07101365178823471,9.215277671813965,0.43095847964286804,-3.0967812538146973
1413393888390760500,-0.05398484319448471,0.030260786414146423,0.07329026609659195,9.358124732971191,0.1537775695323944,-3.168048858642578
1413393888395760500,-0.05100973695516586,0.04417206346988678,0.06107610464096069,9.313359260559082,-0.855711042881012,-2.6728179454803467
1413393888400760500,-0.007412705570459366,0.03144510090351105,0.07673133909702301,8.642555236816406,-0.8521680235862732,-2.6443991661071777
1413393888405760500,0.0437428317964077,0.0017721578478813171,0.09027789533138275,9.27771282196045,-0.684640109539032,-2.948082447052002
1413393888410760500,0.05139399692416191,0.0008209496736526489,0.07683419436216354,9.29914379119873,0.06090737134218216,-2.9699063301086426
1413393888415760500,0.0359971858561039,0.0029708482325077057,0.07371504604816437,9.592313766479492,0.23800437152385712,-3.073827028274536
1413393888420760500,0.004291791468858719,0.0051416754722595215,0.08534388244152069,9.637365341186523,0.4831008017063141,-2.9581856727600098
1413393888425760500,-0.0172814279794693,0.018638305366039276,0.09577371180057526,9.350207328796387,0.43481653928756714,-2.862583637237549
1413393888430760500,-0.04634440690279007,0.00672854483127594,0.08627360314130783,9.097664833068848,0.4960837960243225,-2.97232985496521
1413393888435760500,-0.06137954816222191,0.010689668357372284,0.07613446563482285,9.772357940673828,-0.3458764851093292,-3.1346325874328613
1413393888440760500,-0.05199302360415459,0.019089188426733017,0.05233877897262573,9.162328720092773,-0.5942694544792175,-2.877865791320801
1413393888445760500,0.00508127361536026,0.015868697315454483,0.08857012540102005,9.594770431518555,-0.8873720169067383,-2.994222402572632
1413393888450760500,0.04111124202609062,0.03894323855638504,0.09005113691091537,9.265219688415527,-0.13081857562065125,-2.9746150970458984
1413393888455760500,0.05322666093707085,0.031519219279289246,0.10694091767072678,9.25024700164795,0.179805725812912,-3.0567121505737305
1413393888460760500,0.022478710860013962,0.044653914868831635,0.0612143948674202,9.214914321899414,0.14210724830627441,-3.1042301654815674
1413393888465760500,0.008821029216051102,0.016013123095035553,0.0828547477722168,9.418017387390137,0.3579127788543701,-3.1619534492492676
1413393888470760500,0.001564227044582367,0.0289791077375412,0.08795111626386642,9.4536771774292,0.17426343262195587,-3.051889657974243
1413393888475760500,-0.0218917578458786,0.027593813836574554,0.09147736430168152,8.658440589904785,0.47742974758148193,-2.9080424308776855
1413393888480760500,-0.04668070003390312,0.008613038808107376,0.08950095623731613,9.386453628540039,-0.020304623991250992,-3.1204934120178223
1413393888485760500,-0.056727051734924316,0.009818561375141144,0.05819936841726303,9.245251655578613,-0.5042979121208191,-3.116095542907715
1413393888490760500,-0.0054875873029232025,0.0003866739571094513,0.08238013833761215,9.56230354309082,-0.65949547290802,-2.8972017765045166
1413393888495760500,0.020969171077013016,0.014315702021121979,0.07950937002897263,9.970800399780273,-0.5874958634376526,-3.329378604888916
1413393888500760500,0.029348377138376236,0.05223406106233597,0.07746955007314682,8.896465301513672,0.029363753274083138,-2.6623992919921875
1413393888505760500,0.012769043445587158,0.025035828351974487,0.07037892937660217,9.665666580200195,-0.09003694355487823,-3.2227141857147217
1413393888510760500,0.00754917785525322,0.043292805552482605,0.07783602923154831,9.618820190429688,-0.0475618913769722,-3.152169704437256
1413393888515760500,0.025668200105428696,0.02985391765832901,0.11057721078395844,9.570865631103516,0.19504855573177338,-3.0615081787109375
1413393888520760500,0.0021926574409008026,0.08787612617015839,0.10206696391105652,9.279642105102539,0.44801273941993713,-3.2107887268066406
1413393888525760500,-0.028259718790650368,0.05503101646900177,0.0994071215391159,8.74934196472168,0.24320758879184723,-2.623772144317627
1413393888530760500,-0.05240331590175629,0.03226751834154129,0.06280733644962311,9.475632667541504,-0.25563353300094604,-3.410552740097046
1413393888535760500,-0.024082448333501816,0.05551423877477646,0.07166489213705063,9.20173454284668,-0.5025197863578796,-2.785935401916504
1413393888540760500,0.011936787515878677,0.028229735791683197,0.08469896763563156,9.11420726776123,-0.6412888765335083,-3.0037951469421387
1413393888545760500,0.025884319096803665,0.04398895800113678,0.07688777893781662,8.623112678527832,-0.22381432354450226,-2.5719850063323975
1413393888550760500,0.017468128353357315,-0.003906615078449249,0.05542195588350296,8.672490119934082,-0.19008001685142517,-2.5877745151519775
1413393888555760500,0.01680975779891014,-0.008914098143577576,0.05800526589155197,9.899577140808105,0.13474887609481812,-3.3462228775024414
1413393888560760500,0.014116644859313965,0.025139756500720978,0.07359786331653595,9.511021614074707,0.5808387994766235,-3.1775362491607666
1413393888565760500,-0.002132680267095566,0.0338628888130188,0.10788186639547348,9.15591812133789,0.41074028611183167,-2.682669162750244
1413393888570760500,-0.034577470272779465,0.04469192773103714,0.08195872604846954,9.111252784729004,-0.030182844027876854,-2.694815158843994
1413393888575760500,-0.031169038265943527,-0.0019843876361846924,0.07362838089466095,9.454785346984863,-0.37453851103782654,-2.935351610183716
1413393888580760500,-0.00655563548207283,0.0254715234041214,0.0816936194896698,9.81390380859375,-0.4611963629722595,-3.155914783477783
1413393888585760500,0.008691318333148956,0.019944526255130768,0.10752185434103012,9.590482711791992,-0.07401248067617416,-2.8151795864105225
1413393888590760500,0.007666390389204025,0.03293254226446152,0.09662198275327682,9.638396263122559,-0.18247383832931519,-3.0233957767486572
1413393888595760500,-0.002564016729593277,0.028852179646492004,0.06422369927167892,9.441370010375977,-0.5244694352149963,-2.65928053855896
1413393888600760500,0.011836286634206772,0.027526333928108215,0.05131213366985321,9.64659595489502,-0.37810277938842773,-3.1624693870544434
1413393888605760500,0.02664211019873619,0.012956678867340088,0.06761845201253891,9.670561790466309,-0.019796032458543777,-2.665440320968628
1413393888610760500,0.010333266109228134,0.026489846408367157,0.07731085270643234,9.623619079589844,-0.018940143287181854,-2.79075288772583
1413393888615760500,-0.011687397956848145,0.05419103801250458,0.07087214291095734,9.087027549743652,0.08055804669857025,-2.60524582862854
1413393888620760500,-0.018251998350024223,0.01599869877099991,0.08760678023099899,9.191876411437988,0.03461000323295593,-3.1552908420562744
1413393888625760500,-0.008464790880680084,0.02563811093568802,0.11392169445753098,9.567151069641113,0.25369253754615784,-3.3472750186920166
1413393888630760500,-0.018180811777710915,0.026340581476688385,0.11479280889034271,9.328564643859863,-0.09879609197378159,-3.1180293560028076
1413393888635760500,-0.02039879932999611,0.039081864058971405,0.08179543912410736,9.118416786193848,-0.3037222623825073,-2.959642171859741
1413393888640760500,0.014008503407239914,0.0036844462156295776,0.08211489766836166,9.005777359008789,-0.5455544590950012,-2.7760658264160156
1413393888645760500,0.033083852380514145,0.010616272687911987,0.08680234104394913,9.584330558776855,0.04811188206076622,-3.1679043769836426
1413393888650760500,0.009447913616895676,0.03082554042339325,0.07631227374076843,9.301368713378906,0.22515632212162018,-3.0097479820251465
1413393888655760500,-0.017589999362826347,0.061977237462997437,0.052670158445835114,9.398226737976074,-0.022473864257335663,-3.2506449222564697
1413393888660760500,0.0006716288626194,0.0063702985644340515,0.07023032009601593,8.425146102905273,-0.04349829629063606,-2.4223315715789795
1413393888665760500,0.010980207473039627,0.0262640118598938,0.09785895049571991,9.770186424255371,0.37847259640693665,-3.17063307762146
1413393888670760500,-0.01795683056116104,0.06792283058166504,0.06932328641414642,9.38360595703125,-0.1955816000699997,-3.0930309295654297
1413393888675760500,-0.0224536694586277,0.02544809877872467,0.08052319288253784,8.618070602416992,-0.6137429475784302,-2.552816867828369
1413393888680760500,0.021679040044546127,0.01987748220562935,0.09584861248731613,9.496298789978027,-0.39300599694252014,-3.0774624347686768
1413393888685760500,0.006230637431144714,0.015431582927703857,0.09782922267913818,9.243473052978516,0.5389479994773865,-3.1524198055267334
1413393888690760500,-0.031407639384269714,0.04062478244304657,0.055386774241924286,9.629902839660645,-0.2145373523235321,-3.2124385833740234
1413393888695760500,-0.012017957866191864,-0.013188999146223068,0.059791214764118195,8.608959197998047,-0.5643138885498047,-2.4753565788269043
1413393888700760500,0.023742910474538803,0.02527955174446106,0.06531787663698196,9.848064422607422,-0.1343299299478531,-3.001561403274536
1413393888705760500,0.00641341507434845,0.017179585993289948,0.07542961835861206,9.5357027053833,0.4950183629989624,-3.403977155685425
1413393888710760500,-0.027062159031629562,0.028875119984149933,0.0549403578042984,9.094779968261719,-0.3048364818096161,-2.558969020843506
1413393888715760500,0.011168017983436584,0.0020142197608947754,0.09015373885631561,9.739109992980957,-0.8193302750587463,-2.917579412460327
1413393888720760500,0.03129097446799278,0.0129164420068264,0.11378086358308792,9.428958892822266,0.6258595585823059,-3.4278714656829834
1413393888725760500,-0.008813813328742981,0.06156107783317566,0.08417491614818573,9.987625122070312,0.24153019487857819,-3.0049333572387695
1413393888730760500,-0.029467973858118057,0.033233173191547394,0.0904780775308609,9.198352813720703,-0.6892244815826416,-3.0374302864074707
1413393888735760500,0.010006524622440338,0.046341076493263245,0.10246503353118896,8.869463920593262,0.0691758319735527,-2.5288946628570557
1413393888740760500,0.0026305466890335083,0.056631892919540405,0.10235890001058578,10.476168632507324,0.21535764634609222,-3.66184401512146
1413393888745760500,-0.022571474313735962,0.048612743616104126,0.05738154053688049,8.424408912658691,-0.41320082545280457,-2.4195401668548584
1413393888750760500,0.0017646774649620056,0.016464050859212875,0.063136987388134,8.753514289855957,-0.33260515332221985,-2.6973371505737305
1413393888755760500,0.033419664949178696,0.04138889163732529,0.10809598863124847,10.453316688537598,0.35051190853118896,-3.638171911239624
1413393888760760500,-0.008881567046046257,0.07804232835769653,0.06053682416677475,8.43718147277832,-0.056630879640579224,-2.5852434635162354
1413393888765760500,-0.015798170119524002,-0.004478961229324341,0.036782972514629364,8.931333541870117,-0.5250550508499146,-2.6278076171875
1413393888770760500,0.011791836470365524,0.01478465273976326,0.09739896655082703,9.829689025878906,0.515113115310669,-3.631777763366699
1413393888775760500,-0.00708368793129921,0.07461915910243988,0.07116981595754623,8.510590553283691,-0.269050657749176,-2.8049368858337402
1413393888780760500,-0.03762378171086311,0.02005186304450035,0.025832243263721466,8.746650695800781,-0.5830296277999878,-2.5728635787963867
1413393888785760500,0.005957484245300293,0.015506871044635773,0.1040787547826767,9.890393257141113,0.38185542821884155,-3.482828140258789
1413393888790760500,0.01160285621881485,0.06974127143621445,0.11012198030948639,8.94505786895752,-0.29059305787086487,-2.796983480453491
1413393888795760500,-0.005389336496591568,0.012951716780662537,0.06465272605419159,8.817620277404785,-0.7772100567817688,-2.4140021800994873
1413393888800760500,0.014667663723230362,-0.028360269963741302,0.09587368369102478,8.956315994262695,0.4996805489063263,-3.0173492431640625
1413393888805760500,0.01144469529390335,0.010573044419288635,0.11621759086847305,9.818955421447754,0.5204169154167175,-3.261899709701538
1413393888810760500,-0.02458663284778595,0.014523342251777649,0.06343286484479904,9.55791187286377,-0.83909010887146,-2.76865816116333
1413393888815760500,-0.018678778782486916,-0.02226320281624794,0.05086333304643631,8.717574119567871,-0.23216001689434052,-2.831949472427368
1413393888820760500,0.006137274205684662,0.013317123055458069,0.09267312288284302,10.329423904418945,0.4114256799221039,-3.4746031761169434
1413393888825760500,-0.008355900645256042,0.03544790297746658,0.09850934892892838,9.702888488769531,-0.3820365071296692,-2.696746587753296
1413393888830760500,-0.012070151045918465,-0.0052987076342105865,0.050190165638923645,8.529106140136719,-0.3783106505870819,-2.8876166343688965
1413393888835760500,0.027417290955781937,0.00015120208263397217,0.11556649208068848,10.279706001281738,0.29653027653694153,-3.2971115112304688
1413393888840760500,0.0036669783294200897,0.056390181183815,0.10744936019182205,9.804288864135742,-0.12387537211179733,-3.354248285293579
1413393888845760500,-0.012646151706576347,0.023818187415599823,0.0632893517613411,8.009071350097656,-0.08221057802438736,-2.4609735012054443
1413393888850760500,0.013104252517223358,0.014686375856399536,0.11057845503091812,9.868130683898926,0.3848401606082916,-3.3434269428253174
1413393888855760500,-0.0011865980923175812,0.0638849139213562,0.09151145070791245,9.763225555419922,0.037878312170505524,-3.222132921218872
1413393888860760500,-0.02636294811964035,0.03640301525592804,0.01794615387916565,7.755586624145508,-0.20156800746917725,-2.3664133548736572
1413393888865760500,-0.004865527153015137,-0.013259904459118843,0.07996830344200134,9.989703178405762,0.4702761173248291,-3.343376636505127
1413393888870760500,-0.007764890789985657,0.04226244240999222,0.08502674102783203,9.657830238342285,0.08956719934940338,-3.2056081295013428
1413393888875760500,-0.023913148790597916,0.04786276817321777,0.034221746027469635,8.552742004394531,-0.4622098505496979,-2.404709577560425
1413393888880760500,0.0014842040836811066,-0.008847422897815704,0.08572612702846527,9.456697463989258,0.12554243206977844,-3.1453287601470947
1413393888885760500,0.02233124151825905,0.0245073139667511,0.11625239253044128,9.790335655212402,-0.2970685660839081,-3.187840223312378
1413393888890760500,-0.0008535981178283691,0.04691583663225174,0.06269238889217377,8.695379257202148,-0.6588743329048157,-2.254103660583496
1413393888895760500,0.002934429794549942,0.009037971496582031,0.08656534552574158,10.271077156066895,0.35859912633895874,-3.5621790885925293
1413393888900760500,0.002772759646177292,0.03888498246669769,0.11755963414907455,9.719246864318848,0.10317732393741608,-3.1975767612457275
1413393888905760500,-0.035329531878232956,0.05890074372291565,0.046759411692619324,9.471589088439941,-0.7617927193641663,-3.099026918411255
1413393888910760500,-0.031484927982091904,0.03184335678815842,0.03778288513422012,9.425827026367188,0.024750694632530212,-3.1207523345947266
1413393888915760500,0.0040255822241306305,0.0161677747964859,0.10416623950004578,9.088250160217285,-0.0889260321855545,-2.9295904636383057
1413393888920760500,-0.005900032818317413,0.04637185484170914,0.058194249868392944,9.90764331817627,-1.2602242231369019,-3.041059970855713
1413393888925760500,-0.0018564127385616302,0.030024446547031403,0.03765963017940521,8.978116035461426,0.13073858618736267,-3.325404405593872
1413393888930760500,0.03381926193833351,0.01932743564248085,0.13518604636192322,8.725873947143555,0.48945724964141846,-2.7264292240142822
1413393888935760500,0.01050134003162384,0.0284159854054451,0.09636960178613663,10.061019897460938,-0.8451770544052124,-2.8133256435394287
1413393888940760500,-0.009828157722949982,0.036328308284282684,0.06222396343946457,9.453519821166992,0.2597769498825073,-2.979090690612793
1413393888945760500,0.0315483994781971,0.011584073305130005,0.15034371614456177,9.482823371887207,0.05366704240441322,-2.8955860137939453
1413393888950760500,-0.01219801977276802,0.024419084191322327,0.08424146473407745,9.583117485046387,-0.32545387744903564,-3.1990911960601807
1413393888955760500,-0.02877698466181755,0.04713404178619385,0.06661605834960938,9.02287769317627,0.8014013767242432,-2.8680977821350098
1413393888960760500,0.0003815777599811554,0.006857536733150482,0.15171760320663452,10.059077262878418,-0.21634061634540558,-3.2798166275024414
1413393888965760500,-0.02806522324681282,0.06783163547515869,0.07123535126447678,9.817419052124023,-0.7678528428077698,-3.3598945140838623
1413393888970760500,-0.017948441207408905,0.08367273211479187,0.06838550418615341,8.677099227905273,0.28840357065200806,-2.630514621734619
1413393888975760500,0.03286981210112572,0.048444002866744995,0.12908202409744263,9.563164710998535,-0.677802324295044,-2.62337064743042
1413393888980760500,0.014981064945459366,0.056646302342414856,0.056731171905994415,9.216195106506348,-0.779120922088623,-2.9454445838928223
1413393888985760500,0.01967177540063858,0.04747219383716583,0.057555750012397766,8.966020584106445,0.47341248393058777,-2.661330223083496
1413393888990760500,0.0352453850209713,0.026735328137874603,0.10015005618333817,10.031328201293945,0.008004947565495968,-3.2770111560821533
1413393888995760500,-0.0054012686014175415,0.0801667720079422,0.029974333941936493,8.933101654052734,0.5352627038955688,-3.142676830291748
1413393889000760500,-0.018613509833812714,0.03867234289646149,0.0971836969256401,8.453042030334473,0.6647263169288635,-2.5271496772766113
1413393889005760500,-0.033985115587711334,0.03817017376422882,0.07171984761953354,9.995193481445312,0.033300139009952545,-3.5839996337890625
1413393889010760500,-0.05322924256324768,0.07293940335512161,0.047286584973335266,8.010995864868164,0.12434730678796768,-2.72110915184021
1413393889015760500,-0.020107105374336243,-0.009479060769081116,0.09773797541856766,8.766478538513184,-0.40383583307266235,-2.488576650619507
1413393889020760500,-0.015489660203456879,0.02707570791244507,0.07634090632200241,9.518561363220215,-0.6801868081092834,-3.340790033340454
1413393889025760500,0.0005257166922092438,0.009241916239261627,0.08071332424879074,8.220218658447266,-0.23825234174728394,-2.417119264602661
1413393889030760500,0.03105003759264946,-0.03219176083803177,0.10050851106643677,10.106690406799316,-0.7044858336448669,-2.9924778938293457
1413393889035760500,0.026741821318864822,0.05161812901496887,0.051326096057891846,9.694266319274902,-0.44121429324150085,-2.9327199459075928
1413393889040760500,0.036692891269922256,-0.008927054703235626,0.07582706958055496,8.982351303100586,0.29375898838043213,-2.3103578090667725
1413393889045760500,0.007932089269161224,-0.00598791241645813,0.05941688269376755,11.017306327819824,0.16645687818527222,-3.7668395042419434
1413393889050760500,-0.02969280630350113,0.11102870106697083,0.02569785714149475,8.63573932647705,0.24227266013622284,-2.7509520053863525
1413393889055760500,-0.026068508625030518,0.011979784816503525,0.0688653215765953,9.46253776550293,-0.08888056129217148,-2.8302528858184814
1413393889060760500,-0.032478634268045425,0.08350571990013123,0.06318105012178421,10.158960342407227,-0.05911147594451904,-3.323092222213745
1413393889065760500,-0.021765191107988358,0.0398210734128952,0.10264617204666138,8.100834846496582,0.0021037098485976458,-2.00044584274292
1413393889070760500,-0.006788451224565506,-0.02732524834573269,0.11417357623577118,9.864980697631836,-0.7117480635643005,-3.055617094039917
1413393889075760500,0.009444545954465866,0.051294006407260895,0.10561872273683548,9.180132865905762,-0.5187281370162964,-3.227541208267212
1413393889080760500,0.035957228392362595,-0.0037200413644313812,0.12942388653755188,8.776480674743652,-0.17784813046455383,-2.867522716522217
1413393889085760500,0.029731180518865585,-0.0019591450691223145,0.10472463816404343,10.339802742004395,-0.04104827344417572,-3.1250455379486084
1413393889090760500,0.02758539840579033,0.04542706906795502,0.09998588263988495,8.760113716125488,0.06142616644501686,-2.791958808898926
1413393889095760500,0.022757943719625473,-0.009544581174850464,0.09723976999521255,9.959493637084961,0.0912676602602005,-3.1312906742095947
1413393889100760500,-0.007031235843896866,0.01774989813566208,0.06452222168445587,10.064013481140137,0.423799067735672,-3.1950595378875732
1413393889105760500,-0.020260442048311234,0.02308148890733719,0.07074189186096191,9.824128150939941,0.5494654774665833,-2.940286874771118
1413393889110760500,-0.042124561965465546,0.035090893507003784,0.05234334617853165,10.319826126098633,-0.025757618248462677,-2.91731595993042
1413393889115760500,-0.01612488180398941,0.08174251019954681,0.09989961236715317,9.276859283447266,-0.19682808220386505,-3.502105712890625
1413393889120760500,-0.0016146637499332428,0.10474511981010437,0.11232928186655045,9.386557579040527,-0.7273553609848022,-2.8299553394317627
1413393889125760500,0.008372247219085693,0.09498283267021179,0.10717584192752838,8.58615493774414,-0.5109783411026001,-2.8767905235290527
1413393889130760500,0.03809645399451256,0.0846785306930542,0.12228501588106155,8.530743598937988,0.2671796977519989,-3.0521507263183594
1413393889135760500,0.019622698426246643,0.01133912056684494,0.10469670593738556,9.39291000366211,0.07578431814908981,-2.3867955207824707
1413393889140760500,-0.0018876828253269196,0.012888193130493164,0.09401477873325348,8.471837043762207,0.3505699336528778,-3.5307862758636475
1413393889145760500,-0.024088598787784576,-0.0043196529150009155,0.07386929541826248,8.770545959472656,-0.0376441515982151,-2.509662628173828
1413393889150760500,-0.03196689113974571,-0.03148936480283737,0.04558508098125458,9.246379852294922,-0.10886051505804062,-3.363454580307007
1413393889155760500,0.001968536525964737,-0.020553186535835266,0.07363279163837433,9.464425086975098,-0.3245229125022888,-3.1326091289520264
1413393889160760500,-0.007331136614084244,-0.017514711245894432,0.03716655075550079,10.065802574157715,-0.04440077021718025,-2.885637044906616
1413393889165760500,0.016057506203651428,0.040785059332847595,0.0791308581829071,9.544443130493164,0.9117110371589661,-3.2221271991729736
1413393889170760500,-0.0009354837238788605,0.06318005919456482,0.06416041404008865,9.503584861755371,-0.03996625170111656,-2.5072479248046875
1413393889175760500,-0.004212014377117157,0.045421212911605835,0.09816258400678635,8.564215660095215,0.7646605372428894,-3.058657169342041
1413393889180760500,-0.005267813801765442,0.10065177083015442,0.10671636462211609,10.546217918395996,-0.4976252317428589,-3.6030852794647217
1413393889185760500,-0.016078412532806396,0.050988875329494476,0.07695312052965164,8.213285446166992,-0.573138952255249,-1.5044763088226318
1413393889190760500,0.031747739762067795,-8.013471961021423e-05,0.1258489489555359,9.564278602600098,-0.5776105523109436,-3.8727424144744873
1413393889195760500,0.018780093640089035,0.04743104428052902,0.05841776728630066,9.466715812683105,-0.9563156366348267,-2.360938310623169
1413393889200760500,0.01857059821486473,-0.08405138552188873,0.094554603099823,7.788539886474609,0.6326611042022705,-2.9943153858184814
1413393889205760500,-0.00846206396818161,0.01967902109026909,0.05228192359209061,11.194052696228027,-0.4185582101345062,-2.9892749786376953
1413393889210760500,-0.038781918585300446,-0.012972988188266754,0.04967854917049408,8.158012390136719,0.6956053972244263,-2.244652271270752
1413393889215760500,-0.005585053606381855,0.03560471674068433,0.0879645943005142,12.250140291666666,-0.8907707083333333,-4.126965208333333
1413393889220760500,-0.01914823427796364,0.05313807725906372,0.05024900287389755,8.90006160736084,-0.11953948438167572,-1.679255723953247
1413393889225760500,0.025145087391138077,0.026180297136306763,0.10729700326919556,10.791996002197266,-0.09606903046369553,-4.815547943115234
1413393889230760500,0.0014232471585273743,0.15255703032016754,0.02094307169318199,9.46666145324707,-0.47842487692832947,-2.3411333560943604
1413393889235760500,0.014149107038974762,0.02048957347869873,0.11055402457714081,8.350014686584473,0.8144016861915588,-3.461796998977661
1413393889240760500,-0.007364243268966675,0.14793598651885986,0.04778590798377991,9.65279483795166,-1.0521831512451172,-2.9225289821624756
1413393889245760500,0.0020943951023931952,-0.010471975511965976,0.09983283321407566,6.407011333333333,0.8499096666666667,-1.6426138750000001
1413393889250760500,0.009783942252397537,0.03641729801893234,0.09929889440536499,10.53070068359375,-0.7877387404441833,-3.359574794769287
1413393889255760500,0.008377580409572781,-0.0307177948351002,0.10402162341886204,7.191543333333333,0.5557101666666666,-1.299381125
1413393889260760500,0.03454792872071266,-0.07449886202812195,0.14368003606796265,10.144315719604492,-0.7871061563491821,-4.482373237609863
1413393889265760500,0.00828344002366066,0.02446810156106949,0.07491441071033478,7.792149066925049,0.5391259789466858,-1.5224729776382446
1413393889270760500,0.01911751553416252,-0.04766251891851425,0.11657966673374176,10.562243461608887,0.08583076298236847,-4.543838977813721
1413393889275760500,-0.04673527553677559,0.06545164436101913,0.000271722674369812,9.045278549194336,-0.000175730514456518,-2.1184144020080566
1413393889280760500,-0.010659199208021164,-0.018388770520687103,0.1116296648979187,9.30482292175293,0.4521059989929199,-3.4647274017333984
1413393889285760500,-0.0242622010409832,0.08111526072025299,0.022222936153411865,9.550103187561035,-1.0659074783325195,-2.5976920127868652
1413393889290760500,0.02428683266043663,-0.02263515442609787,0.09970796853303909,7.696463584899902,0.11141838878393173,-2.395277976989746
1413393889295760500,0.03962847217917442,0.02622951567173004,0.03934531658887863,9.685172080993652,-0.8255556225776672,-2.866339921951294
1413393889300760500,0.046676378697156906,-0.051954083144664764,0.08564723283052444,8.618339538574219,0.7655172348022461,-2.6284546852111816
1413393889305760500,0.013583730906248093,-0.027419377118349075,0.04486031085252762,9.66093635559082,0.26114749908447266,-3.3754005432128906
1413393889310760500,-0.008358199149370193,-0.04990473762154579,0.10111510008573532,8.354901313781738,0.5624791979789734,-2.3769166469573975
1413393889315760500,-0.027704715728759766,-0.053314048796892166,0.0865393802523613,9.954800605773926,-0.4628753960132599,-3.267798900604248
1413393889320760500,-0.03319335728883743,-0.03734356909990311,0.07898826152086258,10.31613826751709,-0.43808436393737793,-3.5554609298706055
1413393889325760500,-0.009504977613687515,-0.03374658524990082,0.08697697520256042,8.533441543579102,0.024563774466514587,-2.615704298019409
1413393889330760500,0.004379115998744965,-0.012841913849115372,0.07333599776029587,9.860326766967773,-0.8549537062644958,-3.808556079864502
1413393889335760500,0.0033362917602062225,-0.010922359302639961,0.07368326187133789,8.01453685760498,0.7494638562202454,-2.022143840789795
1413393889340760500,0.004027247428894043,-0.08939184248447418,0.11358721554279327,10.10432243347168,-0.06747481971979141,-4.029691219329834
1413393889345760500,-0.015538882464170456,0.0001918487250804901,0.09541934728622437,9.248696327209473,0.4184383153915405,-2.824721336364746
1413393889350760500,-0.009387511759996414,-0.06023796275258064,0.11917469650506973,9.149473190307617,-0.514431893825531,-3.54375958442688
1413393889355760500,-0.014136334881186485,-0.04301925376057625,0.08536089956760406,9.83580207824707,-0.08873461931943893,-2.6958673000335693
1413393889360760500,0.006582856178283691,-0.04379824921488762,0.0951751321554184,10.19692325592041,-0.18926763534545898,-3.6786623001098633
1413393889365760500,-0.013686656951904297,0.007681213319301605,0.04193202406167984,9.682945251464844,-0.503120481967926,-2.0807254314422607
1413393889370760500,0.01321520283818245,-0.037502359598875046,0.09955505281686783,8.42695426940918,0.1503472924232483,-3.470964193344116
1413393889375760500,-0.011836649850010872,-0.02449457347393036,0.07367293536663055,8.387821197509766,-0.2596118450164795,-2.4817984104156494
1413393889380760500,0.0004930682480335236,-0.06660106778144836,0.14732883870601654,9.563384056091309,0.8038751482963562,-3.9182379245758057
1413393889385760500,-0.027693048119544983,-0.019322967156767845,0.11913250386714935,9.631058692932129,-0.644143283367157,-3.17301607131958
1413393889390760500,0.0007110275328159332,-0.032885536551475525,0.1515394151210785,10.017938613891602,0.21353907883167267,-3.285388946533203
1413393889395760500,-0.0020500682294368744,0.006834264844655991,0.09818258881568909,8.754380226135254,-1.2482728958129883,-2.9919240474700928
1413393889400760500,0.017338719218969345,-0.06290416419506073,0.09214326739311218,9.031081199645996,0.3481951951980591,-3.52109956741333
1413393889405760500,0.0076706260442733765,-0.03352291136980057,0.05512259155511856,9.18565845489502,-0.2712884247303009,-2.7141027450561523
1413393889410760500,0.0034526437520980835,-0.08593375980854034,0.0933578610420227,9.986910820007324,0.2954357862472534,-3.6126456260681152
1413393889415760500,-0.017050929367542267,0.01539301872253418,0.09681660681962967,9.352110862731934,0.05806731805205345,-3.0204520225524902
1413393889420760500,-0.012001778930425644,-0.02542281709611416,0.14323046803474426,9.003721237182617,-0.0605340413749218,-2.9563541412353516
1413393889425760500,-0.0034026019275188446,0.03069811314344406,0.14666810631752014,9.218632698059082,-0.36913856863975525,-2.9096615314483643
1413393889430760500,0.013888206332921982,0.010918665677309036,0.1424883008003235,9.868230819702148,-0.38149523735046387,-3.6692450046539307
1413393889435760500,-0.015112753957509995,0.038836874067783356,0.05891413986682892,8.626476287841797,0.22103756666183472,-3.329808235168457
1413393889440760500,-0.044298116117715836,-0.029977159574627876,0.029341384768486023,8.56580924987793,-0.010223601944744587,-3.0192196369171143
1413393889445760500,-0.05746475234627724,-0.022036178037524223,0.02265000343322754,8.834426879882812,0.46979427337646484,-2.7298970222473145
1413393889450760500,-0.0565643347799778,-0.06885460019111633,0.030026257038116455,8.364706993103027,-1.1926027536392212,-2.292175769805908
1413393889455760500,-0.04924043267965317,-0.12207091599702835,0.05354072153568268,8.882468223571777,0.2320774346590042,-2.855043888092041
1413393889460760500,-0.008377580409572781,-0.15707963267948966,0.09285151620609833,8.760607333333333,-0.7600153749999999,-1.5363751666666667
1413393889465760500,-0.019128061830997467,-0.14968961477279663,0.09103626757860184,10.528355598449707,-0.109332375228405,-4.436982154846191
1413393889470760500,0.007208336144685745,-0.09425871819257736,0.12497816979885101,9.33238697052002,0.07126814872026443,-2.5175883769989014
1413393889475760500,-0.03057173453271389,-0.11464835703372955,0.11689503490924835,9.789857864379883,0.31242677569389343,-4.558662414550781
1413393889480760500,-0.007350604981184006,-0.018114181235432625,0.1546247899532318,9.198585510253906,0.3422833979129791,-2.548262119293213
1413393889485760500,-0.03955816477537155,-0.07661670446395874,0.13278117775917053,10.34376335144043,-0.513969361782074,-4.412486553192139
1413393889490760500,0.0025758109986782074,0.034630343317985535,0.11005346477031708,10.336797714233398,-0.4128345847129822,-2.7327492237091064
1413393889495760500,0.015114150941371918,-0.058692723512649536,0.11474955826997757,8.328842163085938,-0.6842614412307739,-3.914294719696045
1413393889500760500,0.027055907994508743,0.006369341164827347,0.09268881380558014,9.650105476379395,0.19672034680843353,-2.673574686050415
1413393889505760500,0.0008733049035072327,-0.12590572237968445,0.1059214249253273,7.676342487335205,0.5466850996017456,-3.06115984916687
1413393889510760500,-0.018219048157334328,-0.09638507664203644,0.12802350521087646,11.244057655334473,0.7813267707824707,-3.630068302154541
1413393889515760500,-0.05445427266222308,-0.18291050560900574,0.08866272600131193,7.077132416666666,0.04086104166666667,-1.9776744166666664
1413393889520760500,-0.025804219767451286,-0.21870571374893188,0.13663822412490845,10.647045135498047,-0.6605902910232544,-3.798093795776367
1413393889525760500,-0.023038346126325153,-0.25342180738957665,0.04328416544945937,6.905516041666667,-0.612915625,-2.0267076666666664
1413393889530760500,0.010829199105501175,-0.3381536602973938,0.08567381650209427,10.457502365112305,-0.3136581778526306,-4.208179473876953
1413393889535760500,-0.013264502315156905,-0.278554548618295,0.017453292519943295,8.253930416666666,0.9071151249999999,-2.0021910416666664
1413393889540760500,-0.027925268031909273,-0.3364994797845067,0.06283185307179587,11.906907541666666,0.6456044583333332,-4.870636166666666
1413393889545760500,-0.08726646259971647,-0.19408061282176942,-0.013962634015954637,8.433719,0.4004382083333333,-1.2585200833333332
1413393889550760500,-0.06614896655082703,-0.27163487672805786,0.11898549646139145,12.063323020935059,-0.3868767023086548,-3.711709976196289
1413393889555760500,-0.04384484514594078,-0.08083929121494293,0.05792488902807236,9.648569107055664,-1.0610322952270508,-2.369136333465576
1413393889560760500,0.0067864954471588135,-0.19565720856189728,0.16825175285339355,10.774195671081543,-0.2306683212518692,-3.806206703186035
1413393889565760500,0.0075192563235759735,-0.08280302584171295,0.08314897119998932,8.806894302368164,-0.009894009679555893,-3.081451177597046
1413393889570760500,-0.012474220246076584,-0.2015450894832611,0.14815381169319153,10.051217079162598,0.7773075103759766,-3.839742422103882
1413393889575760500,-0.06684018671512604,-0.17119288444519043,0.059466779232025146,8.172080039978027,0.6295207142829895,-3.7043118476867676
1413393889580760500,-0.09207728505134583,-0.27466881275177,0.09707193076610565,10.332680702209473,0.34907349944114685,-4.400073051452637
1413393889585760500,-0.09589182585477829,-0.20955730974674225,0.025369293987751007,7.265890121459961,-0.3338059186935425,-3.0904290676116943
1413393889590760500,-0.05480019375681877,-0.3397074043750763,0.048699453473091125,10.059345245361328,-0.8754838109016418,-4.23067569732666
1413393889595760500,-0.036323998123407364,-0.2856815457344055,0.00949929654598236,9.478696823120117,0.03527919203042984,-3.262803316116333
1413393889600760500,-0.03399117290973663,-0.32018736004829407,0.009434521198272705,10.626863479614258,0.4322407841682434,-4.894619464874268
1413393889605760500,-0.06594078242778778,-0.22020243108272552,-0.014520645141601562,9.947169303894043,1.3055224418640137,-2.736220121383667
1413393889610760500,-0.11581754684448242,-0.28832340240478516,0.016948051750659943,10.73401927947998,0.33316394686698914,-4.5487380027771
1413393889615760500,-0.10979856550693512,-0.1599942445755005,0.04097055643796921,9.749035835266113,0.0024734248872846365,-2.63271427154541
1413393889620760500,-0.09098280966281891,-0.24644328653812408,0.04846986383199692,9.979958534240723,-1.2043558359146118,-3.9914135932922363
1413393889625760500,-0.027211174368858337,-0.2057161182165146,0.06576267629861832,9.486666679382324,-0.39721760153770447,-2.906989097595215
1413393889630760500,-0.01596877910196781,-0.2417733520269394,0.05395198613405228,10.591917037963867,-0.47494515776634216,-4.28176212310791
1413393889635760500,-0.02024581932313422,-0.22619467105846514,0.041887902047863905,8.523613291666665,0.9888372083333332,-2.378112625
1413393889640760500,-0.08742691576480865,-0.2950025498867035,0.004255212843418121,11.440363883972168,0.692892849445343,-4.342992305755615
1413393889645760500,-0.10471975511965977,-0.2569124658935653,0.02583087292951608,8.450063416666666,1.1849702083333333,-2.10842975
1413393889650760500,-0.16545721308906244,-0.2457423586808016,-0.0747000919853573,12.478962124999999,-0.5720545833333333,-4.519231208333333
1413393889655760500,-0.13264502315156904,-0.30159289474462014,-0.08098327729253688,8.964912541666667,-0.367749375,-3.3260887916666664
1413393889660760500,-0.12270839512348175,-0.1730092465877533,-0.15685713291168213,11.810515403747559,-0.8240509033203125,-3.559903860092163
1413393889665760500,-0.07122255861759186,-0.20375271141529083,-0.10740546137094498,10.62035846710205,-0.38467609882354736,-3.5979576110839844
1413393889670760500,-0.09263279289007187,-0.12787973880767822,-0.15119045972824097,9.810225486755371,0.5212898254394531,-4.642380714416504
1413393889675760500,-0.08192170411348343,-0.15828487277030945,-0.07697493582963943,10.4404296875,0.5807125568389893,-2.778852701187134
1413393889680760500,-0.12003572285175323,-0.10983357578516006,-0.06500638276338577,11.295798301696777,0.7855181694030762,-5.431840896606445
1413393889685760500,-0.13982494175434113,-0.11300598829984665,-0.08119023591279984,9.827146530151367,0.051707759499549866,-2.763478994369507
1413393889690760500,-0.13286292552947998,-0.11036118865013123,-0.06894303113222122,10.919403076171875,-0.32679668068885803,-3.813126564025879
1413393889695760500,-0.11936762928962708,-0.14349839091300964,-0.07930108159780502,10.185643196105957,-0.36340397596359253,-4.86177921295166
1413393889700760500,-0.07819075048934597,-0.0767944870877505,-0.01117010721276371,8.474580041666666,-0.367749375,-2.3045627499999997
1413393889705760500,-0.06288155913352966,-0.17921969294548035,0.007023081183433533,11.232614517211914,-0.5610939264297485,-4.141806125640869
1413393889710760500,-0.013694077730178833,-0.17296358942985535,0.0792354866862297,8.176469802856445,0.31701895594596863,-2.931579828262329
1413393889715760500,-0.03702452778816223,-0.25795021653175354,0.05153375864028931,10.991825103759766,0.051343630999326706,-4.310745716094971
1413393889720760500,-0.046788427978754044,-0.24524560570716858,0.034686341881752014,10.624885559082031,1.008529782295227,-2.9604203701019287
1413393889725760500,-0.11868238913561441,-0.28832839242946323,-0.05375614096142535,12.928433583333332,0.32688833333333334,-5.8513011666666666
1413393889730760500,-0.15707963267948966,-0.2436479635784084,-0.14032447186034408,8.564474333333333,0.8907707083333333,-3.505877375
1413393889735760500,-0.1760571300983429,-0.21944084763526917,-0.19470074772834778,10.732268333435059,-0.62675940990448,-3.817831039428711
1413393889740760500,-0.1494001839707146,-0.21223203704251048,-0.2115339053417127,13.124566583333333,-0.220649625,-3.67749375
1413393889745760500,-0.11892998218536377,-0.08389221131801605,-0.2177489995956421,11.947558403015137,-0.9574186205863953,-3.170593738555908
1413393889750760500,-0.1095026433467865,-0.12474874407052994,-0.17520272731781006,11.818327903747559,0.33865925669670105,-4.913498878479004
1413393889755760500,-0.11100294042683936,-0.09704030641088471,-0.10332349171806432,9.308145291666667,1.054214875,-3.906315583333333
1413393889760760500,-0.13418324291706085,-0.04839743301272392,-0.10095129162073135,10.717612266540527,0.08617985248565674,-2.7480478286743164
1413393889765760500,-0.12128522992134094,-0.11399615556001663,0.00882267951965332,11.72951889038086,0.17627640068531036,-4.771551132202148
1413393889770760500,-0.10996122658252716,-0.1018834114074707,-0.007807061076164246,9.4163818359375,-0.7047192454338074,-4.309484958648682
1413393889775760500,-0.055549006909132004,-0.09550868719816208,0.02003302425146103,10.660507202148438,-0.6963073015213013,-2.7840499877929688
1413393889780760500,-0.04474448785185814,-0.12326813489198685,-0.04977456480264664,10.916217803955078,-0.4609593152999878,-3.183767080307007
1413393889785760500,-0.021642082724729686,-0.10122909661567112,-0.056548667764616284,12.993811249999998,0.43312704166666666,-4.502886791666667
1413393889790760500,-0.06771877497737998,-0.06911503837897544,-0.1117010721276371,9.724927916666667,0.5883989999999999,-3.260711125
1413393889795760500,-0.09997674822807312,-0.10290814191102982,-0.0971568301320076,12.199222564697266,0.46969467401504517,-4.36121940612793
1413393889800760500,-0.14102260356114182,-0.09983283321407566,-0.1117010721276371,9.839338833333333,0.93163175,-3.9635210416666666
1413393889805760500,-0.15009831567151233,-0.07260569688296412,-0.12356931104119852,9.659550249999999,-0.45764366666666667,-3.489532958333333
1413393889810760500,-0.13683381335635544,-0.19687313962496036,-0.10053096491487339,9.765788958333333,-0.220649625,-3.530394
1413393889815760500,-0.11420619487762451,-0.16511504352092743,-0.18567746877670288,11.090590476989746,-0.9282730221748352,-3.659390449523926
1413393889820760500,-0.05864306286700947,-0.16545721308906244,-0.13962634015954636,12.201107041666665,0.016344416666666667,-4.519231208333333
1413393889825760500,-0.08909881114959717,-0.16331544518470764,-0.19795310497283936,9.917365074157715,0.331952840089798,-4.111978054046631
1413393889830760500,-0.09157489985227585,-0.08590907603502274,-0.1611824333667755,12.314413070678711,0.864762008190155,-3.4905035495758057
1413393889835760500,-0.143419548869133,-0.045360445976257324,-0.170090913772583,11.511948585510254,0.6041171550750732,-3.6124370098114014
1413393889840760500,-0.15498523757709648,-0.030019663134302467,-0.15498523757709648,12.560684208333331,-0.22882183333333334,-4.985047083333333
1413393889845760500,-0.1494001839707146,-0.023736477827122883,-0.13892820845874865,8.253930416666666,-0.13075533333333333,-3.2525389166666665
1413393889850760500,-0.08554624021053314,0.03904388099908829,-0.13876888155937195,12.101814270019531,-1.3737878799438477,-2.873236656188965
1413393889855760500,-0.033510321638291124,-0.09704030641088471,-0.10332349171806432,12.773161624999998,-0.392266,-4.75622525
1413393889860760500,-0.033116888254880905,0.006425783038139343,-0.17426776885986328,9.008614540100098,0.5093061327934265,-4.270823955535889
1413393889865760500,-0.07071328163146973,-0.027350537478923798,-0.14207518100738525,10.879032135009766,1.5692074298858643,-4.053173065185547
1413393889870760500,-0.16484692692756653,-0.007421307265758514,-0.20714926719665527,10.770939826965332,1.0654935836791992,-2.995983123779297
1413393889875760500,-0.20385445663293766,-0.023736477827122883,-0.20455258833373544,12.740472791666665,0.416782625,-4.56009225
1413393889880760500,-0.19993136823177338,0.005892299115657806,-0.22625678777694702,9.193166732788086,-0.7082708477973938,-4.163487434387207
1413393889885760500,-0.12783020734786987,-0.006908956915140152,-0.2136784791946411,10.899887084960938,-1.5404061079025269,-3.8857574462890625
1413393889890760500,-0.07192319631576538,0.015842899680137634,-0.21827548742294312,11.071742057800293,-0.5969114303588867,-2.7209391593933105
1413393889895760500,-0.05515294894576073,0.05665355920791626,-0.2203305959701538,12.68039608001709,0.013367767445743084,-3.793673276901245
1413393889900760500,-0.09946119785308838,0.06053808331489563,-0.20543435215950012,10.50223445892334,1.7750872373580933,-4.46186637878418
1413393889905760500,-0.16379258036613464,0.158906027674675,-0.2112114429473877,10.996050834655762,1.0216288566589355,-3.417030096054077
1413393889910760500,-0.19000476598739624,0.15111589431762695,-0.16379103064537048,11.819046020507812,-0.12571701407432556,-4.136532783508301
1413393889915760500,-0.17944377660751343,0.20092368125915527,-0.197605162858963,9.424423217773438,-1.10972261428833,-2.9018361568450928
1413393889920760500,-0.07258790731430054,0.16711494326591492,-0.16867253184318542,11.472776412963867,-1.7597110271453857,-3.0504493713378906
1413393889925760500,-0.039569463580846786,0.10814230144023895,-0.18732082843780518,10.262561798095703,-0.3329939842224121,-3.7356371879577637
1413393889930760500,-0.03220095485448837,0.1601504236459732,-0.18107452988624573,10.364726066589355,0.7002336382865906,-4.373902320861816
1413393889935760500,-0.10239255428314209,0.10529822111129761,-0.18864887952804565,10.369525909423828,1.8031022548675537,-3.3415985107421875
1413393889940760500,-0.1644207388162613,0.21893879771232605,-0.17395758628845215,12.132057189941406,0.8941680192947388,-3.5162813663482666
1413393889945760500,-0.20188350975513458,0.18673457205295563,-0.19774243235588074,11.456912994384766,0.18903008103370667,-4.184779167175293
1413393889950760500,-0.16310249269008636,0.2605314254760742,-0.21930932998657227,9.188669204711914,-1.6052287817001343,-2.8839004039764404
1413393889955760500,-0.10103674232959747,0.22597700357437134,-0.2249789535999298,11.546009063720703,-1.0039453506469727,-3.493471145629883
1413393889960760500,-0.0528729222714901,0.25148195028305054,-0.2266865372657776,11.137064933776855,-0.5601239800453186,-3.9634525775909424
1413393889965760500,-0.0716274082660675,0.24071848392486572,-0.22330796718597412,9.048693656921387,1.2620168924331665,-3.8441152572631836
1413393889970760500,-0.12481057643890381,0.2048933058977127,-0.22287404537200928,8.947599411010742,1.5172486305236816,-2.7116575241088867
1413393889975760500,-0.17395544052124023,0.2615817189216614,-0.17806681990623474,11.724785804748535,0.16159050166606903,-3.769385814666748
1413393889980760500,-0.20091165602207184,0.1437268853187561,-0.19571644067764282,9.810386657714844,-0.12541896104812622,-4.219839096069336
1413393889985760500,-0.13528168201446533,0.2761973440647125,-0.15302398800849915,9.856075286865234,-1.5321440696716309,-2.7350735664367676
1413393889990760500,-0.08778364956378937,0.1725735068321228,-0.1452605128288269,11.838226318359375,-0.9846120476722717,-4.266168594360352
1413393889995760500,-0.01621568575501442,0.325266569852829,-0.10422735661268234,9.302605628967285,-0.5812525749206543,-2.879516839981079
1413393890000760500,-0.03616328537464142,0.23620441555976868,-0.09660560637712479,12.208357810974121,0.6632651090621948,-3.8449738025665283
1413393890005760500,-0.04832060635089874,0.33038800954818726,-0.08686844259500504,9.167323112487793,0.687099277973175,-2.97507381439209
1413393890010760500,-0.10325349867343903,0.28300076723098755,-0.07365638762712479,10.351892471313477,1.0238550901412964,-4.5631561279296875
1413393890015760500,-0.11195704340934753,0.28089481592178345,-0.0496695414185524,8.855883598327637,-0.2979341447353363,-2.9954164028167725
1413393890020760500,-0.09856835007667542,0.2859116792678833,-0.0005902871489524841,10.036725997924805,-0.5398938655853271,-3.7439792156219482
1413393890025760500,-0.05003676936030388,0.18030783534049988,0.06092260777950287,8.74051284790039,-0.3972703516483307,-2.13503098487854
1413393890030760500,0.006989404559135437,0.31119537353515625,0.0867890864610672,10.26718807220459,-0.6351624727249146,-3.6754953861236572
1413393890035760500,0.027614500373601913,0.16904672980308533,0.12578091025352478,9.944132804870605,0.3493146598339081,-3.4164254665374756
1413393890040760500,0.02133399248123169,0.3188323974609375,0.12205196171998978,9.853988647460938,0.06869856268167496,-3.2000808715820312
1413393890045760500,-0.00649946928024292,0.16172340512275696,0.16531985998153687,9.525908470153809,1.1812037229537964,-3.626314640045166
1413393890050760500,-0.01961064338684082,0.2735596299171448,0.1721433401107788,9.75100326538086,-0.11853613704442978,-2.5216808319091797
1413393890055760500,-0.03914853557944298,0.1480264663696289,0.1794731318950653,9.662635803222656,0.05355622619390488,-4.1525044441223145
1413393890060760500,-0.0043953582644462585,0.2462913990020752,0.17392176389694214,9.153861999511719,-0.7027574777603149,-2.6641533374786377
1413393890065760500,0.026614349335432053,0.15166470408439636,0.19461660087108612,10.467799186706543,-0.8287335634231567,-3.4833924770355225
1413393890070760500,0.0588747076690197,0.22584444284439087,0.1792972981929779,8.831950187683105,-0.087366484105587,-3.3788299560546875
1413393890075760500,0.07523536682128906,0.18136724829673767,0.24521991610527039,10.170690536499023,0.33600929379463196,-3.539996862411499
1413393890080760500,0.05920180305838585,0.20142418146133423,0.2806471288204193,8.983760833740234,0.5518290996551514,-3.3547770977020264
1413393890085760500,0.028200026601552963,0.241193950176239,0.3180334270000458,9.112573623657227,0.19064033031463623,-3.3529982566833496
1413393890090760500,0.028625521808862686,0.17392826080322266,0.32635051012039185,9.04673957824707,-0.006308719981461763,-2.683492660522461
1413393890095760500,0.042768221348524094,0.2372751235961914,0.30412912368774414,9.913742065429688,-0.7649422287940979,-3.355543851852417
1413393890100760500,0.06441532075405121,0.18716584146022797,0.2810477316379547,8.764763832092285,-0.26051127910614014,-2.788278579711914
1413393890105760500,0.06500691175460815,0.24725353717803955,0.2553808391094208,9.307992935180664,-0.08514785021543503,-2.802069664001465
1413393890110760500,0.05520981177687645,0.192149356007576,0.2554953098297119,8.076423645019531,0.3525424599647522,-3.3823366165161133
1413393890115760500,0.03697126731276512,0.2687256932258606,0.25704291462898254,8.997300148010254,0.4484356641769409,-2.9116528034210205
1413393890120760500,0.03330681845545769,0.19560864567756653,0.2993188202381134,7.132511615753174,0.07916140556335449,-3.413543701171875
1413393890125760500,0.04305025562644005,0.2545805871486664,0.31320422887802124,8.724544525146484,-0.4411511719226837,-2.451401710510254
1413393890130760500,0.05585053606381855,0.18709929581379212,0.3344050846821135,6.42335575,-0.17161637500000002,-2.8602729166666667
1413393890135760500,0.07378484308719635,0.23584270477294922,0.28858232498168945,8.646265029907227,-0.40538787841796875,-2.660757541656494
1413393890140760500,0.0713123232126236,0.15006230771541595,0.298949271440506,7.16103458404541,0.07115468382835388,-2.5428903102874756
1413393890145760500,0.05329666659235954,0.2152489423751831,0.27709949016571045,9.626062393188477,0.26721641421318054,-3.330166816711426
1413393890150760500,0.04268229380249977,0.1865392029285431,0.2771640419960022,6.420866012573242,0.7156858444213867,-2.1386094093322754
1413393890155760500,0.026492271572351456,0.21189117431640625,0.2788260281085968,8.281963348388672,-0.12199372053146362,-3.3381905555725098
1413393890160760500,0.02722713633111154,0.17662732030182612,0.28204520712228365,6.398839124999999,0.18796079166666665,-1.2830367083333332
1413393890165760500,0.05233798548579216,0.1923145353794098,0.287839412689209,9.35036563873291,-0.9956074953079224,-3.3938181400299072
1413393890170760500,0.06632251157578452,0.16615534478986016,0.28553586562627226,5.295591,0.3105439166666667,-1.1522813749999998
1413393890175760500,0.08495685458183289,0.12838369607925415,0.3167746961116791,8.885604858398438,-0.9639465808868408,-3.6332826614379883
1413393890180760500,0.06771877497737998,0.1647590813882647,0.2918190509334519,5.606134916666666,0.8008764166666666,-1.12776475
1413393890185760500,0.06632251157578452,0.0614355896702004,0.3050835532486088,9.757616749999999,-0.318716125,-4.086104166666667
1413393890190760500,0.028623399732707,0.1424188669627373,0.2869321290278678,5.238385541666666,1.2503478749999999,-1.0051816249999999
1413393890195760500,0.047472955654245766,0.09494591130849153,0.30857421175259747,10.051816249999998,-1.3974476249999999,-4.135137416666667
1413393890200760500,0.03769911184307752,0.19408061282176942,0.24015730507441974,5.450862958333333,0.7273265416666667,-0.8907707083333333
1413393890205760500,0.08301916718482971,0.07927409559488297,0.3171270787715912,8.90188980102539,-1.2299370765686035,-3.435373306274414
1413393890210760500,0.0684453547000885,0.21887046098709106,0.22867703437805176,6.7181830406188965,0.7611410021781921,-1.6832239627838135
1413393890215760500,0.09672859311103821,0.08964386582374573,0.3483871817588806,7.9319167137146,-0.22851096093654633,-3.029134750366211
1413393890220760500,0.038176294416189194,0.2132711410522461,0.24175912141799927,7.783616542816162,1.001463532447815,-2.2056386470794678
1413393890225760500,0.046079110354185104,0.10112912952899933,0.3202192187309265,6.122617244720459,0.1975306123495102,-2.546414852142334
1413393890230760500,-0.010699212551116943,0.17638519406318665,0.21183818578720093,8.747163772583008,0.6106989979743958,-2.1323113441467285
1413393890235760500,0.02836521342396736,0.10759863257408142,0.2762860059738159,7.152272701263428,-1.2210444211959839,-2.708076000213623
1413393890240760500,0.021688472479581833,0.1360878050327301,0.1826324462890625,8.192075729370117,-0.06831930577754974,-1.9677760601043701
1413393890245760500,0.0858120322227478,0.07616786658763885,0.27578526735305786,6.341232776641846,-0.422756165266037,-1.9404819011688232
1413393890250760500,0.060441914945840836,0.15646861493587494,0.21560105681419373,8.664628028869629,0.3804498612880707,-2.855609178543091
1413393890255760500,0.07370135188102722,0.11163587868213654,0.30730849504470825,5.974571228027344,0.5379315614700317,-2.3842828273773193
1413393890260760500,0.026753637939691544,0.15435108542442322,0.25296035408973694,8.874557495117188,0.031625229865312576,-3.340984582901001
1413393890265760500,0.034744661301374435,0.13387128710746765,0.3016243577003479,5.691797256469727,0.9777548909187317,-1.6820542812347412
1413393890270760500,0.019547687622336492,0.12426744274199628,0.26668630970473356,9.618689208333333,-1.1931424166666666,-3.2525389166666665
1413393890275760500,0.05026548245743669,0.13264502315156904,0.2631956512007449,5.3936575,0.3023717083333333,-1.2748645
1413393890280760500,0.0746879130601883,0.052872948348522186,0.26616236567497253,8.559537887573242,-1.2067723274230957,-3.0308425426483154
