#timestamp [ns],w_RS_S_x [rad s^-1],w_RS_S_y [rad s^-1],w_RS_S_z [rad s^-1],a_RS_S_x [m s^-2],a_RS_S_y [m s^-2],a_RS_S_z [m s^-2]
1403638518097829500,0.0006981317007977319,0.01884955592153876,0.07819075048934597,9.087495666666666,-0.057205458333333334,-3.8245934999999998
1403638518102829500,-0.0041887902047863905,0.02234021442552742,0.07609635538695278,9.013945791666666,-0.057205458333333334,-3.800076875
1403638518107829500,-0.0020943951023931952,0.020943951023931952,0.07819075048934597,9.013945791666666,-0.032688833333333334,-3.800076875
1403638518112829500,-0.0041887902047863905,0.020943951023931952,0.07888888219014369,8.932223708333334,-0.024516625,-3.800076875
1403638518117829500,-0.0013962634015954637,0.0153588974175501,0.07888888219014369,8.989429166666666,-0.08989429166666667,-3.759215833333333
1403638518122829500,0.0006981317007977319,0.021642082724729686,0.08098327729253688,9.022118,-0.057205458333333334,-3.7837324583333327
1403638518127829500,-0.0020943951023931952,0.019547687622336492,0.08377580409572781,9.046634625,-0.016344416666666667,-3.8164212916666664
1403638518132829500,0.0,0.024434609527920613,0.08447393579652555,9.022118,-0.06537766666666667,-3.800076875
1403638518137829500,0.0,0.01815142422074103,0.08168140899333462,9.046634625,-0.04086104166666667,-3.7919046666666665
1403638518142829500,0.0006981317007977319,0.025132741228718346,0.07958701389094143,9.054806833333332,0.016344416666666667,-3.8245934999999998
1403638518147829500,0.0006981317007977319,0.02024581932313422,0.08237954069413235,9.005773583333333,0.0,-3.77556025
1403638518152829500,-0.0020943951023931952,0.021642082724729686,0.07819075048934597,9.038462416666666,-0.04086104166666667,-3.7837324583333327
1403638518157829500,-0.0027925268031909274,0.017453292519943295,0.07888888219014369,8.989429166666666,-0.024516625,-3.800076875
1403638518162829500,-0.0041887902047863905,0.019547687622336492,0.0767944870877505,9.062979041666667,-0.016344416666666667,-3.8245934999999998
1403638518167829500,-0.0041887902047863905,0.0153588974175501,0.07400196028455958,8.989429166666666,0.008172208333333333,-3.7919046666666665
1403638518172829500,-0.0013962634015954637,0.019547687622336492,0.07120943348136866,9.022118,-0.024516625,-3.77556025
1403638518177829500,-0.003490658503988659,0.023038346126325153,0.07330382858376185,9.005773583333333,-0.04086104166666667,-3.7837324583333327
1403638518182829500,-0.004886921905584123,0.023736477827122883,0.07260569688296412,9.005773583333333,-0.016344416666666667,-3.77556025
1403638518187829500,-0.003490658503988659,0.01815142422074103,0.07260569688296412,8.940395916666665,-0.07354987499999999,-3.751043625
1403638518192829500,-0.0006981317007977319,0.016057029118347832,0.0747000919853573,9.054806833333332,0.032688833333333334,-3.8082490833333327
1403638518197829500,-0.0013962634015954637,0.017453292519943295,0.07819075048934597,8.981256958333333,-0.04903325,-3.8082490833333327
1403638518202829500,-0.0020943951023931952,0.01884955592153876,0.07539822368615504,9.1201845,-0.04086104166666667,-3.8164212916666664
1403638518207829500,0.0027925268031909274,0.02024581932313422,0.07958701389094143,8.97308475,-0.10623870833333333,-3.751043625
1403638518212829500,-0.0006981317007977319,0.024434609527920613,0.0747000919853573,9.095667875,-0.04903325,-3.7919046666666665
1403638518217829500,-0.003490658503988659,0.02583087292951608,0.07819075048934597,8.9240515,-0.057205458333333334,-3.742871416666666
1403638518222829500,0.0,0.02024581932313422,0.0767944870877505,9.005773583333333,-0.04086104166666667,-3.8082490833333327
1403638518227829500,0.0020943951023931952,0.017453292519943295,0.08168140899333462,8.964912541666667,-0.04086104166666667,-3.7919046666666665
1403638518232829500,-0.0020943951023931952,0.021642082724729686,0.07958701389094143,9.128356708333332,-0.008172208333333333,-3.857282333333333
1403638518237829500,-0.003490658503988659,0.021642082724729686,0.08168140899333462,9.038462416666666,-0.04903325,-3.8409379166666664
1403638518242829500,-0.0022213533520698547,0.02642085961997509,0.08121786266565323,9.062581062316895,-0.008662070147693157,-3.8251495361328125
1403638518247829500,-0.004301927983760834,0.022909367457032204,0.08266516029834747,8.858796119689941,-0.008761736564338207,-3.7842180728912354
1403638518252829500,-0.0035522431135177612,0.01724475435912609,0.0770714282989502,8.997278213500977,0.015647774562239647,-3.849881172180176
1403638518257829500,-0.003589741885662079,0.019352899864315987,0.07494398951530457,8.97295093536377,-0.05748576670885086,-3.7596726417541504
1403638518262829500,-0.0057367607951164246,0.01380564458668232,0.07357722520828247,9.062565803527832,0.015778983011841774,-3.792856454849243
1403638518267829500,-0.002188675105571747,0.017317386344075203,0.07986846566200256,8.980958938598633,-0.0007346108905039728,-3.7681100368499756
1403638518272829500,-0.0008064284920692444,0.021518627181649208,0.07426387071609497,9.078764915466309,0.03219867870211601,-3.833350658416748
1403638518277829500,-0.004996858537197113,0.022910425439476967,0.07773927599191666,8.972805976867676,-0.000343976920703426,-3.7925150394439697
1403638518282829500,-0.004974700510501862,0.021511608734726906,0.07146910578012466,9.038064956665039,-0.025173254311084747,-3.7922849655151367
1403638518287829500,-0.0008171051740646362,0.021496543660759926,0.073585145175457,8.891229629516602,-0.06580838561058044,-3.742884874343872
1403638518292829500,-0.002942800521850586,0.013794692233204842,0.07293988764286041,9.0054292678833,-0.04141588881611824,-3.78410005569458
1403638518297829500,-0.0028724074363708496,0.020105933770537376,0.07289021462202072,9.054483413696289,-0.05758623406291008,-3.800615072250366
1403638518302829500,-0.004268668591976166,0.022982293739914894,0.07706671953201294,9.062472343444824,-0.049498360604047775,-3.8169994354248047
1403638518307829500,-0.0008778125047683716,0.022959979251027107,0.07708960026502609,8.980835914611816,-0.07397482544183731,-3.792240858078003
1403638518312829500,0.0005808770656585693,0.02083047665655613,0.07493215799331665,9.046170234680176,-0.05757659673690796,-3.792027235031128
1403638518317829500,-6.223469972610474e-05,0.022203030064702034,0.07987996935844421,8.923955917358398,-0.08230514824390411,-3.783815860748291
1403638518322829500,-0.00011510401964187622,0.023566393181681633,0.07915950566530228,9.079004287719727,-0.03307661786675453,-3.825220823287964
1403638518327829500,-0.002922259271144867,0.025037338957190514,0.07843690365552902,8.948463439941406,-0.09046538174152374,-3.7593657970428467
1403638518332829500,-0.00012386590242385864,0.01596054621040821,0.0812961608171463,9.046027183532715,-0.04139624536037445,-3.8252432346343994
1403638518337829500,-0.002908378839492798,0.02012176625430584,0.08402456343173981,9.038079261779785,-0.07403192669153214,-3.841524600982666
1403638518342829500,-0.0028959885239601135,0.020080024376511574,0.0805002823472023,9.013799667358398,-0.025148721411824226,-3.7924327850341797
1403638518347829500,-0.0014894381165504456,0.02289600856602192,0.080553337931633,9.030008316040039,-0.024911275133490562,-3.7679080963134766
1403638518352829500,-0.0008410736918449402,0.020816566422581673,0.077692911028862,9.029911041259766,-0.00888228602707386,-3.759561538696289
1403638518357829500,-0.004300497472286224,0.022199982777237892,0.07917007803916931,8.997275352478027,0.00754040339961648,-3.7926199436187744
1403638518362829500,-0.003590025007724762,0.018688658252358437,0.07714402675628662,9.02995491027832,-0.04947755113244057,-3.8008031845092773
1403638518367829500,-0.002902187407016754,0.020821796730160713,0.07352431118488312,9.02178955078125,-0.025048397481441498,-3.808858871459961
1403638518372829500,-0.0043177530169487,0.017364593222737312,0.07635702937841415,9.029790878295898,-0.04971521720290184,-3.7923576831817627
1403638518377829500,-0.0021833479404449463,0.020782211795449257,0.0805591493844986,8.989233016967773,0.015739189460873604,-3.7924673557281494
1403638518382829500,-0.000803820788860321,0.02079026587307453,0.08120007812976837,8.98928165435791,-0.049429796636104584,-3.7840349674224854
1403638518387829500,-0.002224460244178772,0.02222541905939579,0.07499673217535019,8.997318267822266,-0.025203337892889977,-3.7923474311828613
1403638518392829500,-0.0035777464509010315,0.018703537061810493,0.07987354695796967,8.956621170043945,-0.016861002892255783,-3.8089799880981445
1403638518397829500,-0.005003049969673157,0.019400661811232567,0.07494945079088211,9.029930114746094,-0.00881014671176672,-3.792604446411133
1403638518402829500,-0.0022326037287712097,0.02149946056306362,0.07849884033203125,8.964632987976074,-0.04954720661044121,-3.8169198036193848
1403638518407829500,-0.0008004680275917053,0.021551256999373436,0.07637932896614075,9.070608139038086,-0.02517654001712799,-3.8251988887786865
1403638518412829500,0.0006147995591163635,0.019452737644314766,0.07908681780099869,8.95652961730957,-0.04151460528373718,-3.7757327556610107
1403638518417829500,-0.0022086724638938904,0.016592809930443764,0.0728888139128685,9.046220779418945,-0.04158243536949158,-3.784102439880371
1403638518422829500,-0.0015295818448066711,0.018668541684746742,0.07778409868478775,8.956422805786133,-0.09044037759304047,-3.742955207824707
1403638518427829500,-0.002913825213909149,0.01801537163555622,0.07214342802762985,9.078863143920898,-0.008871479891240597,-3.759793996810913
1403638518432829500,0.0005789026618003845,0.016643712297081947,0.07639287412166595,8.98910903930664,-0.057688165456056595,-3.767735481262207
1403638518437829500,-8.545070886611938e-05,0.019445093348622322,0.07638867199420929,9.021621704101562,-0.04959955811500549,-3.8169002532958984
1403638518442829500,-0.003602840006351471,0.020818548277020454,0.07842262834310532,8.9647855758667,-0.05759485065937042,-3.7922189235687256
1403638518447829500,-0.001537032425403595,0.025739962235093117,0.07638321816921234,9.078981399536133,0.023928191512823105,-3.7842397689819336
1403638518452829500,-0.00013224035501480103,0.021555470302700996,0.080559141933918,8.948416709899902,-0.0738830417394638,-3.7838661670684814
1403638518457829500,-0.0008085742592811584,0.018721813336014748,0.07700888812541962,9.070700645446777,-0.057857416570186615,-3.8087515830993652
1403638518462829500,-0.002167806029319763,0.020089996978640556,0.07849936187267303,8.948394775390625,-0.08209453523159027,-3.759507656097412
1403638518467829500,-0.002225629985332489,0.015895327553153038,0.07639838755130768,9.05435562133789,-0.02505788952112198,-3.8089146614074707
1403638518472829500,-0.002941235899925232,0.022241463884711266,0.07912597060203552,9.005505561828613,-0.06568104773759842,-3.7841193675994873
1403638518477829500,0.00477059930562973,0.0187354888767004,0.07986898720264435,9.095087051391602,0.02378624863922596,-3.8417234420776367
1403638518482829500,-0.0014659836888313293,0.02640407718718052,0.07913167774677277,8.972729682922363,-0.04139646515250206,-3.792344093322754
1403638518487829500,-0.0001247301697731018,0.021509120240807533,0.07769004255533218,9.005555152893066,-0.008712816052138805,-3.7513771057128906
1403638518492829500,-0.00010628253221511841,0.020116912201046944,0.07918844372034073,8.891437530517578,-0.049592696130275726,-3.759446859359741
1403638518497829500,-0.0015658214688301086,0.0187197495251894,0.07289239764213562,9.046142578125,-0.025204651057720184,-3.8088276386260986
1403638518502829500,-0.004272915422916412,0.020787088200449944,0.07709112763404846,8.981037139892578,-0.04143180325627327,-3.800703287124634
1403638518507829500,-0.0007868632674217224,0.01803584210574627,0.07779103517532349,9.11136245727539,-0.033164966851472855,-3.8417577743530273
1403638518512829500,-0.002226434648036957,0.022926898673176765,0.07911068946123123,9.02995491027832,-0.0658828616142273,-3.8003695011138916
1403638518517829500,-0.0015423223376274109,0.02079966850578785,0.07705820351839066,8.989076614379883,-0.016983961686491966,-3.800415277481079
1403638518522829500,0.0006247982382774353,0.02358182705938816,0.07217065989971161,8.964571952819824,-0.04134068265557289,-3.7594902515411377
1403638518527829500,-0.001517750322818756,0.018012741580605507,0.07355839014053345,9.0054292678833,-0.008827378042042255,-3.7923569679260254
1403638518532829500,-0.005688749253749847,0.01734413020312786,0.0750441774725914,8.980989456176758,-0.033299900591373444,-3.7597763538360596
1403638518537829500,-0.0022015124559402466,0.01800038479268551,0.07705289870500565,9.070819854736328,-0.017069242894649506,-3.776235818862915
1403638518542829500,-0.003639630973339081,0.023620733991265297,0.0812356024980545,9.046318054199219,-0.04126386716961861,-3.8006489276885986
1403638518547829500,-0.0029187574982643127,0.021539395675063133,0.0784522145986557,9.029766082763672,-0.06579983979463577,-3.7921576499938965
1403638518552829500,0.0006403103470802307,0.02362278290092945,0.07771472632884979,8.972770690917969,-0.06608058512210846,-3.8002519607543945
1403638518557829500,0.0012514963746070862,0.015200445428490639,0.07708340883255005,8.964699745178223,-0.07411406934261322,-3.75925350189209
1403638518562829500,-0.0029330775141716003,0.019373135641217232,0.07429025322198868,9.030006408691406,-0.01672840677201748,-3.8087785243988037
1403638518567829500,-0.002881057560443878,0.021517494693398476,0.08196430653333664,9.021900177001953,-0.008784591220319271,-3.800854206085205
1403638518572829500,0.0005638673901557922,0.020167088136076927,0.07568876445293427,9.078770637512207,0.015550881624221802,-3.825453519821167
1403638518577829500,-0.0015149414539337158,0.020122038200497627,0.0832892432808876,8.980972290039062,-0.016759583726525307,-3.8007423877716064
1403638518582829500,-0.002148173749446869,0.023593896999955177,0.07704343646764755,8.940176963806152,0.007688771467655897,-3.8087899684906006
1403638518587829500,-0.0028963908553123474,0.02008449099957943,0.07910078763961792,8.915946960449219,-0.049581378698349,-3.767652988433838
1403638518592829500,-0.0036610886454582214,0.022194894030690193,0.07637210935354233,8.989354133605957,-0.02513119764626026,-3.76777982711792
1403638518597829500,0.0033989250659942627,0.01873287372291088,0.07991386950016022,8.95643138885498,-0.06576932221651077,-3.7759478092193604
1403638518602829500,-0.0014782175421714783,0.025013109669089317,0.07776827365159988,9.086987495422363,-0.0006363317370414734,-3.8171920776367188
1403638518607829500,-0.0008178502321243286,0.023619258776307106,0.07846960425376892,8.989055633544922,-0.03294621407985687,-3.8169572353363037
1403638518612829500,-0.00290621817111969,0.020842382684350014,0.07212696969509125,9.070571899414062,-0.000643195235170424,-3.800684690475464
1403638518617829500,-0.002926550805568695,0.021476054564118385,0.07562317699193954,8.923946380615234,-0.025009626522660255,-3.767618179321289
1403638518622829500,-0.0035890936851501465,0.01726374216377735,0.07431931793689728,9.054389953613281,-0.033269308507442474,-3.800468683242798
1403638518627829500,-0.0049719661474227905,0.019384706392884254,0.07917605340480804,8.9647855758667,-0.04949624091386795,-3.7514028549194336
1403638518632829500,-0.0029090866446495056,0.019433794543147087,0.07709647715091705,9.062577247619629,-0.04947609081864357,-3.808898687362671
1403638518637829500,-0.0008478984236717224,0.022944362834095955,0.07497119903564453,8.9482421875,-0.08196456730365753,-3.8004586696624756
1403638518642829500,-0.0029002800583839417,0.02432669885456562,0.07632626593112946,9.062529563903809,-0.04954983666539192,-3.8168814182281494
1403638518647829500,0.002705298364162445,0.0250206608325243,0.08266150206327438,8.948328018188477,-0.07388553023338318,-3.816692352294922
1403638518652829500,-0.000812046229839325,0.019435955211520195,0.07774794101715088,9.062684059143066,-0.0006956204888410866,-3.8005659580230713
1403638518657829500,-0.00012714415788650513,0.017964674159884453,0.07986880838871002,8.972990989685059,-0.05774132162332535,-3.7921109199523926
1403638518662829500,-0.00011168420314788818,0.019388386979699135,0.08056527376174927,9.095053672790527,-0.0334097184240818,-3.8089113235473633
1403638518667829500,-0.0008309930562973022,0.019418837502598763,0.08121640235185623,8.989086151123047,-0.057753294706344604,-3.7678298950195312
1403638518672829500,-0.002194516360759735,0.020139725878834724,0.08055789023637772,9.086969375610352,-0.016834424808621407,-3.809033155441284
1403638518677829500,-0.0028966590762138367,0.02222459204494953,0.0763143002986908,8.989044189453125,-0.016791345551609993,-3.8006601333618164
1403638518682829500,-0.000828079879283905,0.01937537081539631,0.08188804984092712,9.046298027038574,-0.008791016414761543,-3.7924718856811523
1403638518687829500,-0.00223434716463089,0.024987278506159782,0.07922357320785522,9.013716697692871,-0.0005219161394052207,-3.7843034267425537
1403638518692829500,-0.0028803572058677673,0.019436584785580635,0.0763479545712471,9.046357154846191,-0.00883781909942627,-3.759671211242676
1403638518697829500,-0.0028878971934318542,0.019419895485043526,0.07565780729055405,8.989069938659668,-0.05770028382539749,-3.79228138923645
1403638518702829500,-0.004320748150348663,0.020109428092837334,0.07775223255157471,9.054346084594727,-0.00875304825603962,-3.8254528045654297
1403638518707829500,-0.004287786781787872,0.020820895209908485,0.07634857296943665,8.981019973754883,-0.05783908814191818,-3.800497055053711
1403638518712829500,-0.0035979896783828735,0.0173089150339365,0.07571395486593246,9.038020133972168,-0.057732705026865005,-3.816892623901367
1403638518717829500,-0.003608696162700653,0.022914038971066475,0.07289106398820877,9.013633728027344,-0.049458857625722885,-3.783984661102295
1403638518722829500,-0.002901531755924225,0.01941733993589878,0.07425806671380997,9.02172565460205,-0.02498173527419567,-3.7841219902038574
1403638518727829500,-0.0043002888560295105,0.01729174144566059,0.07709043473005295,9.00546646118164,0.007610498461872339,-3.7926228046417236
1403638518732829500,-0.0015290454030036926,0.018749667331576347,0.07843856513500214,8.980993270874023,-0.08217091113328934,-3.7840049266815186
1403638518737829500,-0.002211235463619232,0.022935761138796806,0.07495260238647461,9.054350852966309,-0.02507716603577137,-3.78427791595459
1403638518742829500,-0.003592856228351593,0.018723005428910255,0.07917579263448715,9.062590599060059,-0.0496210977435112,-3.7678143978118896
1403638518747829500,-0.001506604254245758,0.02642875351011753,0.08123913407325745,9.005392074584961,-0.06594594568014145,-3.775843858718872
1403638518752829500,-0.0008278340101242065,0.02082371897995472,0.08265441656112671,8.997285842895508,-0.07423512637615204,-3.792200803756714
1403638518757829500,-0.002202250063419342,0.020786868408322334,0.08055542409420013,9.038171768188477,-0.025199832394719124,-3.816960334777832
1403638518762829500,-0.0028842389583587646,0.018006132915616035,0.08118961751461029,8.96468448638916,-0.07412034273147583,-3.7840816974639893
1403638518767829500,-0.003618985414505005,0.024324188008904457,0.07845411449670792,9.095294952392578,-0.0005359351634979248,-3.8172309398651123
1403638518772829500,-0.003615744411945343,0.022937418892979622,0.07990250736474991,8.956571578979492,-0.0331217423081398,-3.800553798675537
1403638518777829500,-0.003592856228351593,0.018729040399193764,0.07843776047229767,9.0462064743042,-0.049847155809402466,-3.800621509552002
1403638518782829500,0.0012945309281349182,0.02221343107521534,0.0798233225941658,8.964737892150879,-0.06553173065185547,-3.792221784591675
1403638518787829500,-0.001515999436378479,0.020768294110894203,0.0777595192193985,9.07071590423584,-0.0005354240420274436,-3.825258731842041
1403638518792829500,-0.00010055303573608398,0.02077808789908886,0.07914355397224426,8.940103530883789,-0.01686187833547592,-3.792421817779541
1403638518797829500,-0.003596477210521698,0.018018873408436775,0.07287311553955078,9.062542915344238,0.02400091476738453,-3.8336572647094727
1403638518802829500,-0.005019538104534149,0.02080629952251911,0.07638362050056458,8.956608772277832,-0.008794374763965607,-3.8006579875946045
1403638518807829500,-0.0014868155121803284,0.020805278792977333,0.0742703303694725,9.046150207519531,-0.025139521807432175,-3.808715343475342
1403638518812829500,-0.0021950602531433105,0.01939942128956318,0.07846936583518982,8.980971336364746,-0.07400176674127579,-3.7758355140686035
1403638518817829500,-0.0036078840494155884,0.01804608292877674,0.07848799228668213,9.054317474365234,-0.04162909463047981,-3.7923622131347656
1403638518822829500,-0.00498759001493454,0.01657094992697239,0.07634000480175018,8.907600402832031,-0.04134739935398102,-3.7842214107513428
1403638518827829500,-0.0015325918793678284,0.01729677803814411,0.0742475688457489,9.054424285888672,-0.041518326848745346,-3.792418956756592
1403638518832829500,-0.001504264771938324,0.022237682715058327,0.07919341325759888,8.932061195373535,-0.05758229270577431,-3.808598279953003
1403638518837829500,-0.0028734132647514343,0.018763499334454536,0.07636076211929321,9.046165466308594,-0.03309648111462593,-3.8169474601745605
1403638518842829500,-0.002184756100177765,0.023633552715182304,0.07429753243923187,8.9891357421875,-0.06571098417043686,-3.7920994758605957
1403638518847829500,-0.0008620321750640869,0.019408775493502617,0.07778377830982208,9.062546730041504,-0.04969009757041931,-3.792266368865967
1403638518852829500,-0.00011730194091796875,0.014510070905089378,0.0791202187538147,8.980916976928711,-0.05781929939985275,-3.816807985305786
1403638518857829500,0.0020022690296173096,0.013810781762003899,0.07566526532173157,9.086959838867188,-0.04942161962389946,-3.8005504608154297
1403638518862829500,-0.0015022680163383484,0.019393855705857277,0.07358196377754211,8.95642375946045,-0.0414799228310585,-3.7677218914031982
1403638518867829500,-0.003622278571128845,0.01873432658612728,0.07563197612762451,9.029829025268555,-0.04152176156640053,-3.800593137741089
1403638518872829500,-0.0022217556834220886,0.02296777255833149,0.07852146774530411,9.005569458007812,-0.033159930258989334,-3.816878318786621
1403638518877829500,-0.0029148906469345093,0.020166480913758278,0.08199765533208847,9.021824836730957,-0.0823526456952095,-3.7840986251831055
1403638518882829500,-0.0042754486203193665,0.023573094978928566,0.07909086346626282,9.005487442016602,-0.057788196951150894,-3.80051851272583
1403638518887829500,-0.0007940605282783508,0.020112132653594017,0.07842221856117249,9.029942512512207,-0.05756695941090584,-3.7922089099884033
1403638518892829500,-0.0029388442635536194,0.022954003885388374,0.07777528464794159,9.046175956726074,-0.04955713823437691,-3.808708429336548
1403638518897829500,-0.00013696402311325073,0.018737414851784706,0.07846226543188095,8.997262954711914,-0.07409946620464325,-3.7841439247131348
1403638518902829500,-6.929785013198853e-05,0.018700459972023964,0.07710765302181244,8.997350692749023,-0.01678375154733658,-3.79239559173584
1403638518907829500,0.0012775585055351257,0.019411513581871986,0.07497844099998474,9.013510704040527,-0.041289642453193665,-3.7922792434692383
1403638518912829500,-0.0036064833402633667,0.025710834190249443,0.07353570312261581,9.05428695678711,-0.049598317593336105,-3.8086912631988525
1403638518917829500,-0.0029127076268196106,0.022922372445464134,0.07568281888961792,8.956493377685547,-0.04131198674440384,-3.7923731803894043
1403638518922829500,-0.0036271288990974426,0.0250250231474638,0.07288669049739838,9.054460525512695,-0.025145655497908592,-3.800598382949829
1403638518927829500,-0.002225331962108612,0.01872735656797886,0.0777522400021553,9.005422592163086,-0.03329595923423767,-3.816901922225952
1403638518932829500,-0.0028592869639396667,0.020089151337742805,0.0777808353304863,9.038039207458496,-0.01707625202834606,-3.817042827606201
1403638518937829500,-0.006387986242771149,0.01797925867140293,0.07986302673816681,8.924087524414062,-0.0661211833357811,-3.7677736282348633
1403638518942829500,-0.0008517131209373474,0.021527757868170738,0.07499371469020844,9.103240966796875,-0.06603794544935226,-3.8250300884246826
1403638518947829500,0.0012861564755439758,0.02222834713757038,0.07985357195138931,8.972587585449219,-0.09860195964574814,-3.8002185821533203
1403638518952829500,-0.0007856637239456177,0.020798364654183388,0.07842500507831573,9.046248435974121,-0.016953585669398308,-3.8007290363311768
1403638518957829500,-0.004256248474121094,0.022197330370545387,0.07706386595964432,8.973001480102539,-0.008608696050941944,-3.7597646713256836
1403638518962829500,-0.0022429004311561584,0.017303602769970894,0.07567524164915085,9.029839515686035,0.00746694952249527,-3.800597906112671
1403638518967829500,-0.001554921269416809,0.019418807700276375,0.07985484600067139,8.997236251831055,-0.08224129676818848,-3.7840356826782227
1403638518972829500,-0.004285149276256561,0.020842844620347023,0.07776578515768051,9.087140083312988,-0.033200088888406754,-3.825258731842041
1403638518977829500,-0.0049460530281066895,0.01941964216530323,0.0756656602025032,8.972773551940918,-0.05762464180588722,-3.816859245300293
1403638518982829500,-0.003646351397037506,0.019408712163567543,0.07701969146728516,9.095071792602539,0.007494841702282429,-3.8334813117980957
1403638518987829500,-0.00014954060316085815,0.021465176716446877,0.07776015251874924,8.981060028076172,-0.0006283730617724359,-3.792426347732544
1403638518992829500,-0.0021742507815361023,0.022196868434548378,0.07571807503700256,9.021705627441406,-0.04158565029501915,-3.800522565841675
1403638518997829500,-0.0007767155766487122,0.023621445521712303,0.07778025418519974,8.940162658691406,-0.0740165188908577,-3.7758209705352783
1403638519002829500,-0.002202235162258148,0.01946231909096241,0.08051571249961853,9.038162231445312,-0.008655937388539314,-3.8007304668426514
1403638519007829500,-0.00293172150850296,0.0208298247307539,0.07774949818849564,8.997352600097656,-0.06605342775583267,-3.759587526321411
1403638519012829500,-0.0015185698866844177,0.018697695806622505,0.07356549054384232,9.13590145111084,-0.000624357198830694,-3.8335328102111816
1403638519017829500,0.0012943372130393982,0.02219846285879612,0.07636470347642899,8.94814682006836,-0.008495084010064602,-3.816925525665283
1403638519022829500,-0.00010582059621810913,0.025008084252476692,0.07709182798862457,9.062417030334473,-0.03304098919034004,-3.825021266937256
1403638519027829500,-0.0008036121726036072,0.028508642688393593,0.07638687640428543,8.972885131835938,-0.00842893123626709,-3.825051784515381
1403638519032829500,-0.002224870026111603,0.02431240864098072,0.0819208100438118,8.997358322143555,-0.04144115000963211,-3.784125566482544
1403638519037829500,-0.002928726375102997,0.022184034809470177,0.07911330461502075,9.005541801452637,0.01573086529970169,-3.809070587158203
1403638519042829500,-0.0014821887016296387,0.015900248661637306,0.08334168791770935,9.029958724975586,-0.041458819061517715,-3.792525053024292
1403638519047829500,-0.004272453486919403,0.02006383053958416,0.0763840526342392,8.98897647857666,-0.07409647107124329,-3.8169498443603516
1403638519052829500,-0.0022148266434669495,0.017316067591309547,0.07843481749296188,9.005447387695312,-0.10666387528181076,-3.816757917404175
1403638519057829500,-0.0015239939093589783,0.023636111989617348,0.07642397284507751,9.062557220458984,-0.04937109351158142,-3.8167669773101807
1403638519062829500,-0.00010897964239120483,0.022210510447621346,0.08126059919595718,8.98088550567627,-0.033253900706768036,-3.7922544479370117
1403638519067829500,-9.574741125106812e-05,0.02498418278992176,0.07352536916732788,9.046199798583984,-0.008689378388226032,-3.7842178344726562
1403638519072829500,-0.002192668616771698,0.02011088840663433,0.07845113426446915,8.981090545654297,-0.016731765121221542,-3.7514376640319824
1403638519077829500,-0.004322230815887451,0.01870649866759777,0.07843418419361115,9.021735191345215,-0.01700739935040474,-3.784320831298828
1403638519082829500,-0.0015390664339065552,0.01942732371389866,0.07912703603506088,8.980920791625977,-0.07389969378709793,-3.792363405227661
1403638519087829500,-0.004292309284210205,0.024307670071721077,0.07711194455623627,9.070751190185547,0.007678695023059845,-3.8335700035095215
1403638519092829500,-0.0007896274328231812,0.023635534569621086,0.0784621313214302,8.948368072509766,-0.03316168114542961,-3.7923409938812256
1403638519097829500,-0.00011285394430160522,0.021519461646676064,0.07773969322443008,9.054475784301758,-0.04167202487587929,-3.7922792434692383
1403638519102829500,-0.00013874471187591553,0.02217164821922779,0.07639341801404953,8.932127952575684,-0.01688743382692337,-3.77590274810791
1403638519107829500,-0.00010784715414047241,0.017986008897423744,0.07284262776374817,9.046133995056152,-0.008918282575905323,-3.808826208114624
1403638519112829500,-0.0042732954025268555,0.02079559676349163,0.07704690098762512,8.948380470275879,-0.0006034746766090393,-3.7762703895568848
1403638519117829500,-0.0049974918365478516,0.017354218289256096,0.0764044001698494,9.062616348266602,0.0076910350471735,-3.817277669906616
1403638519122829500,-0.004307888448238373,0.01941128633916378,0.0784531906247139,9.005475997924805,-0.02510724775493145,-3.8088834285736084
1403638519127829500,-0.003606252372264862,0.017998291179537773,0.07705877721309662,9.078848838806152,-0.0006426111212931573,-3.808865547180176
1403638519132829500,-0.003585703670978546,0.021482350304722786,0.07845239341259003,8.915719032287598,-0.0900048017501831,-3.7675182819366455
1403638519137829500,-0.0015051290392875671,0.022913718596100807,0.07494774460792542,9.04610824584961,-0.06588176637887955,-3.8167216777801514
1403638519142829500,-0.001508757472038269,0.021521689370274544,0.07709808647632599,8.964690208435059,-0.07389283180236816,-3.8085641860961914
1403638519147829500,0.0012610182166099548,0.019448423758149147,0.07429725676774979,9.046142578125,-0.03314116597175598,-3.800682306289673
1403638519152829500,-0.004975035786628723,0.025027355179190636,0.07567883282899857,9.030041694641113,-0.016868669539690018,-3.8007652759552
1403638519157829500,-0.00429244339466095,0.022931506857275963,0.07986684888601303,8.964681625366211,-0.01685333624482155,-3.792356252670288
1403638519162829500,-0.005697585642337799,0.024306030943989754,0.07912507653236389,8.997344970703125,-0.025154782459139824,-3.808821201324463
1403638519167829500,-0.0029266849160194397,0.02151360549032688,0.07773401588201523,9.04635238647461,-0.0250824224203825,-3.8005614280700684
1403638519172829500,-0.00706145167350769,0.021475138142704964,0.07707516103982925,9.005470275878906,-0.04946739971637726,-3.792372703552246
1403638519177829500,-0.0015241950750350952,0.015865331515669823,0.07634004205465317,9.095047950744629,-0.016993161290884018,-3.817150115966797
1403638519182829500,-0.002206243574619293,0.02079944498836994,0.07711055129766464,9.0054292678833,-0.02509775571525097,-3.7923853397369385
1403638519187829500,0.0005611255764961243,0.020116517320275307,0.07778571546077728,9.037975311279297,-0.0005790874711237848,-3.792541027069092
1403638519192829500,-0.004242755472660065,0.02710959129035473,0.07909908890724182,9.013724327087402,-0.008577956818044186,-3.792435884475708
1403638519197829500,-0.0036107823252677917,0.020836250856518745,0.08054418116807938,8.989174842834473,-0.016938837245106697,-3.7924094200134277
1403638519202829500,-0.002217032015323639,0.023593666031956673,0.07705170661211014,9.04625415802002,0.01575642079114914,-3.792651414871216
1403638519207829500,-0.002220727503299713,0.01728094182908535,0.07844278216362,9.029976844787598,-0.06578619033098221,-3.8169238567352295
1403638519212829500,-0.0021881386637687683,0.021470116451382637,0.07849279791116714,9.086978912353516,-0.04150773957371712,-3.817035436630249
1403638519217829500,-0.002904653549194336,0.020832305774092674,0.07847125083208084,8.964576721191406,-0.06565337628126144,-3.8085763454437256
1403638519222829500,-0.002913080155849457,0.0243366826325655,0.0756634771823883,9.005428314208984,-0.008365334942936897,-3.817023515701294
1403638519227829500,-0.0008159652352333069,0.025036463513970375,0.07985755056142807,8.972806930541992,-0.06583014130592346,-3.783965587615967
1403638519232829500,-0.0015046969056129456,0.02080327458679676,0.07145083695650101,9.070698738098145,-0.02502181939780712,-3.8169796466827393
1403638519237829500,0.00129738450050354,0.02079288475215435,0.0756833478808403,8.964554786682129,-0.05766903609037399,-3.8004608154296875
1403638519242829500,-0.002200692892074585,0.020082375034689903,0.07918734103441238,9.05435562133789,0.007624517660588026,-3.8418021202087402
1403638519247829500,-0.002208225429058075,0.021492572501301765,0.0805308073759079,8.948393821716309,-0.049503471702337265,-3.792323112487793
1403638519252829500,-0.0022006258368492126,0.023643644526600838,0.07290134578943253,9.021686553955078,-0.03354494273662567,-3.792287826538086
1403638519257829500,-0.0022061243653297424,0.018736490979790688,0.07566617429256439,8.940278053283691,-0.09025893360376358,-3.775678873062134
1403638519262829500,-0.0042882040143013,0.024312002584338188,0.07562026381492615,9.103300094604492,-0.025128934532403946,-3.7924880981445312
1403638519267829500,-0.004299826920032501,0.021472608670592308,0.07852226495742798,8.923820495605469,-0.04948528856039047,-3.784182071685791
1403638519272829500,-0.0043144747614860535,0.02079392410814762,0.0791734904050827,9.005536079406738,-0.0005676969885826111,-3.8335821628570557
1403638519277829500,-0.002906523644924164,0.02362854592502117,0.08188599348068237,8.924057960510254,-0.04946090281009674,-3.775923252105713
1403638519282829500,0.0012978240847587585,0.020836105570197105,0.07917512208223343,9.103316307067871,-0.0005525827291421592,-3.8252334594726562
1403638519287829500,-0.0007896050810813904,0.01940992660820484,0.08125714957714081,8.956498146057129,-0.041324034333229065,-3.7759287357330322
1403638519292829500,-0.002215079963207245,0.024296851828694344,0.07770074903964996,9.030020713806152,-0.04148152843117714,-3.7841241359710693
1403638519297829500,-0.004288092255592346,0.022918036207556725,0.07987551391124725,8.915803909301758,-0.09838002920150757,-3.7840311527252197
1403638519302829500,-0.0015355348587036133,0.01868937723338604,0.07430028170347214,9.005338668823242,-0.025110898539423943,-3.8169963359832764
1403638519307829500,-0.0007946714758872986,0.024303274229168892,0.0777454599738121,8.981083869934082,-0.008518083952367306,-3.800746202468872
1403638519312829500,-0.0007915273308753967,0.02012448199093342,0.07849319279193878,9.046222686767578,-0.00879247672855854,-3.833453416824341
1403638519317829500,-0.002913959324359894,0.02638007141649723,0.07844389975070953,9.005422592163086,-0.04132242873311043,-3.8086867332458496
1403638519322829500,-0.002945028245449066,0.019445711746811867,0.0797884613275528,9.038215637207031,-0.0007549092406406999,-3.7924277782440186
1403638519327829500,-0.001496642827987671,0.021496037021279335,0.07914846390485764,8.964803695678711,-0.04158981144428253,-3.751420259475708
1403638519332829500,0.0013074055314064026,0.012372946366667747,0.07497742772102356,9.029765129089355,-0.016944313421845436,-3.7760560512542725
1403638519337829500,-0.0035853311419487,0.015882233157753944,0.07153327763080597,9.046059608459473,-0.05784660950303078,-3.7842140197753906
1403638519342829500,-0.003612719476222992,0.020124727860093117,0.07498401403427124,9.029825210571289,-0.07419584691524506,-3.7841880321502686
1403638519347829500,-0.0036310330033302307,0.022227825596928596,0.07494581490755081,9.046364784240723,-0.016800692304968834,-3.792466163635254
1403638519352829500,-0.001532129943370819,0.017369644716382027,0.08055725693702698,9.038191795349121,-0.0005266621592454612,-3.792339563369751
1403638519357829500,-0.004249565303325653,0.023600736632943153,0.07634396106004715,9.005369186401367,-0.008781231939792633,-3.800579786300659
1403638519362829500,-0.0014960095286369324,0.021505774930119514,0.07842102646827698,8.964725494384766,-0.02507176250219345,-3.767814874649048
1403638519367829500,-0.002243943512439728,0.020813526585698128,0.07571282237768173,9.013778686523438,-0.02521706372499466,-3.7842061519622803
1403638519372829500,-0.00432867556810379,0.017334269359707832,0.08124084770679474,8.948498725891113,-0.041384272277355194,-3.767890453338623
1403638519377829500,-0.003568790853023529,0.020135963335633278,0.07634882628917694,9.078960418701172,0.00771724758669734,-3.8090951442718506
1403638519382829500,-0.0021882057189941406,0.022177765145897865,0.0763830691576004,8.915704727172852,-0.008752464316785336,-3.7842586040496826
1403638519387829500,0.0012653246521949768,0.022226551547646523,0.0742562785744667,9.046089172363281,-0.017039453610777855,-3.7841827869415283
1403638519392829500,-0.00010109692811965942,0.024350399151444435,0.07915303111076355,8.972872734069824,-0.05754607543349266,-3.775740385055542
1403638519397829500,-0.004304327070713043,0.02219708450138569,0.07846908271312714,9.030043601989746,-0.016953660175204277,-3.7842109203338623
1403638519402829500,-0.00221378356218338,0.02078537829220295,0.07912813872098923,8.964740753173828,-0.016720885410904884,-3.7925124168395996
1403638519407829500,-0.00011617690324783325,0.022212164476513863,0.07494045794010162,9.04616641998291,0.04838961735367775,-3.825495719909668
1403638519412829500,-0.002887740731239319,0.019419411197304726,0.0756983831524849,8.956472396850586,-0.04964606836438179,-3.775935411453247
1403638519417829500,-0.0049888864159584045,0.020092139020562172,0.07639531046152115,9.078962326049805,-0.016823910176753998,-3.800703287124634
1403638519422829500,-0.004310697317123413,0.023578079417347908,0.07845403999090195,8.981057167053223,-0.04911239817738533,-3.800501585006714
1403638519427829500,-0.000850290060043335,0.022925889119505882,0.07564128935337067,9.095026016235352,-0.01699688471853733,-3.8170011043548584
1403638519432829500,-0.0035652145743370056,0.022894928231835365,0.07845410704612732,8.948403358459473,-0.04949726536870003,-3.7677910327911377
1403638519437829500,-0.0007669180631637573,0.01868082769215107,0.07846852391958237,8.98921012878418,0.0240006223320961,-3.800812244415283
1403638519442829500,-0.0064010098576545715,0.01940142549574375,0.07498882710933685,8.940339088439941,-0.0167075227946043,-3.776050329208374
1403638519447829500,-0.002958133816719055,0.018027683719992638,0.07636584341526031,9.087061882019043,-0.025195451453328133,-3.7924609184265137
1403638519452829500,-0.002871178090572357,0.02082679606974125,0.07914431393146515,8.964570045471191,-0.09026733040809631,-3.808577060699463
1403638519457829500,-0.0022104158997535706,0.022214433178305626,0.0777551457285881,9.062520980834961,-0.05783025175333023,-3.8414061069488525
1403638519462829500,-8.025765419006348e-05,0.020801471546292305,0.07641255110502243,8.972803115844727,-0.07374803721904755,-3.8084876537323
1403638519467829500,-0.00013806670904159546,0.020809100940823555,0.07635991275310516,9.02163028717041,-0.06571171432733536,-3.8086042404174805
1403638519472829500,-0.0008345618844032288,0.02360496111214161,0.07913857698440552,9.013669967651367,-0.04128139093518257,-3.808716297149658
1403638519477829500,-0.00010716915130615234,0.018737683072686195,0.07848893105983734,9.005370140075684,-0.04948163777589798,-3.8168702125549316
1403638519482829500,-0.0014839544892311096,0.02361883409321308,0.07843833416700363,9.046185493469238,-0.016619393602013588,-3.8089773654937744
1403638519487829500,-0.002207614481449127,0.019434915855526924,0.08263716101646423,9.013701438903809,-0.04962095245718956,-3.792367458343506
1403638519492829500,-0.006391339004039764,0.02079794369637966,0.07778632640838623,8.980989456176758,-0.05770247429609299,-3.8169474601745605
1403638519497829500,-0.0015223398804664612,0.019388863816857338,0.08190515637397766,9.02182674407959,-0.008703762665390968,-3.776158332824707
1403638519502829500,-0.005697421729564667,0.02220025844871998,0.07914208620786667,9.013636589050293,-0.04965030401945114,-3.792280435562134
1403638519507829500,0.0005965009331703186,0.01870652474462986,0.0798339694738388,9.029867172241211,-0.04968009516596794,-3.800557851791382
1403638519512829500,-0.002170868217945099,0.023622924461960793,0.07778574526309967,9.0137300491333,-0.033229514956474304,-3.775970220565796
1403638519517829500,-0.0008584931492805481,0.02015102468430996,0.07567611336708069,9.013470649719238,-0.041383322328329086,-3.8169353008270264
1403638519522829500,-0.0022015199065208435,0.023610876873135567,0.07425694167613983,9.127660751342773,-0.008796930313110352,-3.817134141921997
1403638519527829500,-0.0029153674840927124,0.021515527740120888,0.07918323576450348,9.005422592163086,-0.04959138110280037,-3.800490617752075
1403638519532829500,-0.0049764662981033325,0.022187134250998497,0.07492659986019135,9.03809642791748,-0.01708121784031391,-3.7925164699554443
1403638519537829500,0.0033678188920021057,0.020102547481656075,0.07355920970439911,8.899382591247559,-0.05748123675584793,-3.767418384552002
1403638519542829500,-0.0008149668574333191,0.019416743889451027,0.07362713664770126,9.013647079467773,-0.02509688027203083,-3.784231185913086
1403638519547829500,-0.0029219910502433777,0.020828770473599434,0.07636196911334991,8.997302055358887,-0.07417364418506622,-3.80051326751709
1403638519552829500,-0.007074370980262756,0.02292250655591488,0.07568681985139847,9.119739532470703,-0.008718146942555904,-3.809020757675171
1403638519557829500,-0.003642044961452484,0.022936368361115456,0.07778792828321457,8.964553833007812,-0.08217835426330566,-3.767589807510376
1403638519562829500,0.002669207751750946,0.0229207593947649,0.07281292974948883,9.078718185424805,-0.01711217686533928,-3.8169162273406982
1403638519567829500,0.001332409679889679,0.02080288715660572,0.08057659864425659,8.956578254699707,-0.04135652631521225,-3.7839152812957764
1403638519572829500,-0.0007857084274291992,0.017988720908761024,0.07988052070140839,9.038047790527344,-0.0008869945886544883,-3.7761669158935547
1403638519577829500,-0.00015232712030410767,0.019384773448109627,0.07840848714113235,8.923894882202148,-0.05772934481501579,-3.7759528160095215
1403638519582829500,-0.0015407800674438477,0.020125379785895348,0.07846301794052124,9.078886032104492,0.01551890093833208,-3.8172311782836914
1403638519587829500,-0.0014858469367027283,0.021513568237423897,0.07912985980510712,8.956620216369629,0.015775112435221672,-3.7926368713378906
1403638519592829500,-0.004960082471370697,0.01871558465063572,0.07704169303178787,9.095320701599121,-0.008777289651334286,-3.800863742828369
1403638519597829500,-0.0022250711917877197,0.022206531837582588,0.07643844932317734,8.972737312316895,-0.06587570905685425,-3.7675442695617676
1403638519602829500,-0.0022508129477500916,0.016601363196969032,0.07562091946601868,9.029807090759277,-0.03334560990333557,-3.7841010093688965
1403638519607829500,-0.00151071697473526,0.020105214789509773,0.07983136177062988,8.989156723022461,-0.05758462846279144,-3.8168785572052
1403638519612829500,-0.0028607770800590515,0.020837897434830666,0.073626309633255,9.029970169067383,-0.00861592497676611,-3.8170785903930664
1403638519617829500,-0.0029060617089271545,0.024316446855664253,0.07634878903627396,8.99728012084961,-0.016739796847105026,-3.8170642852783203
1403638519622829500,-0.0022137239575386047,0.022930731996893883,0.07916497439146042,9.037959098815918,-0.01705142669379711,-3.8170433044433594
1403638519627829500,-0.004297830164432526,0.024993063881993294,0.07846227288246155,8.907675743103027,-0.01657784730195999,-3.784130096435547
1403638519632829500,-0.0007820874452590942,0.018701279535889626,0.07844521105289459,8.907712936401367,-0.06581159681081772,-3.784012794494629
1403638519637829500,-0.0007936060428619385,0.01869126595556736,0.07567837834358215,8.973028182983398,-0.049553193151950836,-3.784092426300049
1403638519642829500,-0.0008320137858390808,0.013835908845067024,0.0742691159248352,9.013535499572754,-0.06583934277296066,-3.792238235473633
1403638519647829500,-0.005008526146411896,0.018714426085352898,0.07710784673690796,9.062490463256836,-0.05776388198137283,-3.7925219535827637
1403638519652829500,-0.001529701054096222,0.016617195680737495,0.07776936888694763,8.980899810791016,-0.049434106796979904,-3.816857099533081
1403638519657829500,-0.00010768324136734009,0.018710816279053688,0.07771861553192139,9.054290771484375,-0.0004974558833055198,-3.8333399295806885
1403638519662829500,-0.002177879214286804,0.020818514749407768,0.0798821896314621,9.005407333374023,-0.06595967710018158,-3.800286293029785
1403638519667829500,-0.0014730915427207947,0.024997824802994728,0.07284355163574219,9.013538360595703,-0.008754654787480831,-3.792396068572998
1403638519672829500,-0.0029391124844551086,0.021533893421292305,0.0791616439819336,8.94839859008789,-0.0739738792181015,-3.759442090988159
1403638519677829500,-0.005031116306781769,0.01944711245596409,0.07503043115139008,9.013681411743164,-0.06606584042310715,-3.792367935180664
1403638519682829500,-0.0014728233218193054,0.015239113941788673,0.07562070339918137,8.940293312072754,-0.07377760857343674,-3.7513914108276367
1403638519687829500,0.0005886480212211609,0.021502213552594185,0.0770924761891365,9.095253944396973,-0.025096004828810692,-3.8170413970947266
1403638519692829500,0.003366909921169281,0.02222190983593464,0.08056548237800598,8.980888366699219,-0.049539029598236084,-3.7757949829101562
1403638519697829500,0.0019744858145713806,0.02155192382633686,0.07492011040449142,9.08685302734375,-0.025054093450307846,-3.800452947616577
1403638519702829500,-0.00011808425188064575,0.020100826397538185,0.07498791813850403,8.923973083496094,-0.008584819734096527,-3.7923014163970947
1403638519707829500,-0.0036192163825035095,0.013785408809781075,0.0749380886554718,9.046338081359863,-0.025337977334856987,-3.8087503910064697
1403638519712829500,-0.002200186252593994,0.022899387404322624,0.07708761841058731,8.97271728515625,-0.09854204952716827,-3.792165994644165
1403638519717829500,-0.0056828781962394714,0.01876860298216343,0.07576575875282288,9.054285049438477,-0.09048674255609512,-3.800485372543335
1403638519722829500,-0.0015279576182365417,0.024350227788090706,0.0791221559047699,8.964679718017578,-0.0657331794500351,-3.808687448501587
1403638519727829500,-0.00010298937559127808,0.024338694289326668,0.07771527022123337,9.062637329101562,-0.03328661248087883,-3.8006339073181152
1403638519732829500,-0.0008195862174034119,0.021495522931218147,0.07708455622196198,8.90768814086914,-0.0659906342625618,-3.743044376373291
1403638519737829500,-0.0015059635043144226,0.01731126196682453,0.07494647800922394,9.095135688781738,-0.04970609024167061,-3.792318820953369
1403638519742829500,-0.0008066967129707336,0.022190546616911888,0.07848399877548218,8.932044982910156,-0.0658310204744339,-3.7839529514312744
1403638519747829500,0.001270689070224762,0.018731163814663887,0.07710514962673187,9.013504028320312,0.015744080767035484,-3.800804615020752
1403638519752829500,-0.004984728991985321,0.022234799340367317,0.07774822413921356,9.005655288696289,-0.03332677111029625,-3.808793067932129
1403638519757829500,-0.0014950409531593323,0.01666845940053463,0.08052321523427963,9.029934883117676,-0.049822255969047546,-3.8004562854766846
1403638519762829500,-0.00222981721162796,0.020095782354474068,0.07914197444915771,9.005339622497559,-0.10687992721796036,-3.759361505508423
1403638519767829500,-0.0036350712180137634,0.01864454336464405,0.08262883126735687,9.038175582885742,-0.025126231834292412,-3.8088061809539795
1403638519772829500,-0.0014730319380760193,0.023610638454556465,0.07846973836421967,8.964621543884277,-0.03307092562317848,-3.8333094120025635
1403638519777829500,-0.00152694433927536,0.024338120594620705,0.07984979450702667,9.054441452026367,-0.00885475892573595,-3.833622932434082
1403638519782829500,-0.007088787853717804,0.026431528851389885,0.07780332863330841,8.956745147705078,-0.03336254879832268,-3.7924957275390625
1403638519787829500,-0.0007870271801948547,0.015216318890452385,0.08053505420684814,8.964629173278809,-0.04961701110005379,-3.784076452255249
1403638519792829500,-0.002904936671257019,0.0221883375197649,0.07702238857746124,9.038165092468262,-0.033174313604831696,-3.7841246128082275
1403638519797829500,-0.0022208914160728455,0.014511505141854286,0.07915770262479782,8.98913860321045,-0.06597726792097092,-3.792229175567627
1403638519802829500,-0.0021619051694869995,0.01869145967066288,0.07496073842048645,9.029824256896973,-0.06588760763406754,-3.8005197048187256
1403638519807829500,-0.002233952283859253,0.019430795684456825,0.07707341015338898,9.013594627380371,-0.06579940766096115,-3.816812515258789
1403638519812829500,-0.004331246018409729,0.025045020505785942,0.07711534947156906,9.054286003112793,-0.0494224950671196,-3.816934108734131
1403638519817829500,-0.0035713687539100647,0.025709671899676323,0.07914340496063232,8.980960845947266,-0.04933144524693489,-3.8004302978515625
1403638519822829500,-0.004979066550731659,0.021522874012589455,0.07773977518081665,8.997506141662598,-0.03321593254804611,-3.8004965782165527
1403638519827829500,-0.0029470473527908325,0.016622284427285194,0.07705846428871155,8.956506729125977,-0.058061495423316956,-3.78401255607605
1403638519832829500,-0.006373994052410126,0.021478010341525078,0.07496391236782074,9.054387092590332,-0.04961219057440758,-3.825157642364502
1403638519837829500,-0.005685247480869293,0.020097406581044197,0.07849187403917313,8.924017906188965,-0.041254594922065735,-3.7761077880859375
1403638519842829500,-0.004314623773097992,0.018760202452540398,0.08057420700788498,9.119743347167969,-0.06598807871341705,-3.841646194458008
1403638519847829500,0.000596173107624054,0.022920111194252968,0.07983073592185974,8.997187614440918,-0.0659424439072609,-3.808523654937744
1403638519852829500,0.0006088763475418091,0.022210152819752693,0.07635629922151566,9.046067237854004,-0.041441660374403,-3.7921862602233887
1403638519857829500,0.000584825873374939,0.017284108325839043,0.07356884330511093,8.923895835876465,-0.1230335608124733,-3.7508957386016846
1403638519862829500,-0.0008196607232093811,0.015963831916451454,0.07566582411527634,9.013589859008789,-0.082198366522789,-3.7592928409576416
1403638519867829500,-0.0022292211651802063,0.01941956765949726,0.07988177239894867,8.940218925476074,-0.008632572367787361,-3.767940044403076
1403638519872829500,0.0005793273448944092,0.014508524909615517,0.07774121314287186,9.095298767089844,-0.0008909374591894448,-3.8172154426574707
1403638519877829500,-0.005682371556758881,0.020836377516388893,0.0798414796590805,9.005552291870117,-0.057659395039081573,-3.792421817779541
1403638519882829500,-0.002923138439655304,0.025059537962079048,0.08054982870817184,9.14405345916748,-0.01683814823627472,-3.8252298831939697
1403638519887829500,-0.004291504621505737,0.02917897142469883,0.08053954690694809,8.923954963684082,-0.07402776181697845,-3.7756853103637695
1403638519892829500,-0.00014136731624603271,0.020113052800297737,0.07984791696071625,8.989217758178711,-0.04167158901691437,-3.7431368827819824
1403638519897829500,-0.0028658434748649597,0.022940950468182564,0.0770479142665863,8.997431755065918,-0.04146509990096092,-3.7596240043640137
1403638519902829500,-0.0029033347964286804,0.015947001054883003,0.07775286585092545,9.046128273010254,-0.07448279857635498,-3.775968313217163
1403638519907829500,-0.0008296892046928406,0.020780442282557487,0.07642839103937149,9.05428695678711,-0.033084943890571594,-3.8335773944854736
1403638519912829500,-0.0022392719984054565,0.019440026953816414,0.07912856340408325,9.054595947265625,0.048337046056985855,-3.792823076248169
1403638519917829500,-0.0042624399065971375,0.025724099949002266,0.0735320895910263,8.997233390808105,-0.04982627183198929,-3.7920949459075928
1403638519922829500,-0.00289086252450943,0.022184675559401512,0.0791381448507309,8.99730396270752,-0.04142275080084801,-3.7840116024017334
1403638519927829500,-0.0022311434149742126,0.02357073314487934,0.08054982870817184,8.907888412475586,-0.033289022743701935,-3.7348568439483643
1403638519932829500,-0.00152655690908432,0.014524674043059349,0.0784762054681778,8.997322082519531,-0.04159470275044441,-3.792487859725952
1403638519937829500,-0.0015068352222442627,0.017312252894043922,0.07570533454418182,9.005467414855957,-0.04119362682104111,-3.784282684326172
1403638519942829500,-0.002907499670982361,0.01802496798336506,0.07424521446228027,8.989081382751465,-0.04965979605913162,-3.800647735595703
1403638519947829500,0.0005773380398750305,0.020849132910370827,0.0763419046998024,9.04615592956543,-0.041508324444293976,-3.825165033340454
1403638519952829500,0.0005977451801300049,0.015254875645041466,0.07851894199848175,8.98092269897461,-0.09029759466648102,-3.7755186557769775
1403638519957829500,-0.0022064968943595886,0.02499251253902912,0.07565610110759735,9.07879638671875,-0.04955531284213066,-3.7921409606933594
1403638519962829500,0.0005934759974479675,0.022181617096066475,0.0763506144285202,8.956521987915039,-0.06606145948171616,-3.792099714279175
1403638519967829500,-0.0036048665642738342,0.024331526830792427,0.07569050043821335,8.981060981750488,-0.033035147935152054,-3.759695053100586
1403638519972829500,0.0005698204040527344,0.020181188359856606,0.07843346148729324,8.940101623535156,-0.025034524500370026,-3.8088982105255127
1403638519977829500,-0.00010804086923599243,0.02085280604660511,0.07986166328191757,9.103399276733398,-0.057902101427316666,-3.8170108795166016
1403638519982829500,-0.001516290009021759,0.020785825327038765,0.07987044006586075,8.956430435180664,-0.0818386897444725,-3.824834108352661
1403638519987829500,0.0005759447813034058,0.0201165322214365,0.07704003155231476,9.086989402770996,-0.06584051251411438,-3.841419219970703
1403638519992829500,-0.002205081284046173,0.020106928423047066,0.07779277861118317,8.899534225463867,-0.07429967075586319,-3.76733660697937
1403638519997829500,0.000584729015827179,0.022861691191792488,0.07846053689718246,9.01361083984375,0.007750250399112701,-3.8088574409484863
1403638520002829500,-0.0021881982684135437,0.01870143599808216,0.07634671032428741,9.005558013916016,-0.03299681469798088,-3.808856248855591
1403638520007829500,-0.0029087141156196594,0.025033054873347282,0.07845436781644821,9.078744888305664,0.03188449144363403,-3.8419454097747803
1403638520012829500,-0.0021986886858940125,0.025723019614815712,0.08263958245515823,8.931918144226074,-0.041244301944971085,-3.8007147312164307
1403638520017829500,-0.0036226585507392883,0.01942933164536953,0.0784427672624588,9.062723159790039,-0.025270512327551842,-3.8005776405334473
1403638520022829500,-0.004969842731952667,0.01797054149210453,0.07986213266849518,8.924016952514648,-0.033283982425928116,-3.767634153366089
1403638520027829500,-0.0001270696520805359,0.017294632270932198,0.07841809093952179,9.078779220581055,-0.04125043377280235,-3.808776617050171
1403638520032829500,-0.00429622083902359,0.020762255415320396,0.07564417272806168,8.964664459228516,-0.07407105714082718,-3.751274824142456
1403638520037829500,-0.0022234544157981873,0.018010055646300316,0.07364146411418915,9.09504508972168,-0.03339138999581337,-3.8251795768737793
1403638520042829500,-0.00011037290096282959,0.02506415732204914,0.07360225170850754,9.054251670837402,-0.057274822145700455,-3.8332748413085938
1403638520047829500,-0.001529403030872345,0.024335520341992378,0.07425336539745331,9.062520980834961,0.007548581343144178,-3.808828592300415
1403638520052829500,-0.001482255756855011,0.024285735562443733,0.08058467507362366,8.948366165161133,-0.033348821103572845,-3.7677509784698486
1403638520057829500,-0.0035844817757606506,0.02013748697936535,0.07979002594947815,8.997312545776367,-0.04977041482925415,-3.7757534980773926
1403638520062829500,-0.007121674716472626,0.024284573271870613,0.07631652057170868,8.95665454864502,-0.03298673778772354,-3.8005216121673584
1403638520067829500,-0.005017563700675964,0.01521112211048603,0.07852999866008759,9.013757705688477,-0.07411165535449982,-3.817047119140625
1403638520072829500,-0.004283510148525238,0.022187987342476845,0.08056040108203888,9.111626625061035,-0.04144027456641197,-3.841803550720215
1403638520077829500,-0.00011808425188064575,0.023629462346434593,0.0826435536146164,9.037888526916504,-0.00046671630116179585,-3.8088629245758057
1403638520082829500,-0.0021834149956703186,0.027081584557890892,0.08127281069755554,8.972779273986816,-0.04154614731669426,-3.7922747135162354
1403638520087829500,-0.00010453909635543823,0.021506058052182198,0.07626447826623917,8.972960472106934,-0.00878035556524992,-3.759500503540039
1403638520092829500,-0.002211831510066986,0.019428255036473274,0.0735594779253006,8.932095527648926,-0.01686815731227398,-3.7676806449890137
1403638520097829500,-0.0029128938913345337,0.012398039922118187,0.07712869346141815,9.021722793579102,-0.017145764082670212,-3.80904483795166
1403638520102829500,-0.004974104464054108,0.018683450296521187,0.0756480023264885,9.15234375,-0.04127087816596031,-3.800790548324585
1403638520107829500,-0.0022326484322547913,0.018734240904450417,0.0777745470404625,9.062329292297363,-0.08214294165372849,-3.8250951766967773
1403638520112829500,-0.0029181763529777527,0.025733621791005135,0.07706868648529053,9.070585250854492,-0.06584693491458893,-3.792281150817871
1403638520117829500,-0.00218837708234787,0.022223027423024178,0.07910987734794617,8.866920471191406,-0.057414062321186066,-3.759122610092163
1403638520122829500,0.0033849775791168213,0.024296024814248085,0.07847896218299866,9.005500793457031,-0.0005431637400761247,-3.775975465774536
1403638520127829500,-0.0008185058832168579,0.02220981754362583,0.08055490255355835,8.948439598083496,-0.033159274607896805,-3.8005738258361816
1403638520132829500,-0.00012234598398208618,0.01804712601006031,0.07353818416595459,9.095185279846191,-0.04963541030883789,-3.8253285884857178
1403638520137829500,-0.002186216413974762,0.018726101145148277,0.08131181448698044,8.989168167114258,-0.041334912180900574,-3.825310230255127
1403638520142829500,-0.0036314576864242554,0.018719064071774483,0.07779258489608765,9.054402351379395,-0.008772616274654865,-3.817073345184326
1403638520147829500,-0.0014756247401237488,0.0194102693349123,0.07981934398412704,8.92384147644043,-0.09870074689388275,-3.783684015274048
1403638520152829500,-0.0021926090121269226,0.022199509665369987,0.07565964758396149,9.095126152038574,-0.04145005717873573,-3.8168375492095947
1403638520157829500,0.0012728869915008545,0.022893132641911507,0.07980026304721832,8.915661811828613,-0.07392612099647522,-3.8166542053222656
1403638520162829500,-0.000135861337184906,0.020120413973927498,0.07706043124198914,9.078824996948242,-0.04154950752854347,-3.784442901611328
1403638520167829500,-0.004990808665752411,0.024315597489476204,0.07784691452980042,9.01372241973877,-0.03293891251087189,-3.8088982105255127
1403638520172829500,-0.005692936480045319,0.0166569072753191,0.07565136253833771,9.03797435760498,-0.00906424131244421,-3.8007566928863525
1403638520177829500,-0.007792137563228607,0.01729004643857479,0.07634866237640381,8.92388916015625,-0.04951580986380577,-3.792267084121704
1403638520182829500,-0.00638183206319809,0.01730440743267536,0.0812540203332901,9.062780380249023,-0.008620086126029491,-3.792536973953247
1403638520187829500,-0.004287645220756531,0.022903868928551674,0.07773949205875397,8.972854614257812,-0.09863562136888504,-3.783743143081665
1403638520192829500,-0.0022174790501594543,0.019416050985455513,0.075666144490242,9.070748329162598,-0.049518220126628876,-3.8088457584381104
1403638520197829500,0.0005866214632987976,0.02572532929480076,0.07780995965003967,8.948324203491211,-0.05748116597533226,-3.8086812496185303
1403638520202829500,0.0012761950492858887,0.022244149819016457,0.07494529336690903,9.045968055725098,-0.0335150770843029,-3.8005902767181396
1403638520207829500,-0.001495175063610077,0.025005431845784187,0.07708410918712616,8.956476211547852,-0.03293146565556526,-3.808580160140991
1403638520212829500,-0.002910725772380829,0.016659798100590706,0.0770842432975769,8.997416496276855,-0.04155775532126427,-3.792318820953369
1403638520217829500,-0.0008238032460212708,0.0215070191770792,0.07489094138145447,9.054547309875488,-0.008906162343919277,-3.776001214981079
1403638520222829500,-0.002217315137386322,0.01727946288883686,0.07779030501842499,9.029830932617188,-0.041502922773361206,-3.792407274246216
1403638520227829500,-0.003602437674999237,0.01936652697622776,0.0757008045911789,9.046113014221191,-0.04142516106367111,-3.8088631629943848
1403638520232829500,-0.002891242504119873,0.017325418069958687,0.07563608139753342,9.038031578063965,-0.08227663487195969,-3.8167977333068848
1403638520237829500,-0.005723915994167328,0.02360263280570507,0.07502025365829468,9.046196937561035,-0.008581899106502533,-3.8007047176361084
1403638520242829500,-0.0036026015877723694,0.02151716686785221,0.08123954385519028,9.021748542785645,-0.016955776140093803,-3.79239821434021
1403638520247829500,0.001315481960773468,0.02713375724852085,0.07842686772346497,8.98921012878418,-0.01706632226705551,-3.784109115600586
1403638520252829500,0.0019930675625801086,0.018058354035019875,0.07987771928310394,8.92391586303711,-0.03321680799126625,-3.7759554386138916
1403638520257829500,-0.0008099600672721863,0.018697841092944145,0.07560937106609344,9.070805549621582,0.015708085149526596,-3.7844841480255127
1403638520262829500,-0.0029083415865898132,0.02007395215332508,0.07563729584217072,9.054378509521484,-0.04147700220346451,-3.7924065589904785
1403638520267829500,-0.003649510443210602,0.01939377747476101,0.07434314489364624,9.127678871154785,0.01555935200303793,-3.825505495071411
1403638520272829500,-0.0043039992451667786,0.022202828899025917,0.0791672021150589,9.005416870117188,-0.041194137185811996,-3.8087143898010254
1403638520277829500,-0.0035556554794311523,0.021510979160666466,0.07704250514507294,9.005396842956543,-0.008859432302415371,-3.8088018894195557
1403638520282829500,-0.00011307001113891602,0.02499084360897541,0.08124621212482452,8.932138442993164,-0.016699638217687607,-3.7677083015441895
1403638520287829500,-0.0008473172783851624,0.02433180995285511,0.074920155107975,9.02181625366211,0.007596041541546583,-3.800636053085327
1403638520292829500,0.0005919709801673889,0.01733425445854664,0.07355829328298569,8.931883811950684,-0.03324674442410469,-3.8005917072296143
1403638520297829500,-0.0015074610710144043,0.0166133102029562,0.07363906502723694,9.103311538696289,-0.02506781928241253,-3.833582878112793
1403638520302829500,-0.002890162169933319,0.02496105618774891,0.07639975100755692,8.907666206359863,-0.0902230441570282,-3.7839064598083496
1403638520307829500,-0.0035790279507637024,0.018735075369477272,0.07289295643568039,9.038084030151367,-0.04958247393369675,-3.7922563552856445
1403638520312829500,-0.0008149370551109314,0.02222476340830326,0.07570047676563263,8.980926513671875,-0.07359448820352554,-3.816568374633789
1403638520317829500,-0.00011774152517318726,0.02362753637135029,0.07630817592144012,9.029706954956055,-0.016990168020129204,-3.7923896312713623
1403638520322829500,-0.0008022263646125793,0.023578913882374763,0.0777515172958374,8.9483642578125,-0.0820678099989891,-3.7676212787628174
1403638520327829500,-0.0015091672539710999,0.02432865835726261,0.07430306822061539,9.0707426071167,-0.024881191551685333,-3.7924206256866455
1403638520332829500,-0.003643713891506195,0.02578522451221943,0.07775053381919861,8.980925559997559,-0.0412263385951519,-3.767777919769287
1403638520337829500,-0.00292205810546875,0.02011696808040142,0.0840764045715332,9.070669174194336,-0.05775563046336174,-3.8006889820098877
1403638520342829500,-0.0007859393954277039,0.02354518510401249,0.08335946500301361,9.030041694641113,-0.0251320730894804,-3.784238815307617
1403638520347829500,-0.0021943971514701843,0.022214243188500404,0.08467307686805725,9.02183723449707,-0.041553158313035965,-3.80049204826355
1403638520352829500,-0.0001101270318031311,0.02288578636944294,0.08189426362514496,8.9729642868042,-0.05773036926984787,-3.7759735584259033
1403638520357829500,0.002662062644958496,0.020794859156012535,0.07563133537769318,9.054431915283203,-0.00865104515105486,-3.808826208114624
1403638520362829500,-0.0022253617644309998,0.020804764702916145,0.0750175192952156,9.013514518737793,-0.0007679060217924416,-3.808936357498169
1403638520367829500,-0.0014935657382011414,0.017305897548794746,0.07921578735113144,9.005367279052734,-0.04976099729537964,-3.792423725128174
1403638520372829500,-0.0021877512335777283,0.01872279681265354,0.07844652980566025,8.97292709350586,-0.05756067857146263,-3.7923076152801514
1403638520377829500,-0.0022367313504219055,0.01802094466984272,0.08122554421424866,9.00561809539795,-0.049599193036556244,-3.7840943336486816
1403638520382829500,-0.0035939887166023254,0.024304712191224098,0.07280968129634857,9.005398750305176,-0.03317168727517128,-3.8087668418884277
1403638520387829500,-0.0015002116560935974,0.017334746196866035,0.07423212379217148,9.005378723144531,-0.024841180071234703,-3.79245924949646
1403638520392829500,-0.001535847783088684,0.02500665746629238,0.07366698980331421,9.095141410827637,0.03196239843964577,-3.817211389541626
1403638520397829500,-0.002202652394771576,0.022899383679032326,0.0770784467458725,8.972743034362793,-0.008695949800312519,-3.776082992553711
1403638520402829500,-0.004275009036064148,0.020828852429986,0.07289633899927139,9.038110733032227,-0.09865274280309677,-3.7348203659057617
1403638520407829500,-0.00431128591299057,0.022237496450543404,0.07709690928459167,8.964652061462402,-0.057782791554927826,-3.7921996116638184
1403638520412829500,-0.0015152618288993835,0.023648450151085854,0.07421397417783737,9.013400077819824,-0.0414448007941246,-3.816917657852173
1403638520417829500,-0.002196267247200012,0.019426146522164345,0.079149529337883,8.997330665588379,-0.10684031993150711,-3.78402042388916
1403638520422829500,-0.0008258447051048279,0.024309152737259865,0.0784909725189209,9.119745254516602,-0.07414531707763672,-3.8168580532073975
1403638520427829500,-0.0022123828530311584,0.02154107205569744,0.07913577556610107,8.940197944641113,-0.13128359615802765,-3.7508716583251953
1403638520432829500,-0.00013649463653564453,0.02079537697136402,0.07780136168003082,9.029902458190918,-0.049563124775886536,-3.792271852493286
1403638520437829500,0.0006035268306732178,0.016614804044365883,0.07710106670856476,8.874975204467773,-0.0738876461982727,-3.7839224338531494
1403638520442829500,-0.0008169189095497131,0.018047066405415535,0.07841458916664124,9.111509323120117,-0.03346126526594162,-3.833367109298706
1403638520447829500,-0.0028889402747154236,0.024297846481204033,0.08472844958305359,8.989278793334961,-0.032970014959573746,-3.817081928253174
1403638520452829500,-0.004326455295085907,0.02432449720799923,0.0832844153046608,9.13608169555664,0.023966742679476738,-3.8255767822265625
1403638520457829500,-0.004312731325626373,0.024336768314242363,0.08122564107179642,8.997293472290039,-0.04153534024953842,-3.775935411453247
1403638520462829500,-0.002889007329940796,0.022887567058205605,0.07920535653829575,8.980917930603027,-0.025147991254925728,-3.784177541732788
1403638520467829500,-0.0014749839901924133,0.01937022991478443,0.08123862743377686,8.891337394714355,-0.04160938039422035,-3.767793893814087
1403638520472829500,-0.00221368670463562,0.0180006492882967,0.0791371613740921,9.087140083312988,-0.041723284870386124,-3.825171709060669
1403638520477829500,-0.00013122707605361938,0.02361925132572651,0.07914642244577408,9.021666526794434,-0.016667073592543602,-3.8417980670928955
1403638520482829500,-0.005006380379199982,0.01875636912882328,0.07284049689769745,9.111431121826172,-0.058036595582962036,-3.817044258117676
1403638520487829500,-0.0035885795950889587,0.019372502341866493,0.07569792121648788,8.932172775268555,-0.04968148097395897,-3.767575263977051
1403638520492829500,-0.0028844252228736877,0.018001476302742958,0.07641003280878067,8.98092269897461,-0.016616692766547203,-3.7758495807647705
1403638520497829500,-0.005001656711101532,0.024278251454234123,0.077724888920784,8.948452949523926,0.007740101311355829,-3.784210443496704
1403638520502829500,-0.004987858235836029,0.015211367979645729,0.07775276899337769,8.9810791015625,-0.049648258835077286,-3.792442798614502
1403638520507829500,-0.005708388984203339,0.02084110863506794,0.07706368714570999,8.997365951538086,-0.09023395925760269,-3.776033878326416
1403638520512829500,-0.0036181434988975525,0.020858118310570717,0.07636485993862152,9.005464553833008,-0.05762062594294548,-3.8005034923553467
1403638520517829500,-0.0007997080683708191,0.023610251024365425,0.07852797210216522,9.005355834960938,-0.08228404819965363,-3.8166701793670654
1403638520522829500,-0.002881057560443878,0.023645678535103798,0.08053815364837646,9.038094520568848,-0.057772718369960785,-3.792175769805908
1403638520527829500,-0.003604501485824585,0.02501658909022808,0.08050183951854706,8.981050491333008,-0.03328763321042061,-3.7922329902648926
1403638520532829500,0.0026635751128196716,0.01660342700779438,0.08195264637470245,8.989076614379883,-0.058231838047504425,-3.7840425968170166
1403638520537829500,-0.00011646747589111328,0.02077433280646801,0.07774367183446884,9.054594993591309,-0.0007375315180979669,-3.800762891769409
1403638520542829500,-0.0049729123711586,0.018723970279097557,0.07776371389627457,8.980993270874023,-0.03309107571840286,-3.8253402709960938
1403638520547829500,-0.004289761185646057,0.0243189949542284,0.07986298203468323,9.062492370605469,-0.025165734812617302,-3.808980941772461
1403638520552829500,-0.00015823543071746826,0.020821230486035347,0.08259499818086624,8.899481773376465,-0.06582970917224884,-3.7347190380096436
1403638520557829500,-0.0029266178607940674,0.024315552785992622,0.08123616874217987,9.103415489196777,-0.025035984814167023,-3.816969633102417
1403638520562829500,-0.002844288945198059,0.02151300199329853,0.07638474553823471,8.997386932373047,-0.09026414901018143,-3.7757065296173096
1403638520567829500,-0.0015120282769203186,0.022876368835568428,0.07285328954458237,9.021707534790039,-0.04932742938399315,-3.792409658432007
1403638520572829500,-0.005045197904109955,0.01449490524828434,0.08127480745315552,8.91583251953125,-0.01689166948199272,-3.7762551307678223
1403638520577829500,-0.004978753626346588,0.02010718174278736,0.07566164433956146,9.087167739868164,0.04827045276761055,-3.8171286582946777
1403638520582829500,-0.004964657127857208,0.020834648981690407,0.07843339443206787,9.005435943603516,-0.0330171100795269,-3.792449951171875
1403638520587829500,-0.0036284103989601135,0.022217387333512306,0.07709667086601257,9.111474990844727,-0.041553739458322525,-3.8497848510742188
1403638520592829500,-0.0028810054063796997,0.023622171953320503,0.08053476363420486,8.972827911376953,-0.09854785352945328,-3.7838780879974365
1403638520597829500,-0.004297398030757904,0.022212857380509377,0.07847325503826141,9.00533390045166,-0.06583532691001892,-3.7922282218933105
1403638520602829500,0.0005555674433708191,0.01939239539206028,0.07706505060195923,8.899515151977539,-0.13129258155822754,-3.7346932888031006
1403638520607829500,-0.0022119954228401184,0.01874319277703762,0.07351889461278915,9.062666893005371,-0.04959182068705559,-3.784090757369995
1403638520612829500,-0.0014935806393623352,0.018756771460175514,0.07644016295671463,8.980859756469727,-0.05761025846004486,-3.7923731803894043
1403638520617829500,-0.0015213117003440857,0.018008416518568993,0.07710228860378265,9.111483573913574,0.0482509583234787,-3.817326068878174
1403638520622829500,-0.005016513168811798,0.025688352063298225,0.07632273435592651,8.94851303100586,-0.016945553943514824,-3.7759270668029785
1403638520627829500,-0.0028839334845542908,0.02153080143034458,0.07982556521892548,9.013747215270996,-0.0006836458924226463,-3.792407512664795
1403638520632829500,-0.0035886093974113464,0.019400691613554955,0.07981055229902267,8.923893928527832,-0.07404419034719467,-3.783937692642212
1403638520637829500,-0.004299081861972809,0.015208764001727104,0.07496847212314606,8.948307037353516,-0.06623216718435287,-3.8004090785980225
1403638520642829500,-0.0008028596639633179,0.018695631995797157,0.08065353333950043,8.956668853759766,-0.09843456745147705,-3.7922871112823486
1403638520647829500,0.004060067236423492,0.020165221765637398,0.07565871626138687,9.046202659606934,-0.03325696662068367,-3.8169288635253906
1403638520652829500,-0.0001177862286567688,0.020175600424408913,0.07493733614683151,9.013582229614258,-0.0658876821398735,-3.7922604084014893
1403638520657829500,-0.00218084454536438,0.017336571589112282,0.07919681072235107,9.029885292053223,-0.06594696640968323,-3.775905132293701
1403638520662829500,-0.0014982149004936218,0.020759036764502525,0.07700006663799286,9.013591766357422,-0.033144086599349976,-3.767714500427246
1403638520667829500,-0.0008668899536132812,0.02009529434144497,0.07636964321136475,8.93198299407959,-0.041389819234609604,-3.7757508754730225
1403638520672829500,-0.005670502781867981,0.024327395483851433,0.07573318481445312,8.989256858825684,-0.041144706308841705,-3.8169631958007812
1403638520677829500,-0.0063461363315582275,0.017375672236084938,0.07699283957481384,8.964910507202148,-0.02508176676928997,-3.7843286991119385
1403638520682829500,-0.002263195812702179,0.0194327961653471,0.07572036981582642,9.062418937683105,-0.049643296748399734,-3.8333427906036377
1403638520687829500,-0.0008445307612419128,0.022900262847542763,0.07851191610097885,9.005339622497559,-0.041134629398584366,-3.8332571983337402
1403638520692829500,-0.0007643923163414001,0.02290998585522175,0.07837897539138794,9.038161277770996,-0.025035401806235313,-3.8168680667877197
1403638520697829500,0.002011500298976898,0.02010561339557171,0.08266706019639969,8.948455810546875,-0.033622559159994125,-3.7759504318237305
1403638520702829500,0.0012590959668159485,0.019375232979655266,0.07776132225990295,8.972880363464355,-0.009029923938214779,-3.7678146362304688
1403638520707829500,-0.003593623638153076,0.016583455726504326,0.07837973535060883,8.940345764160156,-0.000622750842012465,-3.751671552658081
1403638520712829500,-0.0035884901881217957,0.01870579458773136,0.07641369104385376,9.046244621276855,-0.01713612489402294,-3.792639970779419
1403638520717829500,-0.0022206977009773254,0.018747912719845772,0.07918404787778854,8.948256492614746,-0.065923310816288,-3.800534725189209
1403638520722829500,-0.0036247745156288147,0.020831285044550896,0.07773400843143463,9.152308464050293,-0.0006123826024122536,-3.833465099334717
1403638520727829500,-0.004278227686882019,0.02151096798479557,0.07916533201932907,8.98918628692627,-0.09842734038829803,-3.7591679096221924
1403638520732829500,-0.002932228147983551,0.022210652008652687,0.07702407985925674,9.078766822814941,-0.04122750833630562,-3.784071207046509
1403638520737829500,0.0026425346732139587,0.018008271232247353,0.07703779637813568,8.964715957641602,-0.01669898070394993,-3.7349514961242676
1403638520742829500,-0.0007834956049919128,0.017284223809838295,0.07637734711170197,9.070737838745117,0.031937722116708755,-3.8090262413024902
1403638520747829500,-8.187443017959595e-05,0.02360721118748188,0.07917007058858871,8.989022254943848,-0.041090819984674454,-3.825314521789551
1403638520752829500,-0.004320599138736725,0.025050343945622444,0.07707805931568146,9.11156177520752,-0.01704237423837185,-3.841749906539917
1403638520757829500,-0.006413161754608154,0.021554524078965187,0.07846733182668686,8.923942565917969,-0.05783441662788391,-3.8086912631988525
1403638520762829500,-0.0049786195158958435,0.018000463023781776,0.07495498657226562,9.0380859375,-0.049638401716947556,-3.8249564170837402
1403638520767829500,-0.004289291799068451,0.022155286744236946,0.0735754519701004,8.891457557678223,-0.08213192224502563,-3.7591702938079834
1403638520772829500,-0.0035940855741500854,0.015193851664662361,0.07778433710336685,8.997364044189453,-0.04987015575170517,-3.792351245880127
1403638520777829500,-0.0008280202746391296,0.018753858283162117,0.07706807553768158,9.046229362487793,-0.049174971878528595,-3.817033290863037
1403638520782829500,0.0019476786255836487,0.02085968665778637,0.07637325674295425,9.070456504821777,-0.03300754725933075,-3.8497416973114014
1403638520787829500,-0.0015007108449935913,0.02497316338121891,0.07917525619268417,9.013501167297363,-0.0005126431933604181,-3.8008992671966553
1403638520792829500,-0.00354669988155365,0.02291635237634182,0.07980835437774658,8.997369766235352,-0.041278764605522156,-3.7921628952026367
1403638520797829500,-0.002882130444049835,0.021521130576729774,0.08053816854953766,8.866816520690918,-0.05760945379734039,-3.759237289428711
1403638520802829500,-0.0008570775389671326,0.0166043508797884,0.08335965871810913,8.964813232421875,-0.06598888337612152,-3.759458541870117
1403638520807829500,-0.002184443175792694,0.02287074364721775,0.08051065355539322,9.005653381347656,-0.032999951392412186,-3.8171088695526123
1403638520812829500,-0.0014844909310340881,0.019453665241599083,0.07848267257213593,9.02983570098877,-0.041359446942806244,-3.8253509998321533
1403638520817829500,-0.003642953932285309,0.02085997350513935,0.0750138908624649,9.119646072387695,-0.03329259902238846,-3.833564043045044
1403638520822829500,-0.00013037770986557007,0.016597805544734,0.08259937167167664,8.972810745239258,-0.049673669040203094,-3.7922024726867676
1403638520827829500,-0.0007846727967262268,0.023542264476418495,0.07775437831878662,9.005367279052734,-0.01687779650092125,-3.7921788692474365
1403638520832829500,-0.00079355388879776,0.024999679997563362,0.07494564354419708,8.964692115783691,-0.008681346662342548,-3.7921934127807617
1403638520837829500,-0.0035808607935905457,0.019444847479462624,0.07494405657052994,8.997343063354492,0.007466438692063093,-3.784409999847412
1403638520842829500,-0.0036188364028930664,0.013817885890603065,0.07430075109004974,9.01362419128418,-0.016925401985645294,-3.7926933765411377
1403638520847829500,-0.0043192580342292786,0.02006426639854908,0.0736025869846344,9.087114334106445,0.007390575483441353,-3.792743444442749
1403638520852829500,-0.0029081329703330994,0.022918807342648506,0.07288673520088196,8.988923072814941,-0.09014005959033966,-3.7675585746765137
1403638520857829500,-8.59871506690979e-05,0.027858057990670204,0.07355138659477234,9.029748916625977,-0.073896624147892,-3.824774742126465
1403638520862829500,0.0012840703129768372,0.02995462156832218,0.07919234037399292,8.875088691711426,-0.03323623165488243,-3.75932240486145
1403638520867829500,0.001264922320842743,0.023611733689904213,0.075694739818573,8.997384071350098,-0.033358458429574966,-3.7922370433807373
1403638520872829500,-0.0021995678544044495,0.02285877801477909,0.07283155620098114,8.883301734924316,-0.01668298989534378,-3.759672164916992
1403638520877829500,-0.0022189542651176453,0.020116889849305153,0.07288692146539688,9.046238899230957,0.056586939841508865,-3.8501336574554443
1403638520882829500,0.0005900263786315918,0.02221968211233616,0.07359480857849121,8.96450138092041,-0.049604013562202454,-3.8333661556243896
1403638520887829500,-0.0008093118667602539,0.02500327117741108,0.07499081641435623,9.095053672790527,-0.024969832971692085,-3.82513427734375
1403638520892829500,-0.0007868707180023193,0.027116326615214348,0.07921874523162842,8.964634895324707,-0.06570689380168915,-3.7920660972595215
1403638520897829500,-0.001511402428150177,0.022903556004166603,0.07701004296541214,9.038079261779785,-0.06603166460990906,-3.800323247909546
1403638520902829500,0.0005733296275138855,0.02074061520397663,0.07563594728708267,8.866724014282227,-0.06556626409292221,-3.7840569019317627
1403638520907829500,-0.0015010237693786621,0.015161992982029915,0.07568798214197159,9.0625581741333,-0.008707267232239246,-3.8008267879486084
1403638520912829500,-0.00010448694229125977,0.02009718306362629,0.07497195899486542,9.013614654541016,-0.0333615280687809,-3.8005871772766113
1403638520917829500,-0.0008190646767616272,0.022967500612139702,0.071538046002388,9.094895362854004,-0.016631148755550385,-3.8415894508361816
1403638520922829500,-0.002226985991001129,0.025051990523934364,0.07569881528615952,9.038125038146973,-0.016833549365401268,-3.7842233180999756
1403638520927829500,-0.0021881982684135437,0.02289845235645771,0.07561921328306198,9.078848838806152,-0.01700703427195549,-3.800464153289795
1403638520932829500,-0.002214200794696808,0.025676259770989418,0.07567902654409409,9.02982234954834,-0.08198603242635727,-3.7593579292297363
1403638520937829500,-0.004322893917560577,0.015182895585894585,0.07496263831853867,9.127870559692383,-0.025121120736002922,-3.7760860919952393
1403638520942829500,-0.0015145912766456604,0.02079174853861332,0.07563319802284241,9.021527290344238,-0.06574457138776779,-3.8169777393341064
1403638520947829500,-0.0015217140316963196,0.01874181069433689,0.07850810885429382,9.037956237792969,-0.03315693512558937,-3.7844178676605225
1403638520952829500,0.001957140862941742,0.02714216522872448,0.07990185916423798,9.079001426696777,-0.00874793715775013,-3.7842488288879395
1403638520957829500,0.0041007474064826965,0.02224915288388729,0.08329121768474579,9.021707534790039,0.0073832739144563675,-3.816953420639038
1403638520962829500,0.0026709958910942078,0.01870735175907612,0.07912229001522064,9.005500793457031,0.007485495880246162,-3.776052236557007
1403638520967829500,0.002669200301170349,0.01795063354074955,0.08191525936126709,8.997422218322754,-0.01706121116876602,-3.7842307090759277
1403638520972829500,-0.003605969250202179,0.020051704719662666,0.07563366740942001,9.013675689697266,-0.017134811729192734,-3.767958402633667
1403638520977829500,-0.002209499478340149,0.022247621789574623,0.07848621904850006,8.964705467224121,-0.03308888524770737,-3.7760400772094727
1403638520982829500,-0.002205096185207367,0.02229210175573826,0.07711853086948395,9.013571739196777,-0.04129650816321373,-3.8171238899230957
1403638520987829500,-0.0022096335887908936,0.02157040871679783,0.07704687118530273,9.013429641723633,-0.09062192589044571,-3.775783061981201
1403638520992829500,-0.002202153205871582,0.02360297180712223,0.07286514341831207,9.046063423156738,-0.05743648111820221,-3.792135238647461
1403638520997829500,0.0005635544657707214,0.022174658253788948,0.07496342808008194,8.948351860046387,-0.049368757754564285,-3.792165517807007
1403638521002829500,-0.0015183165669441223,0.02223261632025242,0.07145104557275772,9.054441452026367,-0.0007055505993776023,-3.808809757232666
1403638521007829500,-0.004964910447597504,0.024297574535012245,0.07501249015331268,8.907615661621094,-0.03297293558716774,-3.7514383792877197
1403638521012829500,-0.007062047719955444,0.022226983681321144,0.07571404427289963,9.038105964660645,0.007562162354588509,-3.8336598873138428
1403638521017829500,-0.004326671361923218,0.023650886490941048,0.07637091726064682,8.940306663513184,-0.1148834377527237,-3.8002169132232666
1403638521022829500,-0.004311271011829376,0.022933637723326683,0.07500360161066055,9.021714210510254,-0.09844125062227249,-3.808556318283081
1403638521027829500,-0.0028757229447364807,0.023594042286276817,0.07706145942211151,8.948348045349121,-0.1065639927983284,-3.775728940963745
1403638521032829500,-0.002911195158958435,0.020095018669962883,0.07912831008434296,9.046304702758789,-0.09874382615089417,-3.791982889175415
1403638521037829500,0.001948438584804535,0.018709959462285042,0.07780518382787704,8.915578842163086,-0.09834388643503189,-3.808445692062378
1403638521042829500,0.004068873822689056,0.019414613023400307,0.07636187225580215,9.09508228302002,0.01583148166537285,-3.858149766921997
1403638521047829500,0.0026990100741386414,0.01939842663705349,0.07985725998878479,8.94834041595459,-0.041444581001996994,-3.85778546333313
1403638521052829500,0.0033960044384002686,0.024311663582921028,0.0840517058968544,9.11143684387207,0.01573093794286251,-3.849975347518921
1403638521057829500,-0.0022090673446655273,0.026427993550896645,0.07911734282970428,8.989216804504395,-0.016709275543689728,-3.808722496032715
1403638521062829500,-0.0008342117071151733,0.019397782161831856,0.08189705014228821,9.111360549926758,-0.017288072034716606,-3.8416404724121094
1403638521067829500,-0.002898961305618286,0.02076198346912861,0.07635718584060669,9.046087265014648,-0.016634946689009666,-3.8007965087890625
1403638521072829500,-0.002203911542892456,0.014461187645792961,0.07777120172977448,9.021745681762695,-0.033384308218955994,-3.7761118412017822
1403638521077829500,-0.0015009194612503052,0.019390473142266273,0.07501807808876038,9.09504222869873,-0.0251909252256155,-3.7761878967285156
1403638521082829500,-0.0015392079949378967,0.015952052548527718,0.07702795416116714,9.119555473327637,-0.0415005125105381,-3.7841830253601074
1403638521087829500,0.0005702897906303406,0.022924622520804405,0.076334148645401,9.135741233825684,-0.008826794102787971,-3.8171210289001465
1403638521092829500,-0.0021943822503089905,0.022206244990229607,0.07706578075885773,9.029787063598633,-0.017065592110157013,-3.800503730773926
1403638521097829500,-0.0035788044333457947,0.02357691340148449,0.07563140988349915,9.005546569824219,0.007635543122887611,-3.775944948196411
1403638521102829500,-0.004306361079216003,0.018721038475632668,0.07705885916948318,9.030049324035645,0.06458748877048492,-3.7517549991607666
1403638521107829500,-0.006417296826839447,0.022900225594639778,0.07568512856960297,8.997485160827637,0.007511927280575037,-3.75978946685791
1403638521112829500,-0.009184107184410095,0.014531044289469719,0.08472169190645218,9.062716484069824,-0.06587161868810654,-3.7762551307678223
1403638521117829500,-0.014786235988140106,0.021530361846089363,0.0875437781214714,9.209554672241211,-0.06600362807512283,-3.8173232078552246
1403638521122829500,-0.016171526163816452,0.025046737864613533,0.09171730279922485,8.964756965637207,-0.2620135545730591,-3.742579936981201
1403638521127829500,-0.010592646896839142,0.022221626713871956,0.09797503054141998,8.850825309753418,-0.3028562068939209,-3.709477186203003
1403638521132829500,0.00545182079076767,0.022953709587454796,0.11399266123771667,8.932534217834473,-0.2780693471431732,-3.7830898761749268
1403638521137829500,0.01942499727010727,0.030706243589520454,0.11326464265584946,9.209410667419434,-0.10691475868225098,-3.8985843658447266
1403638521142829500,0.020836248993873596,0.035540200769901276,0.09441757202148438,9.152021408081055,0.0406046099960804,-3.915648937225342
1403638521147829500,0.011769607663154602,0.03479994088411331,0.07067397981882095,9.013676643371582,0.17086562514305115,-3.8503918647766113
1403638521152829500,0.0012801960110664368,0.026403436437249184,0.06726294755935669,8.606122016906738,0.19507543742656708,-3.784680128097534
1403638521157829500,-0.0008322522044181824,0.012992629781365395,0.08060640096664429,8.794034004211426,0.26898959279060364,-3.8425803184509277
1403638521162829500,-0.004243113100528717,0.012191830202937126,0.09655125439167023,8.827193260192871,0.2850239872932434,-3.82666015625
1403638521167829500,-0.011226184666156769,0.010844701901078224,0.07964172214269638,9.046599388122559,0.2516974210739136,-3.826813220977783
1403638521172829500,-0.0224483460187912,0.008143596351146698,0.05459073930978775,9.037862777709961,-0.041707802563905716,-3.784581184387207
1403638521177829500,-0.02114979922771454,0.007543645799160004,0.03734968230128288,9.184305191040039,-0.18894891440868378,-3.7836458683013916
1403638521182829500,-0.00710083544254303,0.018026163801550865,0.043818987905979156,9.03725814819336,-0.24533231556415558,-3.791264057159424
1403638521187829500,0.006274573504924774,0.025025101378560066,0.05499935522675514,8.99657154083252,-0.032700005918741226,-3.775343894958496
1403638521192829500,0.0021400675177574158,0.02579609490931034,0.05622385814785957,8.907082557678223,-0.048945557326078415,-3.783297538757324
1403638521197829500,-0.0049927979707717896,0.02370605804026127,0.05185820534825325,9.062398910522461,0.0001890376297524199,-3.849400758743286
1403638521202829500,-0.009297318756580353,0.028538567945361137,0.054047245532274246,8.916118621826172,-0.056393302977085114,-3.7921667098999023
1403638521207829500,-0.007170267403125763,0.02434397302567959,0.06595373898744583,8.9894380569458,-0.12168002873659134,-3.808502197265625
1403638521212829500,-0.008397124707698822,0.021562086418271065,0.07640570402145386,8.842366218566895,-0.1709705889225006,-3.750662326812744
1403638521217829500,-0.009853281080722809,0.0159419234842062,0.08829697966575623,8.997415542602539,-0.1473168283700943,-3.7836127281188965
1403638521222829500,-0.010697819292545319,0.017986496910452843,0.09180007874965668,9.063109397888184,-0.13968384265899658,-3.7594215869903564
1403638521227829500,0.0011366233229637146,0.012410381808876991,0.09035471081733704,9.08737850189209,-0.11592062562704086,-3.702136516571045
1403638521232829500,0.004102081060409546,0.01387600414454937,0.0783955529332161,9.08658218383789,-0.148332878947258,-3.7510874271392822
1403638521237829500,0.010443545877933502,0.01461922936141491,0.06708279252052307,9.249337196350098,-0.15691980719566345,-3.77543306350708
1403638521242829500,0.012500755488872528,0.025030771270394325,0.06302668154239655,9.2576322555542,0.006539504509419203,-3.800462245941162
1403638521247829500,0.011678390204906464,0.030611949041485786,0.07444103062152863,9.029786109924316,0.17868509888648987,-3.76833176612854
1403638521252829500,0.0012771114706993103,0.03060714714229107,0.07513576000928879,8.940935134887695,0.3261641561985016,-3.7525599002838135
1403638521257829500,-0.0035631731152534485,0.020091207697987556,0.08261477202177048,9.09587287902832,0.19594205915927887,-3.7770471572875977
1403638521262829500,-0.011967577040195465,0.024217957630753517,0.07331511378288269,9.152557373046875,0.06531523913145065,-3.7769408226013184
1403638521267829500,-0.01696009561419487,0.019373873248696327,0.0684286504983902,9.111604690551758,-0.0733170285820961,-3.768242835998535
1403638521272829500,-0.01274850219488144,0.02578471042215824,0.061159271746873856,9.094852447509766,-0.17136052250862122,-3.8001902103424072
1403638521277829500,-0.003647230565547943,0.02510913275182247,0.06208035349845886,8.955880165100098,-0.20433971285820007,-3.791552782058716
1403638521282829500,0.004117883741855621,0.02713886834681034,0.06270669400691986,9.005084991455078,-0.11486970633268356,-3.849149227142334
1403638521287829500,0.006290070712566376,0.022901104763150215,0.06528593599796295,8.891220092773438,-0.09062269330024719,-3.8408923149108887
1403638521292829500,0.006182901561260223,0.02709868736565113,0.06569604575634003,9.013416290283203,0.023615099489688873,-3.8413684368133545
1403638521297829500,0.0005520209670066833,0.023613693192601204,0.06852107495069504,8.858545303344727,0.007715349085628986,-3.79233717918396
1403638521302829500,-0.006363771855831146,0.017983032390475273,0.0666402280330658,8.875310897827148,-0.0008197471615858376,-3.7925357818603516
1403638521307829500,-0.004248827695846558,0.012435412034392357,0.07093371450901031,8.866985321044922,-0.12309178709983826,-3.783889055252075
1403638521312829500,-0.0029287710785865784,0.012426571920514107,0.07305015623569489,8.939992904663086,-0.13973717391490936,-3.767385721206665
1403638521317829500,-0.004353635013103485,0.00889468751847744,0.07713203132152557,8.97256851196289,-0.17179164290428162,-3.7673397064208984
1403638521322829500,-0.002262800931930542,0.01805024780333042,0.07978688180446625,9.152262687683105,-0.13944387435913086,-3.792003631591797
1403638521327829500,0.003330722451210022,0.02227558009326458,0.08604498207569122,8.948249816894531,-0.16456075012683868,-3.726179599761963
1403638521332829500,0.0033927038311958313,0.02089843340218067,0.08258318901062012,9.078600883483887,-0.0667077898979187,-3.7676424980163574
1403638521337829500,0.002764560282230377,0.029999950900673866,0.08268927037715912,9.005244255065918,-0.12331119924783707,-3.808185338973999
1403638521342829500,-0.0021684393286705017,0.030668338760733604,0.08342015743255615,8.997167587280273,-0.057907648384571075,-3.8496391773223877
1403638521347829500,-0.0022427216172218323,0.028503993526101112,0.09591549634933472,8.883712768554688,-0.032899484038352966,-3.817136526107788
1403638521352829500,-0.000799618661403656,0.023608023300766945,0.10213456302881241,8.916630744934082,-0.05735594406723976,-3.857874870300293
1403638521357829500,-0.0014939159154891968,0.020784275606274605,0.09643302857875824,8.932560920715332,-0.1141413077712059,-3.7922394275665283
1403638521362829500,0.00334959477186203,0.014442870393395424,0.09434458613395691,8.997523307800293,-0.03250300884246826,-3.825357437133789
1403638521367829500,0.0005546733736991882,0.015132570639252663,0.09590274095535278,8.981101989746094,-0.049299828708171844,-3.8335652351379395
1403638521372829500,0.004724882543087006,0.01172536052763462,0.09525120258331299,9.086977005004883,-0.05803455039858818,-3.8334238529205322
1403638521377829500,0.006169416010379791,0.01867157407104969,0.09384177625179291,9.078927993774414,0.023379405960440636,-3.8092286586761475
1403638521382829500,0.006197668612003326,0.013799866661429405,0.09022046625614166,9.021705627441406,0.08029644936323166,-3.7764506340026855
1403638521387829500,0.0020328909158706665,0.018684322014451027,0.08667516708374023,9.09514331817627,0.039474692195653915,-3.784525156021118
1403638521392829500,0.001269124448299408,0.01519198901951313,0.07978838682174683,9.086770057678223,0.06368377804756165,-3.784613609313965
1403638521397829500,-0.0008476600050926208,0.020763007923960686,0.07629024982452393,9.144046783447266,0.10471975803375244,-3.760319471359253
1403638521402829500,-0.0063910409808158875,0.01799546368420124,0.07911871373653412,9.038351058959961,0.03990957513451576,-3.74367618560791
1403638521407829500,-0.011250115931034088,0.023598628118634224,0.07150956243276596,9.127920150756836,0.07297137379646301,-3.801229238510132
1403638521412829500,-0.007829070091247559,0.026467541232705116,0.07569962739944458,8.997166633605957,-0.1066734790802002,-3.7511367797851562
1403638521417829500,-0.010638125240802765,0.019425062462687492,0.07152381539344788,9.005471229553223,-0.188380628824234,-3.775351047515869
1403638521422829500,-0.0022066831588745117,0.019465694203972816,0.07565052807331085,8.972887992858887,-0.17989014089107513,-3.7751989364624023
1403638521427829500,-0.0028763040900230408,0.019451303407549858,0.07284113764762878,9.046297073364258,-0.03331815451383591,-3.816629409790039
1403638521432829500,-0.0036147013306617737,0.016601556912064552,0.07494142651557922,8.972797393798828,-0.024904703721404076,-3.8169169425964355
1403638521437829500,-0.0035833045840263367,0.022218873724341393,0.07500810921192169,9.144173622131348,0.007737253792583942,-3.86631178855896
1403638521442829500,-0.005019351840019226,0.026446731761097908,0.07855768501758575,8.956466674804688,-0.1392417699098587,-3.8000152111053467
1403638521447829500,-0.0001289471983909607,0.023627975955605507,0.08192131668329239,8.997145652770996,-0.1472158432006836,-3.7672407627105713
1403638521452829500,0.002697952091693878,0.020796025171875954,0.07907339930534363,8.948476791381836,-0.08145725727081299,-3.7837984561920166
1403638521457829500,0.004067130386829376,0.01803198643028736,0.07700171321630478,9.029924392700195,-0.017215566709637642,-3.7595911026000977
1403638521462829500,0.0026369094848632812,0.012390447780489922,0.07983757555484772,8.883015632629395,-0.06589746475219727,-3.710505962371826
1403638521467829500,-0.001542501151561737,0.00822383351624012,0.08199314773082733,9.078981399536133,-0.09870783239603043,-3.7923266887664795
1403638521472829500,-0.00358649343252182,0.02157912589609623,0.09038292616605759,8.972939491271973,-0.13958759605884552,-3.7837605476379395
1403638521477829500,-0.00011139363050460815,0.025772759690880775,0.09096803516149521,9.144125938415527,-0.07390743494033813,-3.833362102508545
1403638521482829500,0.0034091398119926453,0.0313626304268837,0.09649741649627686,9.030049324035645,-0.15557730197906494,-3.8000524044036865
1403638521487829500,-8.613616228103638e-05,0.032728686928749084,0.09795589745044708,8.989191055297852,-0.04182010143995285,-3.8168482780456543
1403638521492829500,-0.0014862492680549622,0.02777022309601307,0.10214244574308395,8.802053451538086,-0.01653929613530636,-3.768080234527588
1403638521497829500,0.0019679442048072815,0.02703217603266239,0.10981159657239914,8.93260383605957,0.10630310326814651,-3.924293279647827
1403638521502829500,-0.004996135830879211,0.03054814226925373,0.1042017936706543,8.883772850036621,0.17928528785705566,-3.900128126144409
1403638521507829500,-0.011912696063518524,0.019350534304976463,0.09717005491256714,8.932653427124023,0.21134866774082184,-3.8921051025390625
1403638521512829500,-0.022387884557247162,0.015759943053126335,0.08955690264701843,8.883814811706543,0.16252906620502472,-3.8182597160339355
1403638521517829500,-0.023176081478595734,0.005955031141638756,0.0888843685388565,8.883663177490234,-0.009427055716514587,-3.7680132389068604
1403638521522829500,-0.029387451708316803,0.002467939630150795,0.0987001284956932,8.989768981933594,-0.1892164796590805,-3.726942300796509
1403638521527829500,-0.019622236490249634,0.0004836674779653549,0.10636737197637558,9.16074275970459,-0.344346821308136,-3.734464645385742
1403638521532829500,-0.008480757474899292,0.013195725157856941,0.11185188591480255,9.17664909362793,-0.42593541741371155,-3.7258405685424805
1403638521537829500,0.003320164978504181,0.01884271763265133,0.11674737930297852,9.176666259765625,-0.3600955605506897,-3.717775344848633
1403638521542829500,0.010374672710895538,0.034962303936481476,0.1271965652704239,9.144445419311523,-0.31044191122055054,-3.758655548095703
1403638521547829500,0.020089589059352875,0.039145439863204956,0.13271217048168182,9.005888938903809,-0.15532594919204712,-3.7587890625
1403638521552829500,0.01800086349248886,0.03831198811531067,0.13481059670448303,9.071637153625488,0.09760642796754837,-3.833782434463501
1403638521557829500,0.010338984429836273,0.03897411376237869,0.12641602754592896,8.998197555541992,0.13038164377212524,-3.9077608585357666
1403638521562829500,0.0012685954570770264,0.03755398094654083,0.11526533961296082,8.957315444946289,0.17072784900665283,-3.9246246814727783
1403638521567829500,0.0012134015560150146,0.0277403611689806,0.1083497703075409,8.794452667236328,0.19501249492168427,-3.87571382522583
1403638521572829500,-0.001512177288532257,0.019305648282170296,0.0936165526509285,8.900151252746582,0.27605947852134705,-3.9003753662109375
1403638521577829500,-0.004909835755825043,0.010849576443433762,0.07758313417434692,8.77722454071045,0.18573519587516785,-3.850595474243164
1403638521582829500,-0.004260741174221039,0.008000703528523445,0.05816468968987465,9.045957565307617,0.1695939153432846,-3.87510085105896
1403638521587829500,-0.00641777366399765,0.008064720779657364,0.03937799111008644,9.127402305603027,0.13748015463352203,-3.84200382232666
1403638521592829500,-0.004272378981113434,0.011600185185670853,0.019200611859560013,9.151503562927246,0.268873929977417,-3.7518961429595947
1403638521597829500,-0.0077019259333610535,0.010191330686211586,0.010138634592294693,8.988327026367188,0.2695466876029968,-3.6780683994293213
1403638521602829500,-0.011956684291362762,0.01168498583137989,-0.00038482993841171265,9.176004409790039,0.18804717063903809,-3.693861961364746
1403638521607829500,-0.019669879227876663,0.020149407908320427,-0.0002378225326538086,9.102378845214844,0.0342978797852993,-3.742504358291626
1403638521612829500,-0.021843593567609787,0.0299872774630785,0.006157290190458298,9.167984008789062,-0.04737352952361107,-3.7917494773864746
1403638521617829500,-0.012060150504112244,0.034254126250743866,0.01659141480922699,8.996901512145996,-0.2839820086956024,-3.8071398735046387
1403638521622829500,-0.00364617258310318,0.03567725419998169,0.027734125033020973,8.964099884033203,-0.3497776389122009,-3.798560619354248
1403638521627829500,0.001998402178287506,0.03356737643480301,0.04024666175246239,8.801106452941895,-0.40748152136802673,-3.7818901538848877
1403638521632829500,0.005434475839138031,0.0251206886023283,0.05203518643975258,8.899300575256348,-0.31851062178611755,-3.8560736179351807
1403638521637829500,0.010296784341335297,0.024385327473282814,0.06540720164775848,8.768808364868164,-0.3187382221221924,-3.8807153701782227
1403638521642829500,0.01594477891921997,0.01877387799322605,0.07931599766016006,8.915547370910645,-0.19684289395809174,-3.955366611480713
1403638521647829500,0.013940639793872833,0.023623676970601082,0.091730996966362,8.801870346069336,-0.16438595950603485,-3.8899624347686768
1403638521652829500,0.013221077620983124,0.010979795828461647,0.09166279435157776,8.826325416564941,-0.0011272892588749528,-3.841446876525879
1403638521657829500,0.0033559873700141907,0.009541386738419533,0.0860559344291687,9.046293258666992,0.0238665658980608,-3.8417201042175293
1403638521662829500,0.0026128217577934265,0.013744203373789787,0.0861048772931099,9.143731117248535,-0.000789226614870131,-3.800753355026245
1403638521667829500,-0.0007989779114723206,0.014424456283450127,0.0799117237329483,8.980616569519043,0.00822923332452774,-3.7601141929626465
1403638521672829500,-0.00011312216520309448,0.006165888160467148,0.07850483059883118,9.119739532470703,-0.057499054819345474,-3.735434055328369
1403638521677829500,-0.0014834776520729065,0.018787512555718422,0.07566672563552856,9.250066757202148,0.007655403111129999,-3.7846593856811523
1403638521682829500,-0.007831580936908722,0.020139968022704124,0.07910485565662384,9.176457405090332,0.04045996442437172,-3.686711549758911
1403638521687829500,-0.0120076984167099,0.023610273376107216,0.07849638164043427,9.21772289276123,-0.05775979161262512,-3.7517447471618652
1403638521692829500,-0.0049881041049957275,0.03561979532241821,0.08548562228679657,9.1361083984375,-0.11497747898101807,-3.7347748279571533
1403638521697829500,-0.0056553855538368225,0.036326564848423004,0.09034532308578491,8.989280700683594,-0.17210102081298828,-3.7099392414093018
1403638521702829500,-0.0007971599698066711,0.03062569536268711,0.09247668087482452,8.908180236816406,-0.1963355839252472,-3.7429087162017822
1403638521707829500,0.0040273889899253845,0.027184398844838142,0.09805446863174438,9.046728134155273,-0.17174465954303741,-3.8329789638519287
1403638521712829500,0.00675586611032486,0.02365157939493656,0.11054764688014984,8.97291374206543,-0.1640695035457611,-3.841285228729248
1403638521717829500,0.012415863573551178,0.02563701756298542,0.11605676263570786,9.005919456481934,-0.05865270271897316,-3.8416709899902344
1403638521722829500,0.011093102395534515,0.01866351254284382,0.11668196320533752,8.91671085357666,0.014859934337437153,-3.8253016471862793
1403638521727829500,0.0068510472774505615,0.017270995303988457,0.10614193975925446,9.087467193603516,0.17769332230091095,-3.8178870677948
1403638521732829500,0.0012551546096801758,0.01716715656220913,0.10061222314834595,8.981063842773438,0.2504904866218567,-3.75299072265625
1403638521737829500,-0.005009055137634277,0.015057368203997612,0.08818008005619049,9.176763534545898,0.274753212928772,-3.8187146186828613
1403638521742829500,-0.011265337467193604,0.01511155255138874,0.0755675807595253,9.13594913482666,0.26715025305747986,-3.793999195098877
1403638521747829500,-0.016136549413204193,0.020784715190529823,0.056010179221630096,9.249892234802246,0.2349545657634735,-3.801853656768799
1403638521752829500,-0.02171647921204567,0.022881144657731056,0.048416443169116974,9.062215805053711,0.08864200115203857,-3.7682747840881348
1403638521757829500,-0.02320486307144165,0.02008766122162342,0.03172442689538002,9.17640495300293,-0.03341526538133621,-3.792027235031128
1403638521762829500,-0.018960099667310715,0.029254300519824028,0.036708004772663116,8.988663673400879,-0.17112712562084198,-3.750521421432495
1403638521767829500,-0.011941410601139069,0.022248486056923866,0.04441927373409271,8.939966201782227,-0.1952560395002365,-3.7667577266693115
1403638521772829500,-0.005669981241226196,0.01944221742451191,0.04991316422820091,8.932232856750488,-0.2926514446735382,-3.7499594688415527
1403638521777829500,-0.00012254714965820312,0.02094242535531521,0.05761648714542389,9.03796672821045,-0.2684659957885742,-3.7910563945770264
1403638521782829500,0.004722230136394501,0.023719018325209618,0.06598023325204849,8.947941780090332,-0.2601078152656555,-3.7501556873321533
1403638521787829500,0.008900709450244904,0.018100330606102943,0.07150048017501831,9.029611587524414,-0.23570559918880463,-3.831963062286377
1403638521792829500,0.014535658061504364,0.029283033683896065,0.07576842606067657,8.980772018432617,-0.16263799369335175,-3.8486368656158447
1403638521797829500,0.019420988857746124,0.029281752184033394,0.07705944776535034,8.988714218139648,-0.024318240582942963,-3.881989002227783
1403638521802829500,0.02080000936985016,0.02917887456715107,0.07630478590726852,8.931913375854492,0.11353670060634613,-3.833479404449463
1403638521807829500,0.016619481146335602,0.01938762702047825,0.0764082744717598,8.93205738067627,0.16166184842586517,-3.809231758117676
1403638521812829500,0.009650744497776031,0.01793336309492588,0.07697057723999023,8.989091873168945,0.22699402272701263,-3.8098583221435547
1403638521817829500,0.0013061538338661194,0.01370086707174778,0.07832269370555878,8.997340202331543,0.18574023246765137,-3.79343581199646
1403638521822829500,-0.0042533427476882935,0.013742571696639061,0.07704979181289673,9.01369571685791,0.055231038480997086,-3.793118953704834
1403638521827829500,-0.004955761134624481,0.011019224300980568,0.07774271070957184,9.037948608398438,-0.07499521970748901,-3.7679831981658936
1403638521832829500,-0.0008020326495170593,0.017292523756623268,0.08059313893318176,9.143878936767578,-0.057893410325050354,-3.792459726333618
1403638521837829500,-0.002173297107219696,0.016561122611165047,0.08343745023012161,9.005267143249512,-0.08147338777780533,-3.7594363689422607
1403638521842829500,-0.0015029683709144592,0.021499888971447945,0.08542001247406006,9.119795799255371,-0.05657562240958214,-3.7514760494232178
1403638521847829500,-0.004305817186832428,0.02367262728512287,0.09237886965274811,9.029976844787598,-0.08884406834840775,-3.7676143646240234
1403638521852829500,-0.005059942603111267,0.026464471593499184,0.0868196040391922,9.152155876159668,-0.07266178727149963,-3.825152635574341
1403638521857829500,-0.00013371556997299194,0.034836798906326294,0.09034866839647293,9.02997875213623,-0.14612936973571777,-3.8248894214630127
1403638521862829500,0.00753282755613327,0.032087258994579315,0.0889778733253479,8.997281074523926,-0.21215000748634338,-3.8245279788970947
1403638521867829500,0.013109646737575531,0.02646937407553196,0.08542193472385406,8.882974624633789,-0.31091171503067017,-3.815586805343628
1403638521872829500,0.01659271866083145,0.028522497043013573,0.08404696732759476,8.97280502319336,-0.22173507511615753,-3.8322885036468506
1403638521877829500,0.02496916800737381,0.018026312813162804,0.08962182700634003,8.760889053344727,-0.24680811166763306,-3.7584803104400635
1403638521882829500,0.02216135710477829,0.006865931674838066,0.09375414252281189,8.972899436950684,-0.2310592532157898,-3.767010450363159
1403638521887829500,0.02221301943063736,0.009682288393378258,0.0945071205496788,8.940169334411621,-0.20636144280433655,-3.725966453552246
1403638521892829500,0.024311251938343048,0.008280180394649506,0.09651090204715729,9.119474411010742,-0.173868328332901,-3.701761484146118
1403638521897829500,0.02631937712430954,0.013148175552487373,0.10274769365787506,9.086920738220215,-0.18932132422924042,-3.636096239089966
1403638521902829500,0.029853545129299164,0.02022860385477543,0.10282299667596817,9.16836166381836,-0.10729319602251053,-3.644402503967285
1403638521907829500,0.0326651856303215,0.022977644577622414,0.10275637358427048,9.103049278259277,0.02369636669754982,-3.6531319618225098
1403638521912829500,0.025651387870311737,0.024284863844513893,0.09432458132505417,9.17682933807373,0.18743477761745453,-3.7195119857788086
1403638521917829500,0.012408100068569183,0.029181020334362984,0.0852690041065216,9.030261039733887,0.3345825672149658,-3.7038562297821045
1403638521922829500,0.008922062814235687,0.019431212916970253,0.06995498389005661,9.10351276397705,0.3175419569015503,-3.6954641342163086
1403638521927829500,0.0033018067479133606,0.0228851530700922,0.05815884470939636,9.144176483154297,0.2032196819782257,-3.735882043838501
1403638521932829500,0.0005182176828384399,0.01527889259159565,0.036618370562791824,9.290643692016602,-0.025668593123555183,-3.710348129272461
1403638521937829500,0.011685080826282501,0.01883809082210064,0.01851513981819153,9.559564590454102,-0.2877448499202728,-3.7012434005737305
1403638521942829500,0.031095072627067566,0.04203667491674423,0.008069347590208054,9.697397232055664,-0.4507921636104584,-3.700488567352295
1403638521947829500,0.049271292984485626,0.07704675197601318,0.001828078180551529,9.443607330322266,-0.367757648229599,-3.691970109939575
1403638521952829500,0.06267417222261429,0.10158040374517441,0.011626705527305603,9.215461730957031,-0.19554565846920013,-3.6922426223754883
1403638521957829500,0.06541649252176285,0.11210557818412781,0.034637048840522766,8.75924301147461,-0.16305579245090485,-3.5854480266571045
1403638521962829500,0.06529786437749863,0.08402451872825623,0.05546876788139343,8.499211311340332,-0.2125275731086731,-3.462332010269165
1403638521967829500,0.06810551136732101,0.054393306374549866,0.06177300959825516,8.500020980834961,-0.3108108937740326,-3.5275638103485107
1403638521972829500,0.07092342525720596,0.029140086844563484,0.058271005749702454,8.5486478805542,-0.3926027715206146,-3.6094777584075928
1403638521977829500,0.07861768454313278,0.004749976098537445,0.048491284251213074,8.336057662963867,-0.46722477674484253,-3.4453060626983643
1403638521982829500,0.08702797442674637,-0.03579277545213699,0.03398986905813217,8.66151237487793,-0.6963238716125488,-3.5834968090057373
1403638521987829500,0.09538333863019943,-0.028764449059963226,0.03260759264230728,9.011428833007812,-0.5569270253181458,-3.7720088958740234
1403638521992829500,0.10797332972288132,-0.02254262939095497,0.06525871902704239,8.57147216796875,-0.23100072145462036,-3.527272939682007
1403638521997829500,0.10323598235845566,-0.03239129111170769,0.08044864982366562,8.760261535644531,0.08727134764194489,-3.791588306427002
1403638522002829500,0.08580540865659714,-0.03572910279035568,0.08511504530906677,8.86703109741211,0.4141528904438019,-3.8008668422698975
1403638522007829500,0.06193048506975174,-0.04560956731438637,0.07961952686309814,9.33038330078125,0.49604254961013794,-4.186554431915283
1403638522012829500,0.030437611043453217,-0.05357658863067627,0.06511474400758743,9.35474681854248,0.6189516186714172,-4.269870281219482
1403638522017829500,0.008033446967601776,-0.057652778923511505,0.05225585401058197,10.024796485900879,0.5712639093399048,-4.4899115562438965
1403638522022829500,0.0011907219886779785,-0.042099203914403915,0.034180011600255966,9.869328498840332,0.2441287636756897,-4.210711479187012
1403638522027829500,-0.0023279190063476562,-0.0457029864192009,0.00951201468706131,9.738468170166016,0.10531118512153625,-4.193387031555176
1403638522032829500,-0.009978994727134705,-0.04429478198289871,-0.007222525775432587,9.4041748046875,0.016127413138747215,-4.021224021911621
1403638522037829500,-0.01905856281518936,-0.056002937257289886,-0.010068967938423157,9.403186798095703,0.12268118560314178,-4.111321449279785
1403638522042829500,-0.030298352241516113,-0.05040304735302925,0.0010746419429779053,9.566125869750977,0.033288728445768356,-4.276047229766846
1403638522047829500,-0.034444645047187805,-0.04682043939828873,0.01457255333662033,9.607707023620605,-0.1709861010313034,-4.323618412017822
1403638522052829500,-0.033587560057640076,-0.04473590850830078,0.02990630827844143,9.330548286437988,-0.32619380950927734,-4.24117374420166
1403638522057829500,-0.019697144627571106,-0.06357274204492569,0.04169536381959915,9.419694900512695,-0.4070517420768738,-4.23179817199707
1403638522062829500,-0.0050974637269973755,-0.08408816903829575,0.04038514196872711,9.46829891204834,-0.3578292429447174,-4.256196975708008
1403638522067829500,0.004686199128627777,-0.10880391299724579,0.03397113084793091,9.607076644897461,-0.18660777807235718,-4.241164684295654
1403638522072829500,0.007463313639163971,-0.11432486027479172,0.02762867882847786,9.761889457702637,-0.06422803550958633,-4.308071613311768
1403638522077829500,0.011612944304943085,-0.11960050463676453,0.025673024356365204,9.98996639251709,-0.08922696113586426,-4.397938251495361
1403638522082829500,0.015150405466556549,-0.10815738141536713,0.022959008812904358,10.234816551208496,-0.25233033299446106,-4.487362861633301
1403638522087829500,0.026415258646011353,-0.10397528111934662,0.024946942925453186,10.1210298538208,-0.25362852215766907,-4.331266403198242
1403638522092829500,0.03136863559484482,-0.09843537956476212,0.028246572241187096,9.990081787109375,-0.38489776849746704,-4.264402389526367
1403638522097829500,0.04391608387231827,-0.09711170941591263,0.03930990397930145,9.883804321289062,-0.4667355716228485,-4.206639766693115
1403638522102829500,0.05088052898645401,-0.09079071134328842,0.056126732379198074,9.85237979888916,-0.4745088219642639,-4.109137535095215
1403638522107829500,0.06408960372209549,-0.08722101897001266,0.08487595617771149,9.84428596496582,-0.49743902683258057,-4.118340969085693
1403638522112829500,0.06692784279584885,-0.08436291664838791,0.1093742847442627,9.92580795288086,-0.3499067723751068,-4.184391975402832
1403638522117829500,0.07248326390981674,-0.06965181976556778,0.13160571455955505,10.015684127807617,-0.19514794647693634,-4.201361656188965
1403638522122829500,0.07388398796319962,-0.05076586455106735,0.1384102702140808,10.114174842834473,-0.20344048738479614,-4.176673889160156
1403638522127829500,0.07728499919176102,-0.03609705716371536,0.1439419537782669,10.195719718933105,-0.1953212469816208,-4.332477569580078
1403638522132829500,0.08291778713464737,-0.017181772738695145,0.14324873685836792,10.113937377929688,-0.17978960275650024,-4.218063831329346
1403638522137829500,0.0898909941315651,-0.0054137371480464935,0.14326661825180054,9.958273887634277,-0.05090661346912384,-4.251678943634033
1403638522142829500,0.08991242200136185,0.007895028218626976,0.13700418174266815,10.211974143981934,0.045954395085573196,-4.3345866203308105
1403638522147829500,0.09059611707925797,0.024619003757834435,0.12851978838443756,9.99954891204834,-0.004005129914730787,-4.186492443084717
1403638522152829500,0.0982908383011818,0.03926379978656769,0.12707126140594482,10.032268524169922,0.10972461849451065,-4.244424819946289
1403638522157829500,0.10315177589654922,0.04549205303192139,0.1271052062511444,10.032354354858398,-0.02050579898059368,-4.25154972076416
1403638522162829500,0.10040890425443649,0.06425176560878754,0.12020593136548996,10.155278205871582,0.1673339307308197,-4.309495449066162
1403638522167829500,0.09970923513174057,0.0802256390452385,0.12656882405281067,10.065348625183105,0.2582741677761078,-4.269315242767334
1403638522172829500,0.092636339366436,0.09773488342761993,0.1238197386264801,10.245658874511719,0.25066789984703064,-4.326659679412842
1403638522177829500,0.08285754173994064,0.10962438583374023,0.12374857068061829,10.015907287597656,0.16141805052757263,-4.235983371734619
1403638522182829500,0.08294423669576645,0.11940738558769226,0.1209646463394165,10.171185493469238,0.10473808646202087,-4.261111736297607
1403638522187829500,0.08080781251192093,0.1311514973640442,0.12429884821176529,10.073522567749023,0.05629371106624603,-4.203378200531006
1403638522192829500,0.07867949455976486,0.13526606559753418,0.11806859821081161,10.245227813720703,0.1460884064435959,-4.326709747314453
1403638522197829500,0.07802344113588333,0.1505921632051468,0.11678807437419891,10.28628921508789,0.11320513486862183,-4.270033359527588
1403638522202829500,0.08007345348596573,0.15548169612884521,0.11462931334972382,10.286417961120605,0.006738837342709303,-4.25300931930542
1403638522207829500,0.08288077265024185,0.1639111191034317,0.09994842112064362,10.269635200500488,-0.15574674308300018,-4.235997200012207
1403638522212829500,0.09200800210237503,0.17028330266475677,0.09716717898845673,10.261378288269043,-0.26308688521385193,-4.071291923522949
1403638522217829500,0.10035216063261032,0.18075551092624664,0.09710494428873062,10.08926010131836,-0.27046170830726624,-4.021817207336426
1403638522222829500,0.11214997619390488,0.18081261217594147,0.10203412920236588,10.302275657653809,-0.22942012548446655,-4.038834571838379
1403638522227829500,0.11707469075918198,0.194075345993042,0.10284576565027237,10.359904289245605,-0.18885639309883118,-3.9573049545288086
1403638522232829500,0.11917991191148758,0.19758117198944092,0.10762104392051697,10.400834083557129,-0.11456800997257233,-4.007214069366455
1403638522237829500,0.1177549734711647,0.20874343812465668,0.1027066707611084,10.482624053955078,-0.19633667171001434,-4.031716346740723
1403638522242829500,0.12053116410970688,0.21715670824050903,0.1014123409986496,10.425211906433105,-0.23764781653881073,-3.973702907562256
1403638522247829500,0.13175180554389954,0.2241649627685547,0.1020624041557312,10.392553329467773,-0.1800059825181961,-3.9905600547790527
1403638522252829500,0.13600212335586548,0.23184983432292938,0.11253996193408966,10.344498634338379,-0.06588622182607651,-4.007072925567627
1403638522257829500,0.13118696212768555,0.23536978662014008,0.11542296409606934,10.385738372802734,-0.017318299040198326,-4.081553936004639
1403638522262829500,0.12975740432739258,0.24092809855937958,0.12297964096069336,10.238182067871094,-0.041911881417036057,-4.048893928527832
1403638522267829500,0.13387787342071533,0.2436978667974472,0.1264144480228424,10.271251678466797,-0.04201578348875046,-4.032297134399414
1403638522272829500,0.13324430584907532,0.24578244984149933,0.13066598773002625,10.230445861816406,-0.03340986371040344,-4.056552886962891
1403638522277829500,0.1347520649433136,0.24504201114177704,0.13000141084194183,10.296063423156738,0.03947381675243378,-4.048797607421875
1403638522282829500,0.14170587062835693,0.2435462921857834,0.135604590177536,10.206262588500977,0.1707189381122589,-4.032466411590576
1403638522287829500,0.136724054813385,0.24355261027812958,0.12656337022781372,10.369990348815918,0.21094167232513428,-4.082169055938721
1403638522292829500,0.13397663831710815,0.2435123771429062,0.12444771081209183,10.337031364440918,0.21911416947841644,-4.098623275756836
1403638522297829500,0.13055282831192017,0.24284081161022186,0.11953677237033844,10.369488716125488,0.2846682369709015,-4.115254878997803
1403638522302829500,0.12763738632202148,0.23936782777309418,0.11247192323207855,10.270779609680176,0.11295388638973236,-4.139167785644531
1403638522307829500,0.12908193469047546,0.23936741054058075,0.10558290034532547,10.270633697509766,0.07998131215572357,-4.171674728393555
1403638522312829500,0.12976762652397156,0.240038201212883,0.1097845733165741,9.98398208618164,0.03985685482621193,-4.12999153137207
1403638522317829500,0.1310858428478241,0.22606293857097626,0.10694862902164459,10.033360481262207,-0.050495754927396774,-4.146115779876709
1403638522322829500,0.1317932903766632,0.21415595710277557,0.10559481382369995,9.935009956359863,-0.05788048729300499,-4.145801067352295
1403638522327829500,0.13111361861228943,0.19941627979278564,0.10201085358858109,9.926481246948242,-0.0007347568753175437,-4.096715450286865
1403638522332829500,0.12755337357521057,0.1895921379327774,0.10123799741268158,9.819966316223145,-0.07410406321287155,-4.096062183380127
1403638522337829500,0.11986573785543442,0.1770980954170227,0.09093126654624939,9.909682273864746,-0.13923650979995728,-4.079298496246338
1403638522342829500,0.11915915459394455,0.17224450409412384,0.08886651694774628,9.786670684814453,-0.18802282214164734,-3.9721717834472656
1403638522347829500,0.1197870597243309,0.15826977789402008,0.09230181574821472,9.835624694824219,-0.23717917501926422,-3.8900411128997803
1403638522352829500,0.12114769965410233,0.1435786783695221,0.10139136761426926,9.77847957611084,-0.3428313732147217,-3.856522560119629
