#timestamp [ns],w_RS_S_x [rad s^-1],w_RS_S_y [rad s^-1],w_RS_S_z [rad s^-1],a_RS_S_x [m s^-2],a_RS_S_y [m s^-2],a_RS_S_z [m s^-2]
1403638518097829500,0.0006981317007977319,0.01884955592153876,0.07819075048934597,9.087495666666666,-0.057205458333333334,-3.8245934999999998
1403638518102829500,-0.0041887902047863905,0.02234021442552742,0.07609635538695278,9.013945791666666,-0.057205458333333334,-3.800076875
1403638518107829500,-0.0020943951023931952,0.020943951023931952,0.07819075048934597,9.013945791666666,-0.032688833333333334,-3.800076875
1403638518112829500,-0.0041887902047863905,0.020943951023931952,0.07888888219014369,8.932223708333334,-0.024516625,-3.800076875
1403638518117829500,-0.0013962634015954637,0.0153588974175501,0.07888888219014369,8.989429166666666,-0.08989429166666667,-3.759215833333333
1403638518122829500,0.0006981317007977319,0.021642082724729686,0.08098327729253688,9.022118,-0.057205458333333334,-3.7837324583333327
1403638518127829500,-0.0020943951023931952,0.019547687622336492,0.08377580409572781,9.046634625,-0.016344416666666667,-3.8164212916666664
1403638518132829500,0.0,0.024434609527920613,0.08447393579652555,9.022118,-0.06537766666666667,-3.800076875
1403638518137829500,0.0,0.01815142422074103,0.08168140899333462,9.046634625,-0.04086104166666667,-3.7919046666666665
1403638518142829500,0.0006981317007977319,0.025132741228718346,0.07958701389094143,9.054806833333332,0.016344416666666667,-3.8245934999999998
1403638518147829500,0.0006981317007977319,0.02024581932313422,0.08237954069413235,9.005773583333333,0.0,-3.77556025
1403638518152829500,-0.0020943951023931952,0.021642082724729686,0.07819075048934597,9.038462416666666,-0.04086104166666667,-3.7837324583333327
1403638518157829500,-0.0027925268031909274,0.017453292519943295,0.07888888219014369,8.989429166666666,-0.024516625,-3.800076875
1403638518162829500,-0.0041887902047863905,0.019547687622336492,0.0767944870877505,9.062979041666667,-0.016344416666666667,-3.8245934999999998
1403638518167829500,-0.0041887902047863905,0.0153588974175501,0.07400196028455958,8.989429166666666,0.008172208333333333,-3.7919046666666665
1403638518172829500,-0.0013962634015954637,0.019547687622336492,0.07120943348136866,9.022118,-0.024516625,-3.77556025
1403638518177829500,-0.003490658503988659,0.023038346126325153,0.07330382858376185,9.005773583333333,-0.04086104166666667,-3.7837324583333327
1403638518182829500,-0.004886921905584123,0.023736477827122883,0.07260569688296412,9.005773583333333,-0.016344416666666667,-3.77556025
1403638518187829500,-0.003490658503988659,0.01815142422074103,0.07260569688296412,8.940395916666665,-0.07354987499999999,-3.751043625
1403638518192829500,-0.0006981317007977319,0.016057029118347832,0.0747000919853573,9.054806833333332,0.032688833333333334,-3.8082490833333327
1403638518197829500,-0.0013962634015954637,0.017453292519943295,0.07819075048934597,8.981256958333333,-0.04903325,-3.8082490833333327
1403638518202829500,-0.0020943951023931952,0.01884955592153876,0.07539822368615504,9.1201845,-0.04086104166666667,-3.8164212916666664
1403638518207829500,0.0027925268031909274,0.02024581932313422,0.07958701389094143,8.97308475,-0.10623870833333333,-3.751043625
1403638518212829500,-0.0006981317007977319,0.024434609527920613,0.0747000919853573,9.095667875,-0.04903325,-3.7919046666666665
1403638518217829500,-0.003490658503988659,0.02583087292951608,0.07819075048934597,8.9240515,-0.057205458333333334,-3.742871416666666
1403638518222829500,0.0,0.02024581932313422,0.0767944870877505,9.005773583333333,-0.04086104166666667,-3.8082490833333327
1403638518227829500,0.0020943951023931952,0.017453292519943295,0.08168140899333462,8.964912541666667,-0.04086104166666667,-3.7919046666666665
1403638518232829500,-0.0020943951023931952,0.021642082724729686,0.07958701389094143,9.128356708333332,-0.008172208333333333,-3.857282333333333
1403638518237829500,-0.003490658503988659,0.021642082724729686,0.08168140899333462,9.038462416666666,-0.04903325,-3.8409379166666664
1403638518242829500,-0.0015033185482025146,0.025763876736164093,0.08112520724534988,9.073599815368652,-0.010140284895896912,-3.8276264667510986
1403638518247829500,-0.0036419257521629333,0.022282280027866364,0.08257745206356049,8.869830131530762,-0.009740263223648071,-3.7863290309906006
1403638518252829500,-0.002934955060482025,0.016621481627225876,0.0769350677728653,9.008712768554688,0.014653977937996387,-3.8515679836273193
1403638518257829500,-0.0029379092156887054,0.018688563257455826,0.07486279308795929,8.984400749206543,-0.05890144407749176,-3.762525796890259
1403638518262829500,-0.005006700754165649,0.013165734708309174,0.0734734758734703,9.073896408081055,0.014172722585499287,-3.794382095336914
1403638518267829500,-0.0015247464179992676,0.01675485074520111,0.07979725301265717,8.992478370666504,-0.0014796784380450845,-3.7705416679382324
1403638518272829500,-9.234994649887085e-05,0.020948927849531174,0.0741603821516037,9.090115547180176,0.030875299125909805,-3.835333824157715
1403638518277829500,-0.004327021539211273,0.02229475975036621,0.07766738533973694,8.983799934387207,-0.001822550897486508,-3.7952146530151367
1403638518282829500,-0.004339098930358887,0.0208328515291214,0.07136490195989609,9.049274444580078,-0.026323916390538216,-3.7944929599761963
1403638518287829500,-0.00013773515820503235,0.02083386480808258,0.07342945784330368,8.902836799621582,-0.06691945344209671,-3.745319128036499
1403638518292829500,-0.0022288039326667786,0.013172127306461334,0.07278895378112793,9.017156600952148,-0.04252474755048752,-3.7858643531799316
1403638518297829500,-0.00224100798368454,0.019483037292957306,0.07284475862979889,9.065946578979492,-0.05854194611310959,-3.802978515625
1403638518302829500,-0.0036429427564144135,0.02231452241539955,0.07704033702611923,9.073570251464844,-0.05062732845544815,-3.819326877593994
1403638518307829500,-0.00010021030902862549,0.022323060780763626,0.07696567475795746,8.99223804473877,-0.07496639341115952,-3.7949864864349365
1403638518312829500,0.001279722899198532,0.020136088132858276,0.07477258890867233,9.057588577270508,-0.058611784130334854,-3.794646739959717
1403638518317829500,0.0005348771810531616,0.02149113267660141,0.07977042347192764,8.934938430786133,-0.08291156589984894,-3.7862937450408936
1403638518322829500,0.0005853287875652313,0.02291269600391388,0.07909376919269562,9.090167999267578,-0.034259047359228134,-3.82742977142334
1403638518327829500,-0.002276357263326645,0.02437659725546837,0.07838399708271027,8.959839820861816,-0.09113217145204544,-3.7622389793395996
1403638518332829500,0.0005654022097587585,0.015288487076759338,0.08115982264280319,9.05749797821045,-0.0426216758787632,-3.8271260261535645
1403638518337829500,-0.0022467225790023804,0.019469067454338074,0.08397621661424637,9.049314498901367,-0.07498215138912201,-3.8443026542663574
1403638518342829500,-0.0022313520312309265,0.01943425089120865,0.08042401075363159,9.024538040161133,-0.026185911148786545,-3.794981002807617
1403638518347829500,-0.0008317604660987854,0.02222166210412979,0.08039607107639313,9.041178703308105,-0.02618040330708027,-3.770197629928589
1403638518352829500,-0.00012687966227531433,0.0201883465051651,0.0776594802737236,9.041206359863281,-0.010005256161093712,-3.7617130279541016
1403638518357829500,-0.003653045743703842,0.02159685641527176,0.079079270362854,9.008469581604004,0.00639960914850235,-3.7941994667053223
1403638518362829500,-0.00293707475066185,0.018040701746940613,0.07695945352315903,9.04135513305664,-0.05084564909338951,-3.80304217338562
1403638518367829500,-0.002199854701757431,0.020115092396736145,0.07346060127019882,9.033114433288574,-0.026521911844611168,-3.8110640048980713
1403638518372829500,-0.003622397780418396,0.016689404845237732,0.07630326598882675,9.04118537902832,-0.050848398357629776,-3.7948074340820312
1403638518377829500,-0.001523878425359726,0.020234081894159317,0.08048118650913239,9.000384330749512,0.014547265134751797,-3.7944557666778564
1403638518382829500,-0.00011993944644927979,0.020183995366096497,0.08116018772125244,9.00049114227295,-0.05073738098144531,-3.7864129543304443
1403638518387829500,-0.0015227682888507843,0.021541833877563477,0.07485008984804153,9.008766174316406,-0.026475748047232628,-3.7944438457489014
1403638518392829500,-0.0029687024652957916,0.018061384558677673,0.07976650446653366,8.96783447265625,-0.017940906807780266,-3.810910940170288
1403638518397829500,-0.00434538722038269,0.018757648766040802,0.07485762238502502,9.041507720947266,-0.00955670140683651,-3.7948226928710938
1403638518402829500,-0.0015004351735115051,0.020887602120637894,0.07833514362573624,8.976006507873535,-0.05065556988120079,-3.8191146850585938
1403638518407829500,-9.45068895816803e-05,0.020878858864307404,0.0763082206249237,9.08199691772461,-0.026470189914107323,-3.8278725147247314
1403638518412829500,0.0012593679130077362,0.018781863152980804,0.07912223786115646,8.967754364013672,-0.04222536087036133,-3.7784900665283203
1403638518417829500,-0.0015637874603271484,0.015957728028297424,0.07270921021699905,9.057588577270508,-0.04239526391029358,-3.786442756652832
1403638518422829500,-0.0008701533079147339,0.018044419586658478,0.0775953084230423,8.967921257019043,-0.09152533113956451,-3.7456023693084717
1403638518427829500,-0.0022448524832725525,0.017349734902381897,0.0720929279923439,9.090224266052246,-0.009968328289687634,-3.7616055011749268
1403638518432829500,0.0012808814644813538,0.015991806983947754,0.0763232484459877,9.00041389465332,-0.05836085230112076,-3.7700912952423096
1403638518437829500,0.0005741454660892487,0.018812544643878937,0.07630514353513718,9.033012390136719,-0.05074433609843254,-3.819136142730713
1403638518442829500,-0.0029765628278255463,0.020196810364723206,0.07838205993175507,8.976069450378418,-0.05889543145895004,-3.794933795928955
1403638518447829500,-0.0008302070200443268,0.025036931037902832,0.07623006403446198,9.090158462524414,0.022996827960014343,-3.78633975982666
1403638518452829500,0.000559195876121521,0.020861633121967316,0.080451101064682,8.959488868713379,-0.07474283874034882,-3.786214828491211
1403638518457829500,-0.00011210888624191284,0.018047507852315903,0.07695728540420532,9.08211612701416,-0.05940553545951843,-3.811037302017212
1403638518462829500,-0.0015723668038845062,0.01945602148771286,0.07837648689746857,8.9597749710083,-0.08337875455617905,-3.7619898319244385
1403638518467829500,-0.0015312395989894867,0.015243418514728546,0.07626321911811829,9.065618515014648,-0.02600472792983055,-3.8107221126556396
1403638518472829500,-0.0022350773215293884,0.021579507738351822,0.07908503711223602,9.0167875289917,-0.06683029979467392,-3.7868335247039795
1403638518477829500,0.005533143877983093,0.01809576153755188,0.07974041998386383,9.106163024902344,0.022335683926939964,-3.843731641769409
1403638518482829500,-0.0008607357740402222,0.025774259120225906,0.07904437929391861,8.98403263092041,-0.04222959280014038,-3.7952589988708496
1403638518487829500,0.0005568787455558777,0.020823698490858078,0.0776481106877327,9.016819953918457,-0.010039107874035835,-3.753580331802368
1403638518492829500,0.0005135051906108856,0.019420206546783447,0.07908039540052414,8.90275764465332,-0.05067604035139084,-3.7613606452941895
1403638518497829500,-0.0008347034454345703,0.018068131059408188,0.07272462546825409,9.057835578918457,-0.02632051147520542,-3.8108086585998535
1403638518502829500,-0.003666374832391739,0.0202043280005455,0.07697330415248871,8.99238109588623,-0.04248448461294174,-3.8030529022216797
1403638518507829500,-0.00010554119944572449,0.017378993332386017,0.07772507518529892,9.122720718383789,-0.03461756184697151,-3.844104766845703
1403638518512829500,-0.0015087127685546875,0.022271860390901566,0.07908690720796585,9.041108131408691,-0.06700854748487473,-3.803419828414917
1403638518517829500,-0.000841435045003891,0.020179808139801025,0.07692863047122955,9.000141143798828,-0.018198998644948006,-3.802603244781494
1403638518522829500,0.0012489929795265198,0.022941991686820984,0.0720159113407135,8.97618293762207,-0.042219530791044235,-3.7619664669036865
1403638518527829500,-0.000824514776468277,0.017333075404167175,0.07344754040241241,9.016860961914062,-0.009890256449580193,-3.7941765785217285
1403638518532829500,-0.005063321441411972,0.016668420284986496,0.07491856068372726,8.992440223693848,-0.03422494977712631,-3.762091636657715
1403638518537829500,-0.0015290379524230957,0.017391663044691086,0.07701665908098221,9.082230567932129,-0.0180444847792387,-3.7781639099121094
1403638518542829500,-0.002902146428823471,0.022986136376857758,0.08123944699764252,9.057412147521973,-0.04241335764527321,-3.8029329776763916
1403638518547829500,-0.0022134482860565186,0.020891431719064713,0.07834457606077194,9.04094409942627,-0.06712687015533447,-3.794846773147583
1403638518552829500,0.0012668929994106293,0.022964853793382645,0.07755496352910995,8.984029769897461,-0.06711328029632568,-3.802757740020752
1403638518557829500,0.0019650645554065704,0.014523625373840332,0.07693019509315491,8.976057052612305,-0.0751676931977272,-3.7619757652282715
1403638518562829500,-0.0022515878081321716,0.01871158927679062,0.07419158518314362,9.041407585144043,-0.017884520813822746,-3.810513496398926
1403638518567829500,-0.0022602155804634094,0.020880796015262604,0.08194710314273834,9.033038139343262,-0.009654424153268337,-3.803082227706909
1403638518572829500,0.0013218745589256287,0.019527442753314972,0.07558058202266693,9.090164184570312,0.014701620675623417,-3.827432632446289
1403638518577829500,-0.0008214935660362244,0.01950743794441223,0.08321340382099152,8.992085456848145,-0.018036233261227608,-3.8031628131866455
1403638518582829500,-0.0015738420188426971,0.022952735424041748,0.07693124562501907,8.951452255249023,0.006455178838223219,-3.810729503631592
1403638518587829500,-0.0022878386080265045,0.019430391490459442,0.07900965213775635,8.927321434020996,-0.050580255687236786,-3.770153284072876
1403638518592829500,-0.0029325000941753387,0.02153775840997696,0.07628988474607468,9.00076961517334,-0.026441015303134918,-3.769805431365967
1403638518597829500,0.004090540111064911,0.018091369420289993,0.07982024550437927,8.96803092956543,-0.06713569909334183,-3.778303623199463
1403638518602829500,-0.0008270889520645142,0.024396665394306183,0.07768816500902176,9.09855842590332,-0.0018325631972402334,-3.819321393966675
1403638518607829500,-0.00012252852320671082,0.022967025637626648,0.07834621518850327,9.000287055969238,-0.034147679805755615,-3.81956148147583
1403638518612829500,-0.0022539272904396057,0.020116746425628662,0.07199770957231522,9.08179759979248,-0.001754116965457797,-3.80318546295166
1403638518617829500,-0.0022560767829418182,0.020870357751846313,0.07555290311574936,8.935068130493164,-0.026012353599071503,-3.769939422607422
1403638518622829500,-0.0029339492321014404,0.01664780080318451,0.07419253140687943,9.065717697143555,-0.0342634879052639,-3.8026347160339355
1403638518627829500,-0.004354320466518402,0.01875022053718567,0.07912922650575638,8.976049423217773,-0.05052238702774048,-3.753845691680908
1403638518632829500,-0.002196904271841049,0.01878773421049118,0.07701700180768967,9.073843002319336,-0.05068612098693848,-3.8106892108917236
1403638518637829500,-0.00012420117855072021,0.022329658269882202,0.07483815401792526,8.959798812866211,-0.08316472917795181,-3.803156614303589
1403638518642829500,-0.002226494252681732,0.02367548644542694,0.07620473951101303,9.073840141296387,-0.050758328288793564,-3.819282293319702
1403638518647829500,0.0033997371792793274,0.024321243166923523,0.08258690685033798,8.959416389465332,-0.07495725899934769,-3.819436550140381
1403638518652829500,-0.00011803582310676575,0.018718481063842773,0.07768718898296356,9.073751449584961,-0.001641134382225573,-3.803128957748413
1403638518657829500,0.000553913414478302,0.01734483242034912,0.0797797366976738,8.984094619750977,-0.05854480341076851,-3.794610023498535
1403638518662829500,0.0005529075860977173,0.01874951645731926,0.08045352250337601,9.106350898742676,-0.03451794385910034,-3.811232089996338
1403638518667829500,-0.00015166029334068298,0.018797941505908966,0.08111539483070374,9.000320434570312,-0.058797333389520645,-3.770231008529663
1403638518672829500,-0.0015397295355796814,0.019480839371681213,0.08040164411067963,9.098116874694824,-0.017997905611991882,-3.810847759246826
1403638518677829500,-0.002269912511110306,0.021575801074504852,0.07627648115158081,9.000349044799805,-0.017865754663944244,-3.8030412197113037
1403638518682829500,-0.0001142062246799469,0.01872459053993225,0.08190751075744629,9.057331085205078,-0.010090300813317299,-3.794684648513794
1403638518687829500,-0.0015262104570865631,0.02432146668434143,0.07905444502830505,9.024927139282227,-0.0017975339433178306,-3.7864294052124023
1403638518692829500,-0.002241261303424835,0.01876821368932724,0.07618062943220139,9.057515144348145,-0.009933901019394398,-3.7618277072906494
1403638518697829500,-0.002238702028989792,0.018801748752593994,0.07559256255626678,9.000483512878418,-0.0589028038084507,-3.7941930294036865
1403638518702829500,-0.003604307770729065,0.019478291273117065,0.07769949734210968,9.065711975097656,-0.010206678882241249,-3.8274734020233154
1403638518707829500,-0.0036311447620391846,0.020167648792266846,0.07625562697649002,8.992274284362793,-0.0586344413459301,-3.8029427528381348
1403638518712829500,-0.0029196850955486298,0.016665160655975342,0.0755516067147255,9.04939079284668,-0.058978136628866196,-3.8192601203918457
1403638518717829500,-0.0029095523059368134,0.022267285734415054,0.07280229032039642,9.025093078613281,-0.050737932324409485,-3.786681890487671
1403638518722829500,-0.002222128212451935,0.018785588443279266,0.07417638599872589,9.03309154510498,-0.025928983464837074,-3.786234140396118
1403638518727829500,-0.0036408789455890656,0.01665572077035904,0.07694794982671738,9.016820907592773,0.006789321079850197,-3.7946698665618896
1403638518732829500,-0.0008182600140571594,0.018046826124191284,0.07840391248464584,8.99236011505127,-0.08326461166143417,-3.7865219116210938
1403638518737829500,-0.0015114881098270416,0.022298529744148254,0.07489760220050812,9.06583309173584,-0.026397574692964554,-3.7865145206451416
1403638518742829500,-0.002937857061624527,0.018092989921569824,0.07905073463916779,9.073747634887695,-0.05036620423197746,-3.770228862762451
1403638518747829500,-0.0008296072483062744,0.025739315897226334,0.08115099370479584,9.01658821105957,-0.06681118160486221,-3.7780873775482178
1403638518752829500,-0.0001275874674320221,0.02016402781009674,0.0825577899813652,9.008654594421387,-0.07548999786376953,-3.7946364879608154
1403638518757829500,-0.0015316642820835114,0.020129002630710602,0.08046624064445496,9.049327850341797,-0.026212967932224274,-3.819173574447632
1403638518762829500,-0.002276558429002762,0.01731928437948227,0.08118078112602234,8.975791931152344,-0.07476025819778442,-3.7865960597991943
1403638518767829500,-0.0029166042804718018,0.023664649575948715,0.07830461114645004,9.106589317321777,-0.001925393589772284,-3.819078207015991
1403638518772829500,-0.0029322952032089233,0.022338896989822388,0.07971066236495972,8.967788696289062,-0.03414643928408623,-3.802899122238159
1403638518777829500,-0.002933960407972336,0.018039539456367493,0.07839155942201614,9.057536125183105,-0.05069809406995773,-3.8028905391693115
1403638518782829500,0.0019965283572673798,0.021525733172893524,0.07982447743415833,8.97602653503418,-0.06723693013191223,-3.7947168350219727
1403638518787829500,-0.0008119344711303711,0.020145587623119354,0.07763514667749405,9.081892967224121,-0.0017499641980975866,-3.8273463249206543
1403638518792829500,0.0005504079163074493,0.020154595375061035,0.07901500165462494,8.951498985290527,-0.017708465456962585,-3.7948687076568604
1403638518797829500,-0.002958867698907852,0.017387211322784424,0.07273095101118088,9.073982238769531,0.022490322589874268,-3.8355915546417236
1403638518802829500,-0.004345480352640152,0.02023155242204666,0.07628361880779266,8.96788501739502,-0.009889913722872734,-3.803176164627075
1403638518807829500,-0.0008032992482185364,0.020171351730823517,0.07421053946018219,9.057544708251953,-0.026321018114686012,-3.8109660148620605
1403638518812829500,-0.0015378408133983612,0.018725581467151642,0.07840648293495178,8.992358207702637,-0.07532207667827606,-3.778552293777466
1403638518817829500,-0.0029355697333812714,0.017361529171466827,0.07838864624500275,9.065649032592773,-0.04276396334171295,-3.794499397277832
1403638518822829500,-0.004389405250549316,0.01602274924516678,0.07625486701726913,8.918906211853027,-0.04229024052619934,-3.7864065170288086
1403638518827829500,-0.0008028745651245117,0.01665661856532097,0.07411133497953415,9.065939903259277,-0.04253508895635605,-3.794776439666748
1403638518832829500,-0.0008168518543243408,0.021591700613498688,0.0790766254067421,8.943350791931152,-0.058831244707107544,-3.8109397888183594
1403638518837829500,-0.0022263266146183014,0.018115952610969543,0.07629793137311935,9.057551383972168,-0.03428182005882263,-3.819483757019043
1403638518842829500,-0.001536436378955841,0.02298702299594879,0.07418521493673325,9.00066089630127,-0.06663653999567032,-3.7947936058044434
1403638518847829500,-0.00011101365089416504,0.018727242946624756,0.07767675071954727,9.073716163635254,-0.050727102905511856,-3.794743776321411
1403638518852829500,0.0005590170621871948,0.013825587928295135,0.07906895130872726,8.992091178894043,-0.05874424800276756,-3.8191537857055664
1403638518857829500,0.0026683509349823,0.01314176619052887,0.07549384981393814,9.098228454589844,-0.05060897395014763,-3.80326247215271
1403638518862829500,-0.0008711889386177063,0.01882925257086754,0.07344531267881393,8.967740058898926,-0.042394451797008514,-3.7700107097625732
1403638518867829500,-0.002967149019241333,0.018142081797122955,0.07562658190727234,9.04126262664795,-0.04250817000865936,-3.802685260772705
1403638518872829500,-0.0015475526452064514,0.02228221297264099,0.07840414345264435,9.016838073730469,-0.03436007723212242,-3.8192455768585205
1403638518877829500,-0.0022355280816555023,0.01944034919142723,0.08186490833759308,9.03292465209961,-0.08344702422618866,-3.786804437637329
1403638518882829500,-0.0036331862211227417,0.022932972759008408,0.07909022271633148,9.016775131225586,-0.05904239043593407,-3.8027539253234863
1403638518887829500,-0.00011839345097541809,0.01942317560315132,0.07834994792938232,9.041254043579102,-0.058833833783864975,-3.7947802543640137
1403638518892829500,-0.002219635993242264,0.022269852459430695,0.07758822292089462,9.057432174682617,-0.05063654109835625,-3.8109147548675537
1403638518897829500,0.0005773678421974182,0.018122203648090363,0.07833421975374222,9.008455276489258,-0.07535111159086227,-3.786750555038452
1403638518902829500,0.0005627907812595367,0.018054969608783722,0.07702580094337463,9.008657455444336,-0.0181856881827116,-3.794424057006836
1403638518907829500,0.001992553472518921,0.01872096210718155,0.07491208612918854,9.025080680847168,-0.042264919728040695,-3.7946481704711914
1403638518912829500,-0.0029534846544265747,0.025060217827558517,0.07343534380197525,9.06570816040039,-0.050791170448064804,-3.811007261276245
1403638518917829500,-0.0022718533873558044,0.02230534702539444,0.07552886009216309,8.967822074890137,-0.042748209089040756,-3.7947335243225098
1403638518922829500,-0.00292978435754776,0.024355385452508926,0.07275472581386566,9.06600570678711,-0.026140034198760986,-3.8027701377868652
1403638518927829500,-0.001515079289674759,0.018041230738162994,0.0777164176106453,9.016645431518555,-0.03428495302796364,-3.819223642349243
1403638518932829500,-0.002232953906059265,0.019421949982643127,0.07772957533597946,9.049169540405273,-0.018300490453839302,-3.8193857669830322
1403638518937829500,-0.005783949047327042,0.017381872981786728,0.07977326214313507,8.935319900512695,-0.06705860793590546,-3.7701833248138428
1403638518942829500,-7.419288158416748e-05,0.020894378423690796,0.07480160146951675,9.114850044250488,-0.06731485575437546,-3.827259063720703
1403638518947829500,0.001996085047721863,0.021618597209453583,0.0797593966126442,8.983929634094238,-0.09976764768362045,-3.8031632900238037
1403638518952829500,-0.00011673197150230408,0.02013697475194931,0.07840120047330856,9.057443618774414,-0.018110083416104317,-3.8028831481933594
1403638518957829500,-0.003682352602481842,0.021518509835004807,0.07695840299129486,8.98438549041748,-0.009544475935399532,-3.7620396614074707
1403638518962829500,-0.0015263259410858154,0.016640789806842804,0.07554169744253159,9.0411376953125,0.006476969458162785,-3.802429676055908
1403638518967829500,-0.0008256249129772186,0.018769212067127228,0.07979752868413925,9.008563041687012,-0.08345348387956619,-3.7867348194122314
1403638518972829500,-0.003644365817308426,0.020205259323120117,0.07764355093240738,9.098275184631348,-0.03466359153389931,-3.82735013961792
1403638518977829500,-0.004361402243375778,0.01882302761077881,0.07552364468574524,8.984058380126953,-0.05850475654006004,-3.8194468021392822
1403638518982829500,-0.0028905123472213745,0.01875445246696472,0.07697223871946335,9.106400489807129,0.006409593857824802,-3.835651159286499
1403638518987829500,0.0006019920110702515,0.020843632519245148,0.07770835608243942,8.992110252380371,-0.0017555133672431111,-3.794835090637207
1403638518992829500,-0.0015463083982467651,0.02155919373035431,0.0755336806178093,9.033001899719238,-0.04267292097210884,-3.802623987197876
1403638518997829500,-0.00013313814997673035,0.022976256906986237,0.07767363637685776,8.951754570007324,-0.07533704489469528,-3.7782580852508545
1403638519002829500,-0.001519031822681427,0.018764793872833252,0.08052632212638855,9.049480438232422,-0.009981133043766022,-3.8025929927825928
1403638519007829500,-0.0022527500987052917,0.020163986831903458,0.0776662603020668,9.008721351623535,-0.06661330908536911,-3.762155771255493
1403638519012829500,-0.0008176043629646301,0.01803302764892578,0.07335101068019867,9.147160530090332,-0.0021057422272861004,-3.8354575634002686
1403638519017829500,0.0019887201488018036,0.021563392132520676,0.07626562565565109,8.959457397460938,-0.009747765958309174,-3.8196070194244385
1403638519022829500,0.0005833841860294342,0.024391870945692062,0.07702329754829407,9.073848724365234,-0.03415226563811302,-3.827441692352295
1403638519027829500,-0.00016378611326217651,0.027899213135242462,0.07625861465930939,8.984112739562988,-0.00993315689265728,-3.8273916244506836
1403638519032829500,-0.0015688203275203705,0.023625493049621582,0.08189006894826889,9.008482933044434,-0.04248131439089775,-3.786423444747925
1403638519037829500,-0.0022276826202869415,0.021489381790161133,0.07908780872821808,9.016987800598145,0.014705654233694077,-3.8106634616851807
1403638519042829500,-0.0008211061358451843,0.015205975621938705,0.08319678157567978,9.041210174560547,-0.04250306263566017,-3.7949631214141846
1403638519047829500,-0.0036527886986732483,0.01948077604174614,0.07620750367641449,9.000412940979004,-0.07528362423181534,-3.819114923477173
1403638519052829500,-0.0015276074409484863,0.016719602048397064,0.07837232202291489,9.01678466796875,-0.10805489867925644,-3.819699764251709
1403638519057829500,-0.0008145496249198914,0.02300179749727249,0.07632366567850113,9.073819160461426,-0.05059066414833069,-3.819448471069336
1403638519062829500,0.00058026984333992,0.021578215062618256,0.08117645978927612,8.992030143737793,-0.0339537039399147,-3.794830322265625
1403638519067829500,0.0005810000002384186,0.024306830018758774,0.07344402372837067,9.0576810836792,-0.009804699569940567,-3.786475658416748
1403638519072829500,-0.0015531964600086212,0.019418038427829742,0.07834796607494354,8.992376327514648,-0.01794896088540554,-3.753622531890869
1403638519077829500,-0.003648608922958374,0.018050968647003174,0.07837602496147156,9.033015251159668,-0.017850549891591072,-3.7860019207000732
1403638519082829500,-0.0008344314992427826,0.01880824565887451,0.07905097305774689,8.992344856262207,-0.07501670718193054,-3.794670343399048
1403638519087829500,-0.0036184415221214294,0.023711219429969788,0.07695034146308899,9.082013130187988,0.006229920778423548,-3.8354742527008057
1403638519092829500,-0.00012137368321418762,0.02299836277961731,0.07841109484434128,8.959590911865234,-0.03411503881216049,-3.794890880584717
1403638519097829500,0.0005786530673503876,0.02082538977265358,0.0776708796620369,9.065778732299805,-0.04276496171951294,-3.7945778369903564
1403638519102829500,0.0005577318370342255,0.021522440016269684,0.07621779292821884,8.943440437316895,-0.018292656168341637,-3.7780563831329346
1403638519107829500,0.0005601756274700165,0.0173163041472435,0.07272841036319733,9.057642936706543,-0.009676493704319,-3.8107714653015137
1403638519112829500,-0.003677401691675186,0.02017415687441826,0.07702779769897461,8.959808349609375,-0.0015251307049766183,-3.778383493423462
1403638519117829500,-0.0043226853013038635,0.016722455620765686,0.07628244906663895,9.07387924194336,0.006248749792575836,-3.8190696239471436
1403638519122829500,-0.003628164529800415,0.018819592893123627,0.07833313941955566,9.016719818115234,-0.02611430548131466,-3.81138277053833
1403638519127829500,-0.0029039308428764343,0.01735125109553337,0.07696505635976791,9.089937210083008,-0.0017718689050525427,-3.811216115951538
1403638519132829500,-0.00295296311378479,0.02084600180387497,0.07839825004339218,8.926981925964355,-0.0913575142621994,-3.7702322006225586
1403638519137829500,-0.0008100792765617371,0.022278830409049988,0.07482831180095673,9.057710647583008,-0.06727716326713562,-3.819007635116577
1403638519142829500,-0.0008238069713115692,0.020897433161735535,0.07695282250642776,8.975995063781738,-0.07505972683429718,-3.811232566833496
1403638519147829500,0.002001233398914337,0.018754538148641586,0.07420264184474945,9.057509422302246,-0.03410198912024498,-3.8030471801757812
1403638519152829500,-0.004357006400823593,0.024358227849006653,0.07559021562337875,9.041365623474121,-0.01772570237517357,-3.803002119064331
1403638519157829500,-0.0036415979266166687,0.022279806435108185,0.07977871596813202,8.97584342956543,-0.0178527869284153,-3.794611692428589
1403638519162829500,-0.005038425326347351,0.023667778819799423,0.0790625512599945,9.0086669921875,-0.02594914846122265,-3.810969591140747
1403638519167829500,-0.0022011585533618927,0.02085217460989952,0.07762656360864639,9.05750846862793,-0.026082782074809074,-3.8030567169189453
1403638519172829500,-0.006461400538682938,0.020841844379901886,0.07695446163415909,9.01658821105957,-0.05048820748925209,-3.7946228981018066
1403638519177829500,-0.0007886476814746857,0.01520729809999466,0.07624577730894089,9.106492042541504,-0.018194906413555145,-3.819383382797241
1403638519182829500,-0.0015075840055942535,0.02014930546283722,0.07698024809360504,9.01662826538086,-0.0261228084564209,-3.794804811477661
1403638519187829500,0.0013034194707870483,0.019520316272974014,0.07768741250038147,9.049166679382324,-0.0017850939184427261,-3.794585943222046
1403638519192829500,-0.0036563053727149963,0.026505012065172195,0.07910020649433136,9.024887084960938,-0.009870463982224464,-3.7945518493652344
1403638519197829500,-0.0029309093952178955,0.020152650773525238,0.08045589923858643,9.00029468536377,-0.018084794282913208,-3.794475555419922
1403638519202829500,-0.001498781144618988,0.022910885512828827,0.07688182592391968,9.057687759399414,0.014591257087886333,-3.7945966720581055
1403638519207829500,-0.0015365630388259888,0.016639534384012222,0.07833506166934967,9.041163444519043,-0.06692523509263992,-3.8191940784454346
1403638519212829500,-0.0015266574919223785,0.020835086703300476,0.0783991664648056,9.098163604736328,-0.04280282184481621,-3.819561719894409
1403638519217829500,-0.0022573471069335938,0.02022334188222885,0.07839619368314743,8.975854873657227,-0.06694065034389496,-3.8110010623931885
1403638519222829500,-0.0022241324186325073,0.02372061088681221,0.07555480301380157,9.01681900024414,-0.009599005803465843,-3.819196939468384
1403638519227829500,-0.00013273581862449646,0.024365082383155823,0.07977673411369324,8.984282493591309,-0.06678184121847153,-3.7865049839019775
1403638519232829500,-0.0008123219013214111,0.020096994936466217,0.07133162021636963,9.082067489624023,-0.02632586844265461,-3.8191189765930176
1403638519237829500,0.0019868463277816772,0.0201086588203907,0.07551908493041992,8.976055145263672,-0.058549005538225174,-3.803102493286133
1403638519242829500,-0.0015395134687423706,0.019459567964076996,0.07911688089370728,9.06576919555664,0.006647853180766106,-3.8437576293945312
1403638519247829500,-0.001567259430885315,0.02091316506266594,0.08053776621818542,8.959637641906738,-0.05036954581737518,-3.7950968742370605
1403638519252829500,-0.0015473216772079468,0.02301037311553955,0.07272347062826157,9.033123016357422,-0.03454724699258804,-3.794480323791504
1403638519257829500,-0.001547977328300476,0.018079742789268494,0.07552750408649445,8.951688766479492,-0.09144521504640579,-3.7783114910125732
1403638519262829500,-0.003626979887485504,0.023610644042491913,0.07558147609233856,9.11481761932373,-0.026233335956931114,-3.794595718383789
1403638519267829500,-0.003662142902612686,0.020853180438280106,0.07839544117450714,8.935148239135742,-0.05033964291214943,-3.786405324935913
1403638519272829500,-0.0036165937781333923,0.020162433385849,0.07910002768039703,9.016814231872559,-0.0018460163846611977,-3.835476875305176
1403638519277829500,-0.002224557101726532,0.023002032190561295,0.08194644749164581,8.935406684875488,-0.05060415342450142,-3.7785916328430176
1403638519282829500,0.0020325295627117157,0.02016551047563553,0.0789928063750267,9.114461898803711,-0.0018957034917548299,-3.8271639347076416
1403638519287829500,-0.00013671442866325378,0.01874643564224243,0.08104273676872253,8.967637062072754,-0.042274169623851776,-3.7786715030670166
1403638519292829500,-0.0015430301427841187,0.023629795759916306,0.0776604562997818,9.041364669799805,-0.04270317777991295,-3.7861554622650146
1403638519297829500,-0.0036903582513332367,0.022296078503131866,0.07986368238925934,8.927224159240723,-0.0997694656252861,-3.7864062786102295
1403638519302829500,-0.0008136928081512451,0.018078111112117767,0.07417509704828262,9.016752243041992,-0.02637447416782379,-3.8190524578094482
1403638519307829500,-0.00011413916945457458,0.023639284074306488,0.07762180268764496,8.992347717285156,-0.009435842745006084,-3.803032159805298
1403638519312829500,-0.00012679025530815125,0.019466519355773926,0.07836943864822388,9.057478904724121,-0.009841153398156166,-3.835735559463501
1403638519317829500,-0.0022566094994544983,0.025767944753170013,0.07836392521858215,9.016764640808105,-0.042722515761852264,-3.8115031719207764
1403638519322829500,-0.0022442862391471863,0.018751509487628937,0.07975342869758606,9.049214363098145,-0.0018234818708151579,-3.7946877479553223
1403638519327829500,-0.0008395090699195862,0.020860888063907623,0.07908621430397034,8.975863456726074,-0.04210512340068817,-3.753695249557495
1403638519332829500,0.0019916854798793793,0.011746667325496674,0.07482333481311798,9.041197776794434,-0.018247906118631363,-3.7779641151428223
1403638519337829500,-0.002950284630060196,0.015218403190374374,0.07132884114980698,9.057601928710938,-0.058943718671798706,-3.78658127784729
1403638519342829500,-0.0029563307762145996,0.019520778208971024,0.07491191476583481,9.041133880615234,-0.07529221475124359,-3.78659987449646
1403638519347829500,-0.0029373057186603546,0.02165156975388527,0.07494223862886429,9.057580947875977,-0.01801450178027153,-3.7947371006011963
1403638519352829500,-0.0008032619953155518,0.016673199832439423,0.08048028498888016,9.049174308776855,-0.0014185459585860372,-3.7946414947509766
1403638519357829500,-0.003635123372077942,0.022929687052965164,0.07624772191047668,9.0165433883667,-0.009700150229036808,-3.802683115005493
1403638519362829500,-0.0008239671587944031,0.020850535482168198,0.07831788063049316,8.976029396057129,-0.02641855739057064,-3.770054340362549
1403638519367829500,-0.0015197806060314178,0.020157989114522934,0.0755235105752945,9.025178909301758,-0.026056015864014626,-3.786032199859619
1403638519372829500,-0.003664981573820114,0.01670128107070923,0.08118168264627457,8.959749221801758,-0.04227601736783981,-3.769965648651123
1403638519377829500,-0.002924840897321701,0.01949991285800934,0.07632327824831009,9.090322494506836,0.006416302174329758,-3.8108444213867188
1403638519382829500,-0.0015174634754657745,0.021586470305919647,0.07628332823514938,8.927107810974121,-0.00972092803567648,-3.7865869998931885
1403638519387829500,0.0020240508019924164,0.021508701145648956,0.07412209361791611,9.057741165161133,-0.018104206770658493,-3.7865028381347656
1403638519392829500,0.0005389489233493805,0.023667924106121063,0.07903621345758438,8.984230041503906,-0.05895325168967247,-3.7782788276672363
1403638519397829500,-0.00367722287774086,0.021577194333076477,0.07837217301130295,9.041120529174805,-0.018011968582868576,-3.786351442337036
1403638519402829500,-0.001542661339044571,0.020121879875659943,0.07909666001796722,8.976104736328125,-0.01771707646548748,-3.794588565826416
1403638519407829500,0.0006091631948947906,0.021530382335186005,0.07485182583332062,9.057604789733887,0.047348178923130035,-3.8274168968200684
1403638519412829500,-0.002256687730550766,0.018811538815498352,0.07552918791770935,8.967811584472656,-0.05045841634273529,-3.7785866260528564
1403638519417829500,-0.0043540336191654205,0.019485827535390854,0.0762358084321022,9.090153694152832,-0.01829945482313633,-3.8027524948120117
1403638519422829500,-0.003637276589870453,0.02296622097492218,0.07842471450567245,8.992194175720215,-0.05041484907269478,-3.8029332160949707
1403638519427829500,-7.390975952148438e-05,0.02223975956439972,0.07560710608959198,9.106362342834473,-0.017833271995186806,-3.819352149963379
1403638519432829500,-0.002956036478281021,0.02225719764828682,0.0783703550696373,8.959565162658691,-0.050578344613313675,-3.7703588008880615
1403638519437829500,-0.00011343508958816528,0.018046289682388306,0.07831194251775742,9.000383377075195,0.022668225690722466,-3.802508592605591
1403638519442829500,-0.005759119987487793,0.018780209124088287,0.07482385635375977,8.951807022094727,-0.01744878478348255,-3.778339385986328
1403638519447829500,-0.0022016726434230804,0.017363011837005615,0.07626830041408539,9.098342895507812,-0.02619161084294319,-3.794668436050415
1403638519452829500,-0.0022466368973255157,0.02019244059920311,0.07915860414505005,8.975862503051758,-0.09153798967599869,-3.811208724975586
1403638519457829500,-0.001490119844675064,0.02160610631108284,0.07767169177532196,9.073901176452637,-0.05893804132938385,-3.843998670578003
1403638519462829500,0.0005840733647346497,0.02017795667052269,0.07621647417545319,8.984130859375,-0.07480228692293167,-3.8113980293273926
1403638519467829500,0.0005577988922595978,0.020117610692977905,0.0762506052851677,9.03287410736084,-0.06697917729616165,-3.811098098754883
1403638519472829500,-0.00014041736721992493,0.022936102002859116,0.07908701151609421,9.024888038635254,-0.0424484945833683,-3.8111417293548584
1403638519477829500,0.0005509369075298309,0.01808122545480728,0.07835838943719864,9.01669692993164,-0.05046308413147926,-3.819281816482544
1403638519482829500,-0.0008271001279354095,0.022974245250225067,0.07835350930690765,9.057577133178711,-0.01780780777335167,-3.8113555908203125
1403638519487829500,-0.0015453658998012543,0.018775317817926407,0.0826173946261406,9.024740219116211,-0.05059315636754036,-3.794799327850342
1403638519492829500,-0.0057837627828121185,0.02016407996416092,0.07765087485313416,8.992165565490723,-0.05884731933474541,-3.8191356658935547
1403638519497829500,-0.0008162558078765869,0.018729574978351593,0.08178403228521347,9.033101081848145,-0.009983907453715801,-3.778639793395996
1403638519502829500,-0.005040545016527176,0.021558977663517,0.07909630984067917,9.02482795715332,-0.05042693018913269,-3.7943665981292725
1403638519507829500,0.0013136006891727448,0.018079109489917755,0.07977785915136337,9.041111946105957,-0.05098716914653778,-3.8030824661254883
1403638519512829500,-0.0015361085534095764,0.022957339882850647,0.07765449583530426,9.025025367736816,-0.03465059772133827,-3.778240203857422
1403638519517829500,-0.00010684505105018616,0.01947309821844101,0.07552620768547058,9.024885177612305,-0.04239966347813606,-3.8189475536346436
1403638519522829500,-0.0015167929232120514,0.022946394979953766,0.07414230704307556,9.139020919799805,-0.009960816241800785,-3.819565534591675
1403638519527829500,-0.002239011228084564,0.020858488976955414,0.07910016179084778,9.01634693145752,-0.05077516287565231,-3.8027760982513428
1403638519532829500,-0.004331380128860474,0.021559536457061768,0.07487994432449341,9.049384117126465,-0.01813337579369545,-3.7946999073028564
1403638519537829500,0.004085499793291092,0.01948346197605133,0.07346303015947342,8.910990715026855,-0.058770399540662766,-3.769719123840332
1403638519542829500,-0.0001448318362236023,0.018747910857200623,0.07346425950527191,9.025155067443848,-0.026235882192850113,-3.786116600036621
1403638519547829500,-0.0022788792848587036,0.020170383155345917,0.07628363370895386,9.008821487426758,-0.07512970268726349,-3.802830696105957
1403638519552829500,-0.006472066044807434,0.0222708061337471,0.07557398825883865,9.130959510803223,-0.010016134940087795,-3.811317205429077
1403638519557829500,-0.002914644777774811,0.022278130054473877,0.07771380245685577,8.975987434387207,-0.08308680355548859,-3.770249128341675
1403638519562829500,0.0034618228673934937,0.022244207561016083,0.07276372611522675,9.090188980102539,-0.01824292168021202,-3.8190598487854004
1403638519567829500,0.0019641444087028503,0.020142748951911926,0.08043871074914932,8.967616081237793,-0.042348463088274,-3.78658390045166
1403638519572829500,-0.00015524029731750488,0.017326220870018005,0.07974503934383392,9.049236297607422,-0.001659333473071456,-3.778073310852051
1403638519577829500,0.0005186013877391815,0.018773898482322693,0.07837498933076859,8.93543815612793,-0.05877145752310753,-3.7780954837799072
1403638519582829500,-0.00083174929022789,0.01949041336774826,0.07837224006652832,9.090387344360352,0.01435629278421402,-3.8190481662750244
1403638519587829500,-0.0008452236652374268,0.020910128951072693,0.07904922962188721,8.967824935913086,0.014999309554696083,-3.794743061065674
1403638519592829500,-0.004338759928941727,0.01805010437965393,0.07690057903528214,9.106406211853027,-0.009912188164889812,-3.802985191345215
1403638519597829500,-0.0015249773859977722,0.021540850400924683,0.07626006752252579,8.984123229980469,-0.06734085828065872,-3.7701992988586426
1403638519602829500,-0.0015456564724445343,0.01595238596200943,0.07561258226633072,9.041138648986816,-0.03467126563191414,-3.786207914352417
1403638519607829500,-0.0008431710302829742,0.019464783370494843,0.0798138976097107,9.000465393066406,-0.05850100517272949,-3.8191890716552734
1403638519612829500,-0.0022272244095802307,0.020215928554534912,0.07341226935386658,9.041247367858887,-0.009939669631421566,-3.819431781768799
1403638519617829500,-0.0022032596170902252,0.023716416209936142,0.07621858268976212,9.008651733398438,-0.017952466383576393,-3.8193113803863525
1403638519622829500,-0.001500595360994339,0.022259823977947235,0.07913219183683395,9.049376487731934,-0.017970044165849686,-3.8194501399993896
1403638519627829500,-0.003658309578895569,0.024344712495803833,0.07839538902044296,8.918906211853027,-0.017810646444559097,-3.786367654800415
1403638519632829500,-0.0001336708664894104,0.018051758408546448,0.07834804803133011,8.919157981872559,-0.06685837358236313,-3.7862517833709717
1403638519637829500,-0.00013185292482376099,0.018035627901554108,0.07557380199432373,8.984580993652344,-0.050692979246377945,-3.786503553390503
1403638519642829500,-0.00014345720410346985,0.013166103512048721,0.07415574789047241,9.02499771118164,-0.06695863604545593,-3.7947747707366943
1403638519647829500,-0.0043806396424770355,0.018098674714565277,0.07695354521274567,9.073899269104004,-0.05868741124868393,-3.79508113861084
1403638519652829500,-0.0008282549679279327,0.0160231851041317,0.07769589126110077,8.992196083068848,-0.050658855587244034,-3.8193771839141846
1403638519657829500,0.0006131008267402649,0.018062852323055267,0.07770132273435593,9.065511703491211,-0.0015844741137698293,-3.835946798324585
1403638519662829500,-0.0015432946383953094,0.020166996866464615,0.07977215200662613,9.016419410705566,-0.06673216074705124,-3.8031539916992188
1403638519667829500,-0.0008467920124530792,0.024373076856136322,0.07268038392066956,9.024776458740234,-0.010069039650261402,-3.7945656776428223
1403638519672829500,-0.0022651702165603638,0.020877256989479065,0.07904624938964844,8.95988655090332,-0.07497008144855499,-3.7617692947387695
1403638519677829500,-0.004347063601016998,0.018768489360809326,0.07493455708026886,9.025150299072266,-0.06703143566846848,-3.794313669204712
1403638519682829500,-0.0008536875247955322,0.01457706093788147,0.07560654729604721,8.951579093933105,-0.07527083903551102,-3.753937244415283
1403638519687829500,0.0013255365192890167,0.02084565907716751,0.07698105275630951,9.106500625610352,-0.02621752768754959,-3.818969249725342
1403638519692829500,0.004103194922208786,0.0215761736035347,0.08046404272317886,8.992110252380371,-0.05052778497338295,-3.7787933349609375
1403638519697829500,0.0026479586958885193,0.020871520042419434,0.07480186969041824,9.098190307617188,-0.026491405442357063,-3.8027141094207764
1403638519702829500,0.0005062893033027649,0.01947975903749466,0.07481969892978668,8.935159683227539,-0.009747564792633057,-3.7946293354034424
1403638519707829500,-0.002970043569803238,0.01310214027762413,0.07489083707332611,9.0575532913208,-0.026055660098791122,-3.8108842372894287
1403638519712829500,-0.0015463940799236298,0.022225677967071533,0.07702663540840149,8.984240531921387,-0.09981194883584976,-3.7947282791137695
1403638519717829500,-0.005052831023931503,0.018125347793102264,0.07557656615972519,9.06572151184082,-0.09196292608976364,-3.802886486053467
1403638519722829500,-0.0008142292499542236,0.02375461533665657,0.07909337431192398,8.976073265075684,-0.06688157469034195,-3.810999870300293
1403638519727829500,0.0005906857550144196,0.023682601749897003,0.07767824083566666,9.073899269104004,-0.03420264273881912,-3.8030853271484375
1403638519732829500,-0.00016004964709281921,0.020806752145290375,0.07691196352243423,8.918850898742676,-0.0670427531003952,-3.745605945587158
1403638519737829500,-0.0008368194103240967,0.016569573432207108,0.07481050491333008,9.10657024383545,-0.05098829045891762,-3.7945194244384766
1403638519742829500,-0.0001344345510005951,0.021562308073043823,0.0784388929605484,8.943341255187988,-0.06681035459041595,-3.7865216732025146
1403638519747829500,0.002013683319091797,0.018135059624910355,0.07700837403535843,9.024948120117188,0.014736822806298733,-3.8027901649475098
1403638519752829500,-0.004371557384729385,0.021607570350170135,0.07764305919408798,9.017027854919434,-0.034133363515138626,-3.8111720085144043
1403638519757829500,-0.0008421465754508972,0.015938661992549896,0.08045923709869385,9.040971755981445,-0.051101911813020706,-3.803013563156128
1403638519762829500,-0.0015520565211772919,0.019424952566623688,0.07907547801733017,9.016757011413574,-0.10815317183732986,-3.7620532512664795
1403638519767829500,-0.002932850271463394,0.01804526522755623,0.08252795040607452,9.049308776855469,-0.026318348944187164,-3.810703754425049
1403638519772829500,-0.0008437260985374451,0.02298237383365631,0.07835905998945236,8.975868225097656,-0.034033071249723434,-3.83560848236084
1403638519777829500,-0.0007978901267051697,0.023726001381874084,0.07975195348262787,9.065649032592773,-0.01018586941063404,-3.835899591445923
1403638519782829500,-0.006447385996580124,0.025805167853832245,0.07768438756465912,8.967788696289062,-0.034538399428129196,-3.7948949337005615
1403638519787829500,-0.00013481825590133667,0.014512136578559875,0.08045431226491928,8.97599983215332,-0.050749048590660095,-3.786384344100952
1403638519792829500,-0.002213243395090103,0.02148646116256714,0.0769711285829544,9.049681663513184,-0.03426704183220863,-3.7864787578582764
1403638519797829500,-0.0015146620571613312,0.013880819082260132,0.07907038182020187,9.00024700164795,-0.06706570088863373,-3.7947025299072266
1403638519802829500,-0.0015546828508377075,0.01809898018836975,0.07485179603099823,9.041275024414062,-0.06721815466880798,-3.803131103515625
1403638519807829500,-0.0015325173735618591,0.018818922340869904,0.07694359123706818,9.024962425231934,-0.06717152148485184,-3.8193278312683105
1403638519812829500,-0.0036216527223587036,0.024383913725614548,0.07698642462491989,9.065519332885742,-0.05050639063119888,-3.819488286972046
1403638519817829500,-0.002949897199869156,0.025057673454284668,0.07911412417888641,8.992132186889648,-0.050590045750141144,-3.8029181957244873
1403638519822829500,-0.004329405725002289,0.020809873938560486,0.07768905907869339,9.008648872375488,-0.0343722365796566,-3.8028125762939453
1403638519827829500,-0.002219732850790024,0.015952222049236298,0.07694273442029953,8.96796989440918,-0.058761704713106155,-3.7864389419555664
1403638519832829500,-0.005745202302932739,0.02088496834039688,0.07482782751321793,9.065781593322754,-0.050688426941633224,-3.8272616863250732
1403638519837829500,-0.005053456872701645,0.01951403170824051,0.07838995009660721,8.935208320617676,-0.04243805631995201,-3.778519868850708
1403638519842829500,-0.003583848476409912,0.01807897537946701,0.0805056244134903,9.131021499633789,-0.06704764068126678,-3.8437209129333496
1403638519847829500,0.0013279169797897339,0.0222795270383358,0.07978978008031845,9.008358001708984,-0.06725886464118958,-3.8116536140441895
1403638519852829500,0.0012910068035125732,0.021527819335460663,0.07622277736663818,9.057287216186523,-0.042676955461502075,-3.794677257537842
1403638519857829500,0.0012231431901454926,0.016608934849500656,0.07342192530632019,8.935439109802246,-0.12405426800251007,-3.753786563873291
1403638519862829500,-0.00017290189862251282,0.015227995812892914,0.07555541396141052,9.025091171264648,-0.08377343416213989,-3.7615890502929688
1403638519867829500,-0.001575518399477005,0.018842626363039017,0.07983873784542084,8.951615333557129,-0.00975873228162527,-3.7697365283966064
1403638519872829500,0.001280471682548523,0.013914577662944794,0.0777137354016304,9.106560707092285,-0.0012772605987265706,-3.819246768951416
1403638519877829500,-0.005083899945020676,0.020160924643278122,0.07977950572967529,9.016712188720703,-0.05905391648411751,-3.795071840286255
1403638519882829500,-0.0022049807012081146,0.024373695254325867,0.08039766550064087,9.155133247375488,-0.01861969754099846,-3.8274195194244385
1403638519887829500,-0.0036694854497909546,0.028603244572877884,0.08041240274906158,8.93494987487793,-0.07485193759202957,-3.7782678604125977
1403638519892829500,0.0005895569920539856,0.019397996366024017,0.0797637477517128,9.00047779083252,-0.04272615537047386,-3.745166063308716
1403638519897829500,-0.0022451654076576233,0.022193536162376404,0.07702174782752991,9.008919715881348,-0.04277467355132103,-3.7613723278045654
1403638519902829500,-0.002229083329439163,0.01526590809226036,0.07769232988357544,9.057456970214844,-0.07531146705150604,-3.778193235397339
1403638519907829500,-8.777156472206116e-05,0.02015727385878563,0.0762190967798233,9.065755844116211,-0.03462495282292366,-3.8356058597564697
1403638519912829500,-0.0015167929232120514,0.01878976821899414,0.0790184736251831,9.065641403198242,0.04736928641796112,-3.7952256202697754
1403638519917829500,-0.0036545023322105408,0.02512802928686142,0.0734921246767044,9.008478164672852,-0.05026314780116081,-3.7943809032440186
1403638519922829500,-0.0022385865449905396,0.02155536785721779,0.07907581329345703,9.008484840393066,-0.043222278356552124,-3.7865207195281982
1403638519927829500,-0.0015316493809223175,0.022872094064950943,0.08050892502069473,8.919047355651855,-0.0344536118209362,-3.7369468212127686
1403638519932829500,-0.0008421428501605988,0.013825677335262299,0.07834847271442413,9.008989334106445,-0.04209316894412041,-3.794130325317383
1403638519937829500,-0.0008523501455783844,0.01668602228164673,0.07554394006729126,9.017095565795898,-0.04267166927456856,-3.786752700805664
1403638519942829500,-0.0022455602884292603,0.017439953982830048,0.07417425513267517,9.000544548034668,-0.050994809716939926,-3.802769422531128
1403638519947829500,0.001303844153881073,0.020219825208187103,0.07626109570264816,9.05769157409668,-0.04246198758482933,-3.827810525894165
1403638519952829500,0.0012479647994041443,0.014587923884391785,0.07839426398277283,8.992125511169434,-0.09146237373352051,-3.7787110805511475
1403638519957829500,-0.0015436485409736633,0.024320583790540695,0.07558635622262955,9.090067863464355,-0.05079846456646919,-3.7945737838745117
1403638519962829500,0.0012537352740764618,0.021558314561843872,0.07628603279590607,8.96777057647705,-0.06682641059160233,-3.7946605682373047
1403638519967829500,-0.002970028668642044,0.023651257157325745,0.07553230971097946,8.992496490478516,-0.03421920910477638,-3.761845827102661
1403638519972829500,0.0012693554162979126,0.019494611769914627,0.07831945270299911,8.951756477355957,-0.026078779250383377,-3.810603141784668
1403638519977829500,0.0005706809461116791,0.020163938403129578,0.07980602979660034,9.114614486694336,-0.05879320576786995,-3.8197596073150635
1403638519982829500,-0.0008439123630523682,0.020161312073469162,0.07983686029911041,8.967531204223633,-0.08349614590406418,-3.827481746673584
1403638519987829500,0.0012799575924873352,0.019412197172641754,0.07693029940128326,9.0983247756958,-0.06722275167703629,-3.844386339187622
1403638519992829500,-0.0015885084867477417,0.019502729177474976,0.07761333882808685,8.91071605682373,-0.07498133927583694,-3.7703022956848145
1403638519997829500,0.0012920238077640533,0.0222858265042305,0.07833460718393326,9.024848937988281,0.006311196368187666,-3.8105437755584717
1403638520002829500,-0.0015534721314907074,0.018037278205156326,0.07629372924566269,9.016883850097656,-0.034226641058921814,-3.8113157749176025
1403638520007829500,-0.002209298312664032,0.0243251770734787,0.07837865501642227,9.08995246887207,0.030740927904844284,-3.8438103199005127
1403638520012829500,-0.001546330749988556,0.025105804204940796,0.08260881900787354,8.943315505981445,-0.042490843683481216,-3.8032608032226562
1403638520017829500,-0.0029313787817955017,0.018771551549434662,0.07832011580467224,9.073983192443848,-0.026496917009353638,-3.8029239177703857
1403638520022829500,-0.004360601305961609,0.017344936728477478,0.07971441000699997,8.935023307800293,-0.03448330983519554,-3.770001173019409
1403638520027829500,0.0006111226975917816,0.01662387326359749,0.07836944609880447,9.0900297164917,-0.04269352927803993,-3.810915946960449
1403638520032829500,-0.003646649420261383,0.020195700228214264,0.07559289783239365,8.9761323928833,-0.07530320435762405,-3.754077434539795
1403638520037829500,-0.0015079639852046967,0.017388097941875458,0.0734349936246872,9.106466293334961,-0.034674495458602905,-3.8270273208618164
1403638520042829500,0.0005933232605457306,0.024390019476413727,0.07347588241100311,9.065627098083496,-0.05856768786907196,-3.836057186126709
1403638520047829500,-0.0007979460060596466,0.02368374541401863,0.07419854402542114,9.073477745056152,0.006449487991631031,-3.811129331588745
1403638520052829500,-0.000849548727273941,0.02360626310110092,0.08049629628658295,8.959565162658691,-0.03415389358997345,-3.770051956176758
1403638520057829500,-0.002975132316350937,0.019411928951740265,0.07977105677127838,9.008722305297852,-0.05071265995502472,-3.777864694595337
1403638520062829500,-0.006453137844800949,0.023707810789346695,0.07624638080596924,8.967976570129395,-0.034272171556949615,-3.802398681640625
1403638520067829500,-0.0043344274163246155,0.014601115137338638,0.07834145426750183,9.025057792663574,-0.07494044303894043,-3.8193767070770264
1403638520072829500,-0.0035927817225456238,0.02152235060930252,0.08045678585767746,9.122842788696289,-0.042594220489263535,-3.8441829681396484
1403638520077829500,0.0006359852850437164,0.0229736790060997,0.08258718997240067,9.04898452758789,-0.0018056569388136268,-3.8114190101623535
1403638520082829500,-0.0015355423092842102,0.026483122259378433,0.08120366185903549,8.983949661254883,-0.04224591702222824,-3.794584274291992
1403638520087829500,0.0005624331533908844,0.020827241241931915,0.07623091340065002,8.984317779541016,-0.010086772963404655,-3.761859178543091
1403638520092829500,-0.0015600211918354034,0.01871730387210846,0.07338088750839233,8.943499565124512,-0.01791864074766636,-3.769474983215332
1403638520097829500,-0.002237115055322647,0.01175544410943985,0.07691362500190735,9.033280372619629,-0.017873553559184074,-3.810993194580078
1403638520102829500,-0.004329133778810501,0.018049009144306183,0.07562034577131271,9.163772583007812,-0.042703188955783844,-3.803379535675049
1403638520107829500,-0.0015123896300792694,0.018132850527763367,0.0777590349316597,9.073419570922852,-0.08359266817569733,-3.8275818824768066
1403638520112829500,-0.0022230111062526703,0.025143828243017197,0.07698781788349152,9.081792831420898,-0.06711456179618835,-3.7951457500457764
1403638520117829500,-0.0015765056014060974,0.02159368246793747,0.07902317494153976,8.877967834472656,-0.058683693408966064,-3.7613890171051025
1403638520122829500,0.004100427031517029,0.023559361696243286,0.07830488681793213,9.01690673828125,-0.0015659190248697996,-3.7778689861297607
1403638520127829500,-0.00014472007751464844,0.02151435986161232,0.08048798143863678,8.959853172302246,-0.03417538106441498,-3.8024661540985107
1403638520132829500,0.000575236976146698,0.017352528870105743,0.0734952911734581,9.10669994354248,-0.050792064517736435,-3.8277299404144287
1403638520137829500,-0.0015705563127994537,0.018116895109415054,0.08117247372865677,9.000553131103516,-0.042507097125053406,-3.827716827392578
1403638520142829500,-0.0029235966503620148,0.018110692501068115,0.07765201479196548,9.065568923950195,-0.009609456174075603,-3.8195059299468994
1403638520147829500,-0.0008560195565223694,0.01877478137612343,0.0797450914978981,8.9350004196167,-0.09955153614282608,-3.7864997386932373
1403638520152829500,-0.001531451940536499,0.02152339741587639,0.07555343955755234,9.10641098022461,-0.043084386736154556,-3.819242477416992
1403638520157829500,0.0019801072776317596,0.022265780717134476,0.0797724574804306,8.926936149597168,-0.07498850673437119,-3.8192296028137207
1403638520162829500,0.0005592219531536102,0.019444987177848816,0.07695437222719193,9.09044075012207,-0.04241388291120529,-3.7868850231170654
1403638520167829500,-0.004369262605905533,0.023655351251363754,0.0776451975107193,9.02503776550293,-0.034414712339639664,-3.8109090328216553
1403638520172829500,-0.005045391619205475,0.015978358685970306,0.07559172809123993,9.049080848693848,-0.009855742566287518,-3.8031439781188965
1403638520177829500,-0.007145429030060768,0.016702748835086823,0.07631457597017288,8.935205459594727,-0.05047748610377312,-3.7945778369903564
1403638520182829500,-0.00568816065788269,0.016670245677232742,0.08115346729755402,9.07388973236084,-0.010083966888487339,-3.794877529144287
1403638520187829500,-0.0036168433725833893,0.02229514718055725,0.07767290621995926,8.984071731567383,-0.09949202835559845,-3.7863101959228516
1403638520192829500,-0.0014871619641780853,0.018780265003442764,0.07554648816585541,9.082015991210938,-0.051074810326099396,-3.8110530376434326
1403638520197829500,0.001297932118177414,0.025054387748241425,0.07768137753009796,8.959800720214844,-0.058821436017751694,-3.811021566390991
1403638520202829500,0.0019845180213451385,0.02155464142560959,0.07483803480863571,9.0576171875,-0.03431567922234535,-3.8029630184173584
1403638520207829500,-0.0008478574454784393,0.02434609830379486,0.07695890963077545,8.9677734375,-0.034380074590444565,-3.8108489513397217
1403638520212829500,-0.002256769686937332,0.015942595899105072,0.07702390104532242,9.008600234985352,-0.04261840134859085,-3.7948191165924072
1403638520217829500,-0.00012442469596862793,0.020865201950073242,0.07487457245588303,9.065947532653809,-0.0097708934918046,-3.778257369995117
1403638520222829500,-0.0015533678233623505,0.01670186221599579,0.07762937992811203,9.04104995727539,-0.042462270706892014,-3.794552803039551
1403638520227829500,-0.002966511994600296,0.018747080117464066,0.0755300372838974,9.057456970214844,-0.042643189430236816,-3.811164617538452
1403638520232829500,-0.0022593364119529724,0.01666288822889328,0.0755801647901535,9.049338340759277,-0.08353918045759201,-3.819401979446411
1403638520237829500,-0.005034219473600388,0.022980809211730957,0.07490558922290802,9.057332038879395,-0.009894532151520252,-3.803025960922241
1403638520242829500,-0.0029113516211509705,0.02087084949016571,0.08118893206119537,9.032866477966309,-0.017778318375349045,-3.794579267501831
1403638520247829500,0.002021312713623047,0.02644534409046173,0.07837371528148651,9.000487327575684,-0.018131934106349945,-3.7863030433654785
1403638520252829500,0.002697370946407318,0.017382338643074036,0.07973162084817886,8.935347557067871,-0.03462356701493263,-3.778048276901245
1403638520257829500,-0.0001425035297870636,0.0180358923971653,0.0755239948630333,9.082284927368164,0.014636216685175896,-3.7863597869873047
1403638520262829500,-0.0022807978093624115,0.019445467740297318,0.0755365788936615,9.065593719482422,-0.042204849421978,-3.79461932182312
1403638520267829500,-0.0029179565608501434,0.018768221139907837,0.07413718104362488,9.138856887817383,0.014281670562922955,-3.8275773525238037
1403638520272829500,-0.0036298558115959167,0.021610267460346222,0.07912023365497589,9.016570091247559,-0.04247637465596199,-3.811255931854248
1403638520277829500,-0.002930358052253723,0.020882122218608856,0.07703080028295517,9.016610145568848,-0.009931162931025028,-3.810932159423828
1403638520282829500,0.000584576278924942,0.024338774383068085,0.08115508407354355,8.943399429321289,-0.017954112961888313,-3.769920825958252
1403638520287829500,-0.00011929497122764587,0.023622702807188034,0.07478678971529007,9.033305168151855,0.006520231254398823,-3.802309274673462
1403638520292829500,0.0012407004833221436,0.016658026725053787,0.07340133190155029,8.943668365478516,-0.03422558307647705,-3.8028886318206787
1403638520297829500,-0.0008337460458278656,0.015971772372722626,0.07347843050956726,9.114946365356445,-0.026395129039883614,-3.83581805229187
1403638520302829500,-0.0022464245557785034,0.02441537380218506,0.07636755704879761,8.918919563293457,-0.09127158671617508,-3.7867774963378906
1403638520307829500,-0.0029391907155513763,0.018089856952428818,0.07281607389450073,9.049495697021484,-0.05072501301765442,-3.7946298122406006
1403638520312829500,-0.00012352317571640015,0.02156800776720047,0.07556372135877609,8.992378234863281,-0.07487407326698303,-3.8192296028137207
1403638520317829500,0.0005833841860294342,0.022960178554058075,0.07624419033527374,9.041074752807617,-0.017896363511681557,-3.794938802719116
1403638520322829500,-0.00016819313168525696,0.022944677621126175,0.07765094190835953,8.959891319274902,-0.08303510397672653,-3.7701025009155273
1403638520327829500,-0.0008444637060165405,0.023607365787029266,0.07413782179355621,9.082274436950684,-0.026243744418025017,-3.7946035861968994
1403638520332829500,-0.0029531382024288177,0.02507247030735016,0.07771963626146317,8.99221134185791,-0.04206784442067146,-3.770028829574585
1403638520337829500,-0.0022120773792266846,0.01949724182486534,0.08404377102851868,9.081741333007812,-0.05874554440379143,-3.8028111457824707
1403638520342829500,-0.00010056793689727783,0.02290917932987213,0.0832405835390091,9.041044235229492,-0.02634541504085064,-3.786752939224243
1403638520347829500,-0.0015197433531284332,0.02149759978055954,0.08460050821304321,9.032731056213379,-0.04247008264064789,-3.8025929927825928
1403638520352829500,0.0005622804164886475,0.022270753979682922,0.08185415714979172,8.984086036682129,-0.05879577621817589,-3.7783520221710205
1403638520357829500,0.003383409231901169,0.02016318589448929,0.07546713203191757,9.065751075744629,-0.01020227000117302,-3.810732364654541
1403638520362829500,-0.0015550553798675537,0.0201428085565567,0.07479094713926315,9.024836540222168,-0.0014778438489884138,-3.8110620975494385
1403638520367829500,-0.0008566640317440033,0.016651220619678497,0.07914938032627106,9.016701698303223,-0.05075403302907944,-3.7947726249694824
1403638520372829500,-0.0015520527958869934,0.018059559166431427,0.0784834548830986,8.984302520751953,-0.05930335819721222,-3.794645071029663
1403638520377829500,-0.0015228502452373505,0.01739059016108513,0.08116094768047333,9.016792297363281,-0.05074135214090347,-3.786466121673584
1403638520382829500,-0.0029547251760959625,0.023731298744678497,0.0726737231016159,9.016829490661621,-0.03410818800330162,-3.8108813762664795
1403638520387829500,-0.0008392855525016785,0.016689464449882507,0.07408486306667328,9.016847610473633,-0.02626260556280613,-3.7950148582458496
1403638520392829500,-0.0007865764200687408,0.02432623878121376,0.07347095012664795,9.106590270996094,0.030870147049427032,-3.819226026535034
1403638520397829500,-0.0015403032302856445,0.02227627858519554,0.07705393433570862,8.983952522277832,-0.009604686871170998,-3.7784717082977295
1403638520402829500,-0.003665294498205185,0.02014591544866562,0.07288063317537308,9.04953384399414,-0.09979166090488434,-3.7373452186584473
1403638520407829500,-0.0036266110837459564,0.02156968042254448,0.07697929441928864,8.976046562194824,-0.05922216549515724,-3.7940638065338135
1403638520412829500,-0.0007847137749195099,0.02298402041196823,0.0740949735045433,9.024945259094238,-0.04216286167502403,-3.8192524909973145
1403638520417829500,-0.0015386752784252167,0.018763631582260132,0.07901634275913239,9.008747100830078,-0.10760901868343353,-3.786797046661377
1403638520422829500,-0.0001043081283569336,0.02359873801469803,0.0783916562795639,9.130908012390137,-0.07575469464063644,-3.819413661956787
1403638520427829500,-0.001571744680404663,0.020862337201833725,0.0791502520442009,8.951354026794434,-0.13210994005203247,-3.7539422512054443
1403638520432829500,0.0005779527127742767,0.020158015191555023,0.07766403257846832,9.041312217712402,-0.05042634904384613,-3.7941787242889404
1403638520437829500,0.0012360550463199615,0.015952307730913162,0.0769166424870491,8.886395454406738,-0.07482088357210159,-3.7865078449249268
1403638520442829500,-0.0001215711236000061,0.017335638403892517,0.07832317799329758,9.122825622558594,-0.034376922994852066,-3.8355836868286133
1403638520447829500,-0.0022511668503284454,0.023715786635875702,0.08472518622875214,9.00029468536377,-0.034296970814466476,-3.8196239471435547
1403638520452829500,-0.003627762198448181,0.023671474307775497,0.08327481895685196,9.14703369140625,0.02283232845366001,-3.82769513130188
1403638520457829500,-0.0036453530192375183,0.023664459586143494,0.0811186358332634,9.008505821228027,-0.04234208166599274,-3.7784998416900635
1403638520462829500,-0.0022260621190071106,0.022246897220611572,0.07899948209524155,8.9920072555542,-0.026786115020513535,-3.786073923110962
1403638520467829500,-0.0008329451084136963,0.018718115985393524,0.08115223795175552,8.90269660949707,-0.042795442044734955,-3.769906759262085
1403638520472829500,-0.0015096589922904968,0.017313353717327118,0.0790749043226242,9.098527908325195,-0.04274579510092735,-3.827188491821289
1403638520477829500,0.0005948729813098907,0.023008454591035843,0.07909079641103745,9.032912254333496,-0.01832820102572441,-3.8441851139068604
1403638520482829500,-0.0043487995862960815,0.0181318037211895,0.07277698069810867,9.122808456420898,-0.05911331996321678,-3.8198728561401367
1403638520487829500,-0.0029464364051818848,0.018766462802886963,0.07553550601005554,8.943367004394531,-0.05086667835712433,-3.770181179046631
1403638520492829500,-0.0022277869284152985,0.017313912510871887,0.07624352723360062,8.992265701293945,-0.018089506775140762,-3.777898073196411
1403638520497829500,-0.0043322741985321045,0.023668430745601654,0.0777050256729126,8.959785461425781,0.006850636098533869,-3.7860445976257324
1403638520502829500,-0.004357736557722092,0.014604795724153519,0.07774795591831207,8.992392539978027,-0.05061875656247139,-3.794635772705078
1403638520507829500,-0.005054138600826263,0.02018367499113083,0.07698777318000793,9.009071350097656,-0.09181506186723709,-3.778517246246338
1403638520512829500,-0.0028998665511608124,0.020223021507263184,0.07620969414710999,9.016986846923828,-0.05884905532002449,-3.8027238845825195
1403638520517829500,-9.554997086524963e-05,0.02296505868434906,0.07834544032812119,9.016717910766602,-0.08293947577476501,-3.819404125213623
1403638520522829500,-0.0022212453186511993,0.022926494479179382,0.08051881939172745,9.049214363098145,-0.05893324315547943,-3.7950305938720703
1403638520527829500,-0.002934291958808899,0.024369515478610992,0.08052053302526474,8.992066383361816,-0.03442396968603134,-3.794508457183838
1403638520532829500,0.0033928044140338898,0.015952520072460175,0.08183746039867401,9.000419616699219,-0.05861537531018257,-3.7865195274353027
1403638520537829500,0.0005724839866161346,0.02008546143770218,0.07757657021284103,9.065790176391602,-0.0016860207542777061,-3.802694797515869
1403638520542829500,-0.004391886293888092,0.018076546490192413,0.07761181890964508,8.992086410522461,-0.0341440886259079,-3.8274123668670654
1403638520547829500,-0.003654569387435913,0.02371787279844284,0.07978667318820953,9.073851585388184,-0.026290524750947952,-3.811443328857422
1403638520552829500,0.0005758479237556458,0.02020001783967018,0.08264849334955215,8.910710334777832,-0.06725100427865982,-3.7373359203338623
1403638520557829500,-0.0022155195474624634,0.02360622212290764,0.08117080479860306,9.114615440368652,-0.026375291869044304,-3.8187787532806396
1403638520562829500,-0.002278447151184082,0.020832858979701996,0.0762132853269577,9.008532524108887,-0.09140180051326752,-3.7787063121795654
1403638520567829500,-0.000819716602563858,0.02222558483481407,0.07268814742565155,9.032983779907227,-0.051084812730550766,-3.794419050216675
1403638520572829500,-0.004350714385509491,0.013891488313674927,0.08119462430477142,8.92727279663086,-0.01799335516989231,-3.7784440517425537
1403638520577829500,-0.004330486059188843,0.019494928419589996,0.07561025023460388,9.09839153289795,0.0475405789911747,-3.8188703060150146
1403638520582829500,-0.004328574985265732,0.020207270979881287,0.07840456813573837,9.016493797302246,-0.034197211265563965,-3.7949304580688477
1403638520587829500,-0.002846505492925644,0.02155306190252304,0.07698588073253632,9.122612953186035,-0.04307210072875023,-3.852048873901367
1403638520592829500,-0.0022298581898212433,0.022961191833019257,0.08041922003030777,8.98412799835205,-0.09968306869268417,-3.7869772911071777
1403638520597829500,-0.0036589354276657104,0.02155650407075882,0.07830750942230225,9.016717910766602,-0.06698053330183029,-3.794220447540283
1403638520602829500,0.0012708380818367004,0.018740132451057434,0.0770018994808197,8.910894393920898,-0.13226854801177979,-3.7374513149261475
1403638520607829500,-0.0015255026519298553,0.01802271232008934,0.07352685183286667,9.074109077453613,-0.0510437972843647,-3.7859959602355957
1403638520612829500,-0.0008445419371128082,0.018103793263435364,0.076276034116745,8.992399215698242,-0.05846443027257919,-3.7949342727661133
1403638520617829500,-0.000822208821773529,0.017410635948181152,0.07690374553203583,9.122733116149902,0.04750121012330055,-3.8194632530212402
1403638520622829500,-0.004358790814876556,0.02509225904941559,0.07629001140594482,8.959691047668457,-0.017605062574148178,-3.7784392833709717
1403638520627829500,-0.002236783504486084,0.020854104310274124,0.07980673015117645,9.024798393249512,-0.0019978159107267857,-3.7943336963653564
1403638520632829500,-0.002967197448015213,0.018743902444839478,0.07977676391601562,8.935262680053711,-0.07518430054187775,-3.7862956523895264
1403638520637829500,-0.0036421939730644226,0.014544706791639328,0.0747998058795929,8.959857940673828,-0.06716785579919815,-3.8025546073913574
1403638520642829500,-0.00013156980276107788,0.018068574368953705,0.08047135919332504,8.968270301818848,-0.09977179020643234,-3.7948105335235596
1403638520647829500,0.004818424582481384,0.019515689462423325,0.0756157636642456,9.057796478271484,-0.03477879986166954,-3.8192718029022217
1403638520652829500,0.000552840530872345,0.019515350461006165,0.07485853880643845,9.024888038635254,-0.06690911203622818,-3.795093059539795
1403638520657829500,-0.0015857778489589691,0.01667722314596176,0.07907353341579437,9.041071891784668,-0.06724974513053894,-3.778555393218994
1403638520662829500,-0.0008550211787223816,0.020123552531003952,0.07698118686676025,9.024807929992676,-0.03435700014233589,-3.770145893096924
1403638520667829500,-0.0001328401267528534,0.019433028995990753,0.0762467011809349,8.943253517150879,-0.042221441864967346,-3.777984619140625
1403638520672829500,-0.005074780434370041,0.023696795105934143,0.07554639130830765,9.000667572021484,-0.042367883026599884,-3.8191170692443848
1403638520677829500,-0.005784332752227783,0.01674719899892807,0.07699381560087204,8.97617244720459,-0.026317011564970016,-3.7867541313171387
1403638520682829500,-0.0014816932380199432,0.0187641941010952,0.07558568567037582,9.073893547058105,-0.0505576990544796,-3.835505247116089
1403638520687829500,-8.979439735412598e-05,0.02223488688468933,0.07835748046636581,9.016637802124023,-0.04268144071102142,-3.8360488414764404
1403638520692829500,-0.00012392550706863403,0.02224288135766983,0.07839492708444595,9.049210548400879,-0.02635890431702137,-3.8194310665130615
1403638520697829500,0.0026797205209732056,0.019481323659420013,0.08258400112390518,8.959476470947266,-0.0344248004257679,-3.77837872505188
1403638520702829500,0.00198475643992424,0.018769271671772003,0.07760375738143921,8.984129905700684,-0.010075313970446587,-3.769794225692749
1403638520707829500,-0.003002554178237915,0.015951137989759445,0.07832410931587219,8.951711654663086,-0.0017334717558696866,-3.7534866333007812
1403638520712829500,-0.0029736533761024475,0.01802936941385269,0.07628622651100159,9.057770729064941,-0.017996011301875114,-3.794524908065796
1403638520717829500,-0.0015303045511245728,0.018107250332832336,0.07908827066421509,8.959689140319824,-0.06723024696111679,-3.8031005859375
1403638520722829500,-0.002896443009376526,0.020219799131155014,0.07765736430883408,9.163538932800293,-0.0019926228560507298,-3.835935592651367
1403638520727829500,-0.003685932606458664,0.02088223397731781,0.07909709215164185,9.00011920928955,-0.09935656189918518,-3.7623674869537354
1403638520732829500,-0.002224169671535492,0.02150130271911621,0.07695122808218002,9.089827537536621,-0.042867258191108704,-3.786142110824585
1403638520737829500,0.0034194625914096832,0.017337702214717865,0.07691584527492523,8.976007461547852,-0.017954286187887192,-3.7372567653656006
1403638520742829500,-0.00011923536658287048,0.0166613906621933,0.07622520625591278,9.081825256347656,0.03139383718371391,-3.8102807998657227
1403638520747829500,0.0005654096603393555,0.022998422384262085,0.07911090552806854,9.000362396240234,-0.04237255081534386,-3.8276772499084473
1403638520752829500,-0.0036271587014198303,0.024399034678936005,0.07699330896139145,9.122743606567383,-0.01843477599322796,-3.8439724445343018
1403638520757829500,-0.005762062966823578,0.020889613777399063,0.07836530357599258,8.93508529663086,-0.05850466713309288,-3.8112354278564453
1403638520762829500,-0.004341397434473038,0.017323680222034454,0.07483077049255371,9.04946517944336,-0.05059773474931717,-3.8274221420288086
1403638520767829500,-0.0036460086703300476,0.021545518189668655,0.07345462590456009,8.90280532836914,-0.08332689106464386,-3.7619965076446533
1403638520772829500,-0.002912074327468872,0.01455359160900116,0.07769753038883209,9.008776664733887,-0.05084286630153656,-3.7943263053894043
1403638520777829500,-0.00011105462908744812,0.01807715743780136,0.07701565325260162,9.057841300964355,-0.050446588546037674,-3.819563865661621
1403638520782829500,0.002713758498430252,0.020239949226379395,0.07625401020050049,9.081815719604492,-0.03429797664284706,-3.85225510597229
1403638520787829500,-0.000829894095659256,0.024398528039455414,0.07905380427837372,9.024782180786133,-0.0015788153978064656,-3.803541898727417
1403638520792829500,-0.0029576830565929413,0.022212408483028412,0.0797562450170517,9.008541107177734,-0.04240408539772034,-3.794604539871216
1403638520797829500,-0.002265140414237976,0.02083180844783783,0.0804651752114296,8.878067970275879,-0.058871738612651825,-3.7616827487945557
1403638520802829500,-0.00012720748782157898,0.015969201922416687,0.08328927308320999,8.976285934448242,-0.0671425312757492,-3.7615840435028076
1403638520807829500,-0.0015498138964176178,0.022263452410697937,0.08048716187477112,9.017040252685547,-0.03422902524471283,-3.818950891494751
1403638520812829500,-0.0008537136018276215,0.018783003091812134,0.078315868973732,9.041240692138672,-0.042479634284973145,-3.827805757522583
1403638520817829500,-0.002928640693426132,0.020193196833133698,0.07478071749210358,9.130950927734375,-0.034563370048999786,-3.8360562324523926
1403638520822829500,0.0005744807422161102,0.015969038009643555,0.08259284496307373,8.98359203338623,-0.05079228803515434,-3.7950334548950195
1403638520827829500,-0.00012944266200065613,0.022910892963409424,0.07772715389728546,9.016536712646484,-0.01801753230392933,-3.794407367706299
1403638520832829500,-0.00012177973985671997,0.024364948272705078,0.0748196616768837,8.976055145263672,-0.009684616699814796,-3.794405460357666
1403638520837829500,-0.0029515549540519714,0.01878926157951355,0.07484431564807892,9.008644104003906,0.006482883356511593,-3.7863352298736572
1403638520842829500,-0.002955220639705658,0.013187553733587265,0.07416003942489624,9.025171279907227,-0.018096471205353737,-3.7946462631225586
1403638520847829500,-0.0036277882754802704,0.019450776278972626,0.07343641668558121,9.098426818847656,0.006322258152067661,-3.794799566268921
1403638520852829500,-0.0022327154874801636,0.022275928407907486,0.07283332943916321,9.000349044799805,-0.09143093973398209,-3.770155668258667
1403638520857829500,0.0006119012832641602,0.027200940996408463,0.07354867458343506,9.041171073913574,-0.07561849802732468,-3.827211856842041
1403638520862829500,0.0019709542393684387,0.029332559555768967,0.07909774035215378,8.886296272277832,-0.03433702141046524,-3.761977434158325
1403638520867829500,0.0019613616168498993,0.022930286824703217,0.07549798488616943,9.008909225463867,-0.033985987305641174,-3.794067859649658
1403638520872829500,-0.0015998110175132751,0.022148840129375458,0.07274024933576584,8.894866943359375,-0.017947396263480186,-3.761888265609741
1403638520877829500,-0.001524548977613449,0.01939249411225319,0.07277784496545792,9.057868957519531,0.05547606572508812,-3.8514485359191895
1403638520882829500,0.001284278929233551,0.021651722490787506,0.0734759271144867,8.97623348236084,-0.05008846893906593,-3.8362479209899902
1403638520887829500,-0.00011602789163589478,0.02444213628768921,0.07485583424568176,9.106351852416992,-0.02657952532172203,-3.827784538269043
1403638520892829500,-0.00016266852617263794,0.026456840336322784,0.07913559675216675,8.97577953338623,-0.06704795360565186,-3.7948434352874756
1403638520897829500,-0.0008592717349529266,0.022185299545526505,0.07699742913246155,9.049246788024902,-0.06686779111623764,-3.802767276763916
1403638520902829500,0.0012469291687011719,0.020096153020858765,0.0755043774843216,8.878148078918457,-0.06706678122282028,-3.7864484786987305
1403638520907829500,-0.0008420944213867188,0.014520436525344849,0.07547976076602936,9.07406234741211,-0.009928270243108273,-3.8030223846435547
1403638520912829500,0.0005740784108638763,0.019510067999362946,0.07489018142223358,9.024940490722656,-0.03397880867123604,-3.8031084537506104
1403638520917829500,-0.00010360777378082275,0.02234971523284912,0.07140520960092545,9.106266975402832,-0.018165580928325653,-3.8440587520599365
1403638520922829500,-0.0015351735055446625,0.02441568300127983,0.07559965550899506,9.049301147460938,-0.017917459830641747,-3.7870700359344482
1403638520927829500,-0.001540493220090866,0.022237256169319153,0.07558531314134598,9.089795112609863,-0.01786073110997677,-3.80260968208313
1403638520932829500,-0.001535031944513321,0.02497541904449463,0.07553912699222565,9.040937423706055,-0.08330768346786499,-3.7620437145233154
1403638520937829500,-0.0036179013550281525,0.014487247914075851,0.07481905072927475,9.13885498046875,-0.026518667116761208,-3.7779572010040283
1403638520942829500,-0.0008150376379489899,0.020156141370534897,0.07558464258909225,9.032854080200195,-0.06672506779432297,-3.8190133571624756
1403638520947829500,-0.0008186325430870056,0.018133915960788727,0.0784020721912384,9.04934024810791,-0.03445041924715042,-3.7867255210876465
1403638520952829500,0.0027252808213233948,0.026505645364522934,0.07976621389389038,9.090188026428223,-0.009966457262635231,-3.786227226257324
1403638520957829500,0.0047951750457286835,0.021546468138694763,0.08326862007379532,9.032626152038574,0.0065823765471577644,-3.818981647491455
1403638520962829500,0.0033536702394485474,0.017975084483623505,0.07904765009880066,9.016742706298828,0.006567955948412418,-3.7783524990081787
1403638520967829500,0.0033400915563106537,0.017302565276622772,0.08178155869245529,9.008771896362305,-0.018177390098571777,-3.78605318069458
1403638520972829500,-0.003007754683494568,0.01945578306913376,0.0755179151892662,9.025103569030762,-0.01800515130162239,-3.7699954509735107
1403638520977829500,-0.0015627071261405945,0.02162911742925644,0.07837219536304474,8.97616195678711,-0.034370508044958115,-3.777736186981201
1403638520982829500,-0.0015374980866909027,0.021649561822414398,0.07702425122261047,9.025237083435059,-0.04255956411361694,-3.819139242172241
1403638520987829500,-0.0015367940068244934,0.020869795233011246,0.07698875665664673,9.02515697479248,-0.0916326493024826,-3.778719425201416
1403638520992829500,-0.0015395581722259521,0.02288912609219551,0.07273627817630768,9.057600975036621,-0.058967895805835724,-3.794508934020996
1403638520997829500,0.0012737065553665161,0.0215112566947937,0.07484211027622223,8.95975112915039,-0.050386860966682434,-3.7947192192077637
1403638521002829500,-0.0008080154657363892,0.021577399224042892,0.0713583454489708,9.065962791442871,-0.0013853056589141488,-3.8110134601593018
1403638521007829500,-0.004371382296085358,0.023743461817502975,0.07491587847471237,8.918977737426758,-0.03406812995672226,-3.7537600994110107
1403638521012829500,-0.006425552070140839,0.02158111333847046,0.07562539726495743,9.04951000213623,0.00652006221935153,-3.835153341293335
1403638521017829500,-0.0036003626883029938,0.02293289452791214,0.07631862908601761,8.95178508758545,-0.1156575158238411,-3.8033084869384766
1403638521022829500,-0.003605663776397705,0.022233586758375168,0.07484686374664307,9.033173561096191,-0.09994951635599136,-3.811063051223755
1403638521027829500,-0.0022442713379859924,0.022969432175159454,0.07694990932941437,8.959857940673828,-0.10777787864208221,-3.7786684036254883
1403638521032829500,-0.002226058393716812,0.019448067992925644,0.0790935754776001,9.057550430297852,-0.09952184557914734,-3.794598340988159
1403638521037829500,0.0026940368115901947,0.01805352419614792,0.07769860327243805,8.9269437789917,-0.09971825033426285,-3.811187982559204
1403638521042829500,0.004817884415388107,0.018754087388515472,0.07621736079454422,9.10645580291748,0.014501247555017471,-3.8605268001556396
1403638521047829500,0.003351416438817978,0.018791746348142624,0.0797666385769844,8.959396362304688,-0.041886527091264725,-3.8606045246124268
1403638521052829500,0.004083111882209778,0.023653659969568253,0.08394243568181992,9.122477531433105,0.01425543986260891,-3.8525733947753906
1403638521057829500,-0.0015959665179252625,0.025798704475164413,0.0790274366736412,9.000298500061035,-0.01809103600680828,-3.811225414276123
1403638521062829500,-0.00015121325850486755,0.018732912838459015,0.08182555437088013,9.122347831726074,-0.018175391480326653,-3.8437912464141846
1403638521067829500,-0.00227399542927742,0.020100805908441544,0.07626619189977646,9.057305335998535,-0.018285002559423447,-3.8032588958740234
1403638521072829500,-0.001542266458272934,0.013837415724992752,0.07761295139789581,9.032732963562012,-0.034746747463941574,-3.778233051300049
1403638521077829500,-0.0008258074522018433,0.01877351477742195,0.07485223561525345,9.106492042541504,-0.026500290259718895,-3.7783455848693848
1403638521082829500,-0.0008239001035690308,0.015303213149309158,0.0770156979560852,9.130586624145508,-0.04291163757443428,-3.7864956855773926
1403638521087829500,0.0013211891055107117,0.022280201315879822,0.07629960030317307,9.146724700927734,-0.010041589848697186,-3.8192782402038574
1403638521092829500,-0.0015268512070178986,0.021578993648290634,0.07691971212625504,9.040986061096191,-0.01801305077970028,-3.8029723167419434
1403638521097829500,-0.0029239878058433533,0.022914636880159378,0.07551992684602737,9.016756057739258,0.0065083890222013,-3.777890920639038
1403638521102829500,-0.0036268532276153564,0.01802782714366913,0.07697243243455887,9.041285514831543,0.06377213448286057,-3.7531161308288574
1403638521107829500,-0.00573345273733139,0.02228296548128128,0.07559574395418167,9.008707046508789,0.006879258435219526,-3.7610368728637695
1403638521112829500,-0.00855034589767456,0.013883616775274277,0.08471757173538208,9.074037551879883,-0.06722763925790787,-3.778076648712158
1403638521117829500,-0.014127425849437714,0.020836688578128815,0.08751735836267471,9.220623970031738,-0.06735226511955261,-3.8192896842956543
1403638521122829500,-0.015547094866633415,0.02439212054014206,0.09169498085975647,8.975435256958008,-0.26263710856437683,-3.745868444442749
1403638521127829500,-0.009900527074933052,0.021559089422225952,0.09798984229564667,8.861838340759277,-0.3043292760848999,-3.7124247550964355
1403638521132829500,0.006336953490972519,0.022143956273794174,0.11407769471406937,8.943657875061035,-0.27955588698387146,-3.7860875129699707
1403638521137829500,0.020411416888237,0.029809217900037766,0.11325657367706299,9.220074653625488,-0.10721727460622787,-3.9014999866485596
1403638521142829500,0.02166113629937172,0.03480924665927887,0.0941721722483635,9.162671089172363,0.04001099616289139,-3.918633222579956
1403638521147829500,0.012345772236585617,0.03414703160524368,0.07033675909042358,9.024951934814453,0.17040857672691345,-3.8526439666748047
1403638521152829500,0.0016894936561584473,0.025802798569202423,0.06706089526414871,8.617812156677246,0.19504572451114655,-3.785421133041382
1403638521157829500,-0.0002739466726779938,0.012424010783433914,0.08057107031345367,8.80542278289795,0.26782894134521484,-3.84252667427063
1403638521162829500,-0.003729104995727539,0.011671636253595352,0.09683801978826523,8.837672233581543,0.2839309573173523,-3.827180862426758
1403638521167829500,-0.010727541521191597,0.01037159189581871,0.0798439159989357,9.058089256286621,0.2505034804344177,-3.8276124000549316
1403638521172829500,-0.022009290754795074,0.007759351283311844,0.0542479082942009,9.050565719604492,-0.044010989367961884,-3.7874295711517334
1403638521177829500,-0.020475145429372787,0.0070116519927978516,0.03664940595626831,9.196699142456055,-0.19183553755283356,-3.787327766418457
1403638521182829500,-0.006274409592151642,0.017419569194316864,0.0434282012283802,9.048912048339844,-0.24772565066814423,-3.7951700687408447
1403638521187829500,0.007151830941438675,0.024396594613790512,0.055187202990055084,9.008103370666504,-0.034251242876052856,-3.7785704135894775
1403638521192829500,0.0027892738580703735,0.025151267647743225,0.05659845471382141,8.919145584106445,-0.04961153864860535,-3.7862300872802734
1403638521197829500,-0.004326358437538147,0.023071110248565674,0.05178193747997284,9.07432746887207,-0.0012152338167652488,-3.851980686187744
1403638521202829500,-0.008596569299697876,0.0279630608856678,0.053438812494277954,8.927481651306152,-0.057408250868320465,-3.794844627380371
1403638521207829500,-0.006427500396966934,0.023640453815460205,0.0654854103922844,9.000932693481445,-0.12233861535787582,-3.810739517211914
1403638521212829500,-0.007869686931371689,0.020824581384658813,0.07656992226839066,8.853954315185547,-0.17180867493152618,-3.7537732124328613
1403638521217829500,-0.009258713573217392,0.01525919884443283,0.08868221938610077,9.008454322814941,-0.1481073498725891,-3.7860496044158936
1403638521222829500,-0.009968165308237076,0.017327889800071716,0.09183888137340546,9.073615074157715,-0.13970065116882324,-3.7625041007995605
1403638521227829500,0.001988157629966736,0.011645324528217316,0.08992276340723038,9.097867965698242,-0.11575962603092194,-3.7050881385803223
1403638521232829500,0.004793204367160797,0.013086684048175812,0.0779295563697815,9.098241806030273,-0.14857707917690277,-3.7537009716033936
1403638521237829500,0.011165522038936615,0.013879925012588501,0.06699848175048828,9.26124095916748,-0.15719102323055267,-3.7789623737335205
1403638521242829500,0.013254232704639435,0.024396933615207672,0.06307793408632278,9.268614768981934,0.0061959316954016685,-3.802935838699341
1403638521247829500,0.012459523975849152,0.02998524159193039,0.074351966381073,9.040298461914062,0.1783161610364914,-3.7697083950042725
1403638521252829500,0.0018112212419509888,0.029981359839439392,0.074923574924469,8.951682090759277,0.3251735270023346,-3.7523632049560547
1403638521257829500,-0.0030636005103588104,0.019417401403188705,0.08249064534902573,9.106586456298828,0.19367031753063202,-3.7771174907684326
1403638521262829500,-0.011406943202018738,0.02356766164302826,0.07335126399993896,9.16324234008789,0.06223205849528313,-3.7776756286621094
1403638521267829500,-0.01629316806793213,0.018732376396656036,0.06842169910669327,9.122828483581543,-0.07630935311317444,-3.769819974899292
1403638521272829500,-0.012020798400044441,0.025107547640800476,0.06087900698184967,9.107126235961914,-0.1739729940891266,-3.8026092052459717
1403638521277829500,-0.002826116979122162,0.02446068823337555,0.06178898364305496,8.96798038482666,-0.20677439868450165,-3.7946813106536865
1403638521282829500,0.004946671426296234,0.02646106854081154,0.062526173889637,9.01685619354248,-0.11658163368701935,-3.8518919944763184
1403638521287829500,0.006935447454452515,0.02217799797654152,0.06516086310148239,8.902987480163574,-0.09073229134082794,-3.8443193435668945
1403638521292829500,0.006927106529474258,0.02635737508535385,0.0656500831246376,9.02574634552002,0.02364550344645977,-3.844146251678467
1403638521297829500,0.0012304000556468964,0.023035705089569092,0.06847302615642548,8.870783805847168,0.007738296873867512,-3.7948131561279297
1403638521302829500,-0.005833815783262253,0.017476066946983337,0.0664491206407547,8.887096405029297,-0.0006970003596507013,-3.7943639755249023
1403638521307829500,-0.003714054822921753,0.011800073087215424,0.07077082246541977,8.878947257995605,-0.12348511070013046,-3.7865755558013916
1403638521312829500,-0.0022777318954467773,0.011760890483856201,0.07294274866580963,8.951963424682617,-0.1403324156999588,-3.770392417907715
1403638521317829500,-0.0037156492471694946,0.008280735462903976,0.07707589119672775,8.984464645385742,-0.17288734018802643,-3.77059006690979
1403638521322829500,-0.001576445996761322,0.017374172806739807,0.07975652813911438,9.163727760314941,-0.1406567394733429,-3.7954084873199463
1403638521327829500,0.004074603319168091,0.02164890244603157,0.08605201542377472,8.959224700927734,-0.16524748504161835,-3.729755401611328
1403638521332829500,0.004124067723751068,0.020182766020298004,0.08249974250793457,9.089900970458984,-0.06745423376560211,-3.769989013671875
1403638521337829500,0.0033792704343795776,0.02920747548341751,0.08249150961637497,9.016439437866211,-0.1238987073302269,-3.8109240531921387
1403638521342829500,-0.001551114022731781,0.02994459867477417,0.08325963467359543,9.007997512817383,-0.059056248515844345,-3.851792335510254
1403638521347829500,-0.0015449337661266327,0.027868211269378662,0.09595131874084473,8.894305229187012,-0.03432955592870712,-3.8193273544311523
1403638521352829500,-0.00015478581190109253,0.022919636219739914,0.10223689675331116,8.926984786987305,-0.05886786803603172,-3.85979962348938
1403638521357829500,-0.0008822493255138397,0.020099841058254242,0.09650221467018127,8.943344116210938,-0.1165086030960083,-3.795132875442505
1403638521362829500,0.004081454128026962,0.013796307146549225,0.0943014845252037,9.00831127166748,-0.03521205112338066,-3.8272252082824707
1403638521367829500,0.001241970807313919,0.014486107975244522,0.09574504941701889,8.992000579833984,-0.05069085955619812,-3.8362514972686768
1403638521372829500,0.005487110465764999,0.011041093617677689,0.0950775295495987,9.097929954528809,-0.05961622670292854,-3.8363754749298096
1403638521377829500,0.006886772811412811,0.01808623969554901,0.0937788113951683,9.089375495910645,0.02179667353630066,-3.811816692352295
1403638521382829500,0.006879817694425583,0.013158965855836868,0.09031641483306885,9.03228759765625,0.07977576553821564,-3.7785274982452393
1403638521387829500,0.0026338063180446625,0.01802787184715271,0.08667492121458054,9.10615348815918,0.03898853063583374,-3.7864646911621094
1403638521392829500,0.001919865608215332,0.014599636197090149,0.07953371107578278,9.097846031188965,0.06266012787818909,-3.7864716053009033
1403638521397829500,-0.00015185773372650146,0.020183980464935303,0.07613900303840637,9.154945373535156,0.10410244017839432,-3.7617342472076416
1403638521402829500,-0.005798738449811935,0.01741219311952591,0.07920965552330017,9.049089431762695,0.03917467221617699,-3.7449374198913574
1403638521407829500,-0.01065761223435402,0.02299504354596138,0.0714549794793129,9.13895320892334,0.07117652148008347,-3.8021631240844727
1403638521412829500,-0.007104998454451561,0.025794420391321182,0.07555462419986725,9.008443832397461,-0.10809197276830673,-3.753544807434082
1403638521417829500,-0.009902872145175934,0.018739812076091766,0.07139454782009125,9.016802787780762,-0.1899683177471161,-3.7777345180511475
1403638521422829500,-0.0014548562467098236,0.018689323216676712,0.07557623088359833,8.984564781188965,-0.1815120279788971,-3.778233051300049
1403638521427829500,-0.002159915864467621,0.01874164491891861,0.07277056574821472,9.057820320129395,-0.03348909318447113,-3.818756580352783
1403638521432829500,-0.0028777718544006348,0.01599831134080887,0.07488375902175903,8.984256744384766,-0.024985341355204582,-3.819448709487915
1403638521437829500,-0.0028826668858528137,0.021572813391685486,0.07488074898719788,9.155549049377441,0.006705563049763441,-3.8686413764953613
1403638521442829500,-0.004340890794992447,0.025815635919570923,0.07838275283575058,8.967729568481445,-0.13984090089797974,-3.803361654281616
1403638521447829500,0.0006080083549022675,0.0229584202170372,0.08186490833759308,9.008670806884766,-0.14835694432258606,-3.770052433013916
1403638521452829500,0.003366474062204361,0.020085036754608154,0.07906639575958252,8.9600248336792,-0.08282538503408432,-3.786177635192871
1403638521457829500,0.004751596599817276,0.017285868525505066,0.07690194994211197,9.041370391845703,-0.0175126101821661,-3.7619576454162598
1403638521462829500,0.003257960081100464,0.011791981756687164,0.07975711673498154,8.894660949707031,-0.06704502552747726,-3.7127845287323
1403638521467829500,-0.0009235627949237823,0.007573172450065613,0.08187923580408096,9.090572357177734,-0.10045936703681946,-3.794675827026367
1403638521472829500,-0.0029984042048454285,0.020916007459163666,0.09033423662185669,8.984068870544434,-0.1406034380197525,-3.786813735961914
1403638521477829500,0.0006096251308917999,0.025134660303592682,0.09099265187978745,9.154963493347168,-0.075384221971035,-3.835737705230713
1403638521482829500,0.004110913723707199,0.030623577535152435,0.09652279317378998,9.04078197479248,-0.15704023838043213,-3.8034636974334717
1403638521487829500,0.0005510114133358002,0.03196609020233154,0.09786570072174072,8.999881744384766,-0.043339040130376816,-3.8188188076019287
1403638521492829500,-0.0009153522551059723,0.027091071009635925,0.1020912230014801,8.812789916992188,-0.01786421798169613,-3.7697665691375732
1403638521497829500,0.0026949718594551086,0.026369914412498474,0.10984895378351212,8.943191528320312,0.10459215939044952,-3.9247660636901855
1403638521502829500,-0.004330672323703766,0.029944337904453278,0.10422614216804504,8.894292831420898,0.17797932028770447,-3.901975393295288
1403638521507829500,-0.011375615373253822,0.018839534372091293,0.09707561880350113,8.943264961242676,0.21030819416046143,-3.893171548843384
1403638521512829500,-0.021919893100857735,0.015290804207324982,0.08940380811691284,8.894733428955078,0.16126707196235657,-3.81999135017395
1403638521517829500,-0.022533973678946495,0.005401536822319031,0.08882027864456177,8.894505500793457,-0.0106587503105402,-3.770103693008423
1403638521522829500,-0.02884797379374504,0.0019036456942558289,0.0988033190369606,9.00035572052002,-0.190554678440094,-3.7298483848571777
1403638521527829500,-0.018917826935648918,-0.0001467280089855194,0.10654337704181671,9.171274185180664,-0.34583163261413574,-3.7384743690490723
1403638521532829500,-0.0076293982565402985,0.012519486248493195,0.11201079189777374,9.187162399291992,-0.4269501864910126,-3.7306058406829834
1403638521537829500,0.0042860135436058044,0.018152981996536255,0.1167246550321579,9.18697738647461,-0.3611467182636261,-3.722154140472412
1403638521542829500,0.011190280318260193,0.03411083668470383,0.12715721130371094,9.154067039489746,-0.3112538158893585,-3.7624270915985107
1403638521547829500,0.020956773310899734,0.03822457790374756,0.13285870850086212,9.01511001586914,-0.15588359534740448,-3.7619502544403076
1403638521552829500,0.018808357417583466,0.03749068081378937,0.13497768342494965,9.08071517944336,0.09767215698957443,-3.834866523742676
1403638521557829500,0.010951824486255646,0.038194842636585236,0.1265024095773697,9.007620811462402,0.13080084323883057,-3.90878963470459
1403638521562829500,0.0017630904912948608,0.03684011101722717,0.1151466891169548,8.967238426208496,0.17015153169631958,-3.9253742694854736
1403638521567829500,0.0017982907593250275,0.027107425034046173,0.1081363782286644,8.804773330688477,0.19384151697158813,-3.876138687133789
1403638521572829500,-0.0009588673710823059,0.018674559891223907,0.09353619813919067,8.911139488220215,0.2755044102668762,-3.9003939628601074
1403638521577829500,-0.004510495811700821,0.010312519967556,0.07759345322847366,8.788930892944336,0.18515291810035706,-3.8519346714019775
1403638521582829500,-0.003675740212202072,0.007522229105234146,0.0580008402466774,9.058433532714844,0.1673080325126648,-3.8768391609191895
1403638521587829500,-0.005699995905160904,0.007596924901008606,0.03905660659074783,9.139960289001465,0.13516230881214142,-3.845005512237549
1403638521592829500,-0.0035478994250297546,0.011204488575458527,0.01876954734325409,9.163946151733398,0.26666638255119324,-3.754453420639038
1403638521597829500,-0.007115980610251427,0.009900771081447601,0.009879902005195618,9.00124740600586,0.2676047384738922,-3.6798338890075684
1403638521602829500,-0.011265667155385017,0.01119028776884079,-0.0004447624087333679,9.188985824584961,0.185698002576828,-3.6959898471832275
1403638521607829500,-0.019029315561056137,0.019617222249507904,-0.0004228949546813965,9.115148544311523,0.030866945162415504,-3.744952917098999
1403638521612829500,-0.021099766716361046,0.02947181463241577,0.005836233496665955,9.180523872375488,-0.050020575523376465,-3.794498920440674
1403638521617829500,-0.011230293661355972,0.033676475286483765,0.01635625958442688,9.009693145751953,-0.28600531816482544,-3.810736894607544
1403638521622829500,-0.002798028290271759,0.034946173429489136,0.027526594698429108,8.97687816619873,-0.3521757423877716,-3.8024895191192627
1403638521627829500,0.0027188584208488464,0.03273753076791763,0.0400954894721508,8.813545227050781,-0.4085414707660675,-3.785693407058716
1403638521632829500,0.006173476576805115,0.024236664175987244,0.051911361515522,8.911541938781738,-0.3179233968257904,-3.8597023487091064
1403638521637829500,0.011055998504161835,0.02357059344649315,0.06516771018505096,8.780927658081055,-0.31755173206329346,-3.884962797164917
1403638521642829500,0.016682878136634827,0.01805584505200386,0.07908179610967636,8.927652359008789,-0.19585727155208588,-3.9592299461364746
1403638521647829500,0.014469247311353683,0.02299000695347786,0.09168922156095505,8.81318187713623,-0.1629810780286789,-3.8943727016448975
1403638521652829500,0.013712327927350998,0.010340675711631775,0.0915725827217102,8.837477684020996,-0.00035670617944560945,-3.8444786071777344
1403638521657829500,0.0038556940853595734,0.008865565061569214,0.0858265683054924,9.057849884033203,0.023786013945937157,-3.844700813293457
1403638521662829500,0.003204982727766037,0.013124078512191772,0.08588632941246033,9.15483283996582,-0.002113728318363428,-3.803948402404785
1403638521667829500,-0.00029448047280311584,0.013947557657957077,0.07974067330360413,8.99165153503418,0.005162157583981752,-3.762392520904541
1403638521672829500,0.0005216673016548157,0.005541972815990448,0.07839973270893097,9.1309232711792,-0.06032933294773102,-3.7378952503204346
1403638521677829500,-0.0008042827248573303,0.01811441406607628,0.0756399929523468,9.2605562210083,0.0046771508641541,-3.786395788192749
1403638521682829500,-0.007145881652832031,0.019521333277225494,0.07913202047348022,9.186399459838867,0.03738050535321236,-3.6886606216430664
1403638521687829500,-0.011308018118143082,0.022931989282369614,0.07835505902767181,9.228002548217773,-0.06022896617650986,-3.753002166748047
1403638521692829500,-0.0042022764682769775,0.03482009470462799,0.0853562131524086,9.146632194519043,-0.11774448305368423,-3.7372169494628906
1403638521697829500,-0.004918232560157776,0.03559224307537079,0.0904097780585289,8.999675750732422,-0.17401373386383057,-3.711472988128662
1403638521702829500,-4.7847628593444824e-05,0.02988123893737793,0.09247706830501556,8.91878604888916,-0.19774913787841797,-3.744290828704834
1403638521707829500,0.004849165678024292,0.026221539825201035,0.09793198853731155,9.057740211486816,-0.17335057258605957,-3.834784984588623
1403638521712829500,0.0076236240565776825,0.022824488580226898,0.11055543273687363,8.983770370483398,-0.1648932695388794,-3.8439292907714844
1403638521717829500,0.013209030032157898,0.02499893307685852,0.11612192541360855,9.016481399536133,-0.058548301458358765,-3.8441619873046875
1403638521722829500,0.011716730892658234,0.01797918602824211,0.11670905351638794,8.926923751831055,0.01530430093407631,-3.827620029449463
1403638521727829500,0.007531121373176575,0.016578413546085358,0.10609617084264755,9.097945213317871,0.1784077286720276,-3.819215774536133
1403638521732829500,0.0018463507294654846,0.016620047390460968,0.10050931572914124,8.991734504699707,0.2517462968826294,-3.7536771297454834
1403638521737829500,-0.0044237710535526276,0.014471281319856644,0.08794192224740982,9.187705993652344,0.27558434009552,-3.8188459873199463
1403638521742829500,-0.010698765516281128,0.01457059383392334,0.07543615996837616,9.147063255310059,0.2670142650604248,-3.7949576377868652
1403638521747829500,-0.015531489625573158,0.020275291055440903,0.05594874545931816,9.260967254638672,0.2341804951429367,-3.8027217388153076
1403638521752829500,-0.021137790754437447,0.022423699498176575,0.04831119626760483,9.07373046875,0.08719520270824432,-3.770068645477295
1403638521757829500,-0.022461852058768272,0.019521065056324005,0.03147810697555542,9.188413619995117,-0.035842061042785645,-3.7943549156188965
1403638521762829500,-0.018215350806713104,0.02861294522881508,0.03649641200900078,9.000906944274902,-0.17406268417835236,-3.7534890174865723
1403638521767829500,-0.011162521317601204,0.021648991852998734,0.04443462938070297,8.952129364013672,-0.19785261154174805,-3.7694239616394043
1403638521772829500,-0.00487855076789856,0.018775485455989838,0.04999656602740288,8.944601058959961,-0.29501834511756897,-3.753626585006714
1403638521777829500,0.0006957799196243286,0.020130787044763565,0.05748722702264786,9.050189971923828,-0.27035924792289734,-3.7945072650909424
1403638521782829500,0.005525581538677216,0.022986579686403275,0.06582445651292801,8.960082054138184,-0.26132678985595703,-3.7541990280151367
1403638521787829500,0.009693838655948639,0.01735779643058777,0.07138217240571976,9.04171371459961,-0.23648115992546082,-3.8355636596679688
1403638521792829500,0.01526309922337532,0.028506051748991013,0.07556343823671341,8.992530822753906,-0.16313928365707397,-3.852583885192871
1403638521797829500,0.02013491839170456,0.028564192354679108,0.07694543898105621,9.000313758850098,-0.02457551844418049,-3.8848297595977783
1403638521802829500,0.021460674703121185,0.02852463349699974,0.07621657103300095,8.94356918334961,0.11411169916391373,-3.8359742164611816
1403638521807829500,0.01715870574116707,0.018665753304958344,0.07611129432916641,8.943731307983398,0.1621655374765396,-3.8106513023376465
1403638521812829500,0.010142151266336441,0.01731548085808754,0.07678566873073578,9.000767707824707,0.22643645107746124,-3.8107166290283203
1403638521817829500,0.0017633624374866486,0.013196129351854324,0.07832229137420654,9.008649826049805,0.18520262837409973,-3.7944540977478027
1403638521822829500,-0.0037714578211307526,0.013179630041122437,0.07698624581098557,9.024959564208984,0.05396394059062004,-3.794645071029663
1403638521827829500,-0.0043947212398052216,0.010424096137285233,0.07767344266176224,9.049381256103516,-0.07744482904672623,-3.7704710960388184
1403638521832829500,-7.615983486175537e-05,0.016706354916095734,0.08047744631767273,9.155007362365723,-0.060836173593997955,-3.794785261154175
1403638521837829500,-0.001509740948677063,0.015956416726112366,0.08332297205924988,9.016121864318848,-0.08413282036781311,-3.7622344493865967
1403638521842829500,-0.0007778555154800415,0.020798929035663605,0.08540353178977966,9.130642890930176,-0.05953128635883331,-3.753854751586914
1403638521847829500,-0.0035869553685188293,0.022992096841335297,0.09242360293865204,9.040742874145508,-0.09171120077371597,-3.769930362701416
1403638521852829500,-0.0042183659970760345,0.025795508176088333,0.08673030138015747,9.162923812866211,-0.07469768077135086,-3.827312469482422
1403638521857829500,0.0006895139813423157,0.0341508612036705,0.09016843885183334,9.040709495544434,-0.14762191474437714,-3.8275890350341797
1403638521862829500,0.008382178843021393,0.03129851818084717,0.08883879333734512,9.008252143859863,-0.21332959830760956,-3.827486515045166
1403638521867829500,0.013897877186536789,0.02566682919859886,0.08536192029714584,8.894423484802246,-0.3114528954029083,-3.8192291259765625
1403638521872829500,0.01733306050300598,0.027727875858545303,0.08393523097038269,8.984315872192383,-0.22169508039951324,-3.8355958461761475
1403638521877829500,0.025673918426036835,0.0172482468187809,0.08960418403148651,8.772197723388672,-0.24564485251903534,-3.762110710144043
1403638521882829500,0.022835899144411087,0.0060325562953948975,0.09378905594348907,8.984829902648926,-0.23023948073387146,-3.770411729812622
1403638521887829500,0.022801674902439117,0.008895151317119598,0.0944201871752739,8.951923370361328,-0.20610889792442322,-3.729736089706421
1403638521892829500,0.024913445115089417,0.007545430213212967,0.09647169709205627,9.130788803100586,-0.17320425808429718,-3.7051119804382324
1403638521897829500,0.027026906609535217,0.012421030551195145,0.1028389036655426,9.098023414611816,-0.18966056406497955,-3.6396920680999756
1403638521902829500,0.030529864132404327,0.01938755065202713,0.10277221351861954,9.179194450378418,-0.10883307456970215,-3.6469695568084717
1403638521907829500,0.03331778198480606,0.022233769297599792,0.10272352397441864,9.11375617980957,0.02211911976337433,-3.654721975326538
1403638521912829500,0.026333123445510864,0.023593835532665253,0.09433542191982269,9.187093734741211,0.18548017740249634,-3.7197275161743164
1403638521917829500,0.012966535985469818,0.028473731130361557,0.0851731151342392,9.040594100952148,0.3322610855102539,-3.703376293182373
1403638521922829500,0.009539730846881866,0.018749631941318512,0.0697096660733223,9.114508628845215,0.31554776430130005,-3.694793462753296
1403638521927829500,0.0040423683822155,0.022266875952482224,0.05791257321834564,9.155506134033203,0.20067954063415527,-3.7358222007751465
1403638521932829500,0.0012764036655426025,0.014515474438667297,0.03637706860899925,9.302306175231934,-0.028280923143029213,-3.7123401165008545
1403638521937829500,0.01253560185432434,0.017942849546670914,0.018170181661844254,9.57164192199707,-0.28969067335128784,-3.7049508094787598
1403638521942829500,0.032253190875053406,0.041063375771045685,0.007688276469707489,9.709833145141602,-0.4529598355293274,-3.7055838108062744
1403638521947829500,0.05047629773616791,0.07618135213851929,0.001484513282775879,9.456672668457031,-0.3701283931732178,-3.6963067054748535
1403638521952829500,0.063677579164505,0.10066594183444977,0.01137564331293106,9.229109764099121,-0.19680467247962952,-3.695363759994507
1403638521957829500,0.06629174947738647,0.11094757914543152,0.03464417904615402,8.773072242736816,-0.1634334921836853,-3.587698221206665
1403638521962829500,0.066084124147892,0.08266863971948624,0.05561501532793045,8.513010025024414,-0.21305467188358307,-3.4636549949645996
1403638521967829500,0.06875813007354736,0.0531114786863327,0.06163738667964935,8.514416694641113,-0.31101641058921814,-3.528681516647339
1403638521972829500,0.07150398194789886,0.028061632066965103,0.05791850388050079,8.563499450683594,-0.3925236761569977,-3.612147808074951
1403638521977829500,0.07909911870956421,0.003951273858547211,0.048189736902713776,8.351187705993652,-0.46676042675971985,-3.4495959281921387
1403638521982829500,0.08747285604476929,-0.03651147335767746,0.0335807129740715,8.677977561950684,-0.6966909170150757,-3.5889229774475098
1403638521987829500,0.09600025415420532,-0.029613304883241653,0.03224632889032364,9.027355194091797,-0.5588911771774292,-3.779451370239258
1403638521992829500,0.10857716202735901,-0.02321668714284897,0.06545507907867432,8.584440231323242,-0.23068581521511078,-3.533884286880493
1403638521997829500,0.10370203852653503,-0.03295574337244034,0.08067834377288818,8.773194313049316,0.08830136060714722,-3.7934410572052
1403638522002829500,0.08614318072795868,-0.036336299031972885,0.08498053252696991,8.878750801086426,0.4134921431541443,-3.80456280708313
1403638522007829500,0.06239597499370575,-0.04599354416131973,0.07913114130496979,9.340819358825684,0.49454304575920105,-4.187983989715576
1403638522012829500,0.030907995998859406,-0.053696125745773315,0.06449717283248901,9.364675521850586,0.6170629262924194,-4.275067329406738
1403638522017829500,0.008758530020713806,-0.05812302976846695,0.05136771500110626,10.032740592956543,0.5671056509017944,-4.494870662689209
1403638522022829500,0.0019324831664562225,-0.04242284595966339,0.03361354395747185,9.87646484375,0.23930597305297852,-4.218770503997803
1403638522027829500,-0.0013859644532203674,-0.0458175465464592,0.009280495345592499,9.745706558227539,0.09892360866069794,-4.198677062988281
1403638522032829500,-0.009091809391975403,-0.04471982270479202,-0.007659919559955597,9.413694381713867,0.010972580872476101,-4.027637481689453
1403638522037829500,-0.018148692324757576,-0.05677713826298714,-0.010700114071369171,9.41448974609375,0.11928846687078476,-4.115231037139893
1403638522042829500,-0.029193080961704254,-0.05102017894387245,0.0007277801632881165,9.577831268310547,0.030167603865265846,-4.2817864418029785
1403638522047829500,-0.03327152505517006,-0.047358427196741104,0.01437542587518692,9.618793487548828,-0.17388588190078735,-4.331896781921387
1403638522052829500,-0.032603830099105835,-0.04516664147377014,0.029833950102329254,9.341712951660156,-0.32774093747138977,-4.249716281890869
1403638522057829500,-0.018559662625193596,-0.06416583806276321,0.04151824116706848,9.431950569152832,-0.40781739354133606,-4.240363597869873
1403638522062829500,-0.003933709114789963,-0.08471231907606125,0.039829038083553314,9.480249404907227,-0.3580639064311981,-4.264188289642334
1403638522067829500,0.005700021982192993,-0.1093483567237854,0.03340686857700348,9.618753433227539,-0.1869817078113556,-4.2481818199157715
1403638522072829500,0.008372798562049866,-0.11477253586053848,0.027240019291639328,9.774449348449707,-0.0643572136759758,-4.313512802124023
1403638522077829500,0.012569233775138855,-0.12009644508361816,0.02520410716533661,10.002569198608398,-0.08973858505487442,-4.404426097869873
1403638522082829500,0.016071036458015442,-0.10883490741252899,0.02233148366212845,10.24659538269043,-0.2546963393688202,-4.495344638824463
1403638522087829500,0.027222514152526855,-0.10473232716321945,0.024388335645198822,10.131369590759277,-0.25583168864250183,-4.340513229370117
1403638522092829500,0.03199108690023422,-0.09932097792625427,0.027956753969192505,10.001420974731445,-0.3863169550895691,-4.272673606872559
1403638522097829500,0.04454631358385086,-0.09794643521308899,0.03918645530939102,9.896138191223145,-0.4691050052642822,-4.215035438537598
1403638522102829500,0.051454462110996246,-0.0915498211979866,0.056060872972011566,9.863699913024902,-0.4777703881263733,-4.115963935852051
1403638522107829500,0.06479321420192719,-0.08798055350780487,0.0848769024014473,9.8558988571167,-0.5015740990638733,-4.12379264831543
1403638522112829500,0.06759290397167206,-0.08524520695209503,0.1093098521232605,9.937348365783691,-0.35448092222213745,-4.189524173736572
1403638522117829500,0.07323059439659119,-0.07067061960697174,0.13142122328281403,10.026262283325195,-0.1991683691740036,-4.2059831619262695
1403638522122829500,0.07458743453025818,-0.051881711930036545,0.13817164301872253,10.123641014099121,-0.20712082087993622,-4.181425094604492
1403638522127829500,0.07811547070741653,-0.03727680817246437,0.14364105463027954,10.204752922058105,-0.2002294659614563,-4.335948467254639
1403638522132829500,0.0837017148733139,-0.01844121143221855,0.14299267530441284,10.123200416564941,-0.18372321128845215,-4.2220988273620605
1403638522137829500,0.09073564410209656,-0.006549503654241562,0.14308089017868042,9.968191146850586,-0.052994709461927414,-4.252193927764893
1403638522142829500,0.09076391160488129,0.0066384002566337585,0.13680291175842285,10.221843719482422,0.04428539052605629,-4.33512544631958
1403638522147829500,0.09139397740364075,0.02338774874806404,0.1283620297908783,10.009302139282227,-0.0053018853068351746,-4.187671184539795
1403638522152829500,0.09920379519462585,0.03808745741844177,0.1269083470106125,10.042244911193848,0.10825373977422714,-4.244035243988037
1403638522157829500,0.10412818193435669,0.044320449233055115,0.12698042392730713,10.043155670166016,-0.021476030349731445,-4.253464698791504
1403638522162829500,0.10132330656051636,0.06306435167789459,0.12002768367528915,10.164586067199707,0.16587477922439575,-4.309998512268066
1403638522167829500,0.10059903562068939,0.07910754531621933,0.12645086646080017,10.074483871459961,0.2563926577568054,-4.269857406616211
1403638522172829500,0.09362411499023438,0.09659060835838318,0.12368032336235046,10.25461483001709,0.2485392540693283,-4.32636833190918
1403638522177829500,0.08376836776733398,0.10847355425357819,0.1235637292265892,10.025917053222656,0.15838097035884857,-4.236379623413086
1403638522182829500,0.08384765684604645,0.11820502579212189,0.12073682248592377,10.181401252746582,0.1015079990029335,-4.259944438934326
1403638522187829500,0.08182971179485321,0.13002991676330566,0.12431975454092026,10.083581924438477,0.0537581741809845,-4.2031145095825195
1403638522192829500,0.07982376217842102,0.1341613382101059,0.11798205971717834,10.254682540893555,0.14332012832164764,-4.325105667114258
1403638522197829500,0.07910212129354477,0.14958633482456207,0.11648181080818176,10.295567512512207,0.11138327419757843,-4.26979398727417
1403638522202829500,0.08124500513076782,0.15452523529529572,0.1144326701760292,10.295233726501465,0.005164457485079765,-4.252289295196533
1403638522207829500,0.0840618908405304,0.16282229125499725,0.09971721470355988,10.279438972473145,-0.15792033076286316,-4.23627233505249
1403638522212829500,0.09312444925308228,0.16901971399784088,0.09687204658985138,10.271490097045898,-0.26345983147621155,-4.072245121002197
1403638522217829500,0.10151423513889313,0.17952607572078705,0.09704479575157166,10.100130081176758,-0.2709980309009552,-4.021297931671143
1403638522222829500,0.11342008411884308,0.17952127754688263,0.10199976712465286,10.3131103515625,-0.23027299344539642,-4.038356781005859
1403638522227829500,0.11819666624069214,0.19279351830482483,0.10264774411916733,10.369836807250977,-0.1892297863960266,-3.9564857482910156
1403638522232829500,0.12023855745792389,0.19629989564418793,0.10748546570539474,10.410073280334473,-0.11590058356523514,-4.004964828491211
1403638522237829500,0.11876675486564636,0.2074657827615738,0.10254881531000137,10.492229461669922,-0.19748954474925995,-4.030071258544922
1403638522242829500,0.12155574560165405,0.21582475304603577,0.10108090192079544,10.434527397155762,-0.23919816315174103,-3.9719951152801514
1403638522247829500,0.13284793496131897,0.2227935642004013,0.10189589112997055,10.40180492401123,-0.18246154487133026,-3.987598419189453
1403638522252829500,0.13706311583518982,0.23045693337917328,0.11259721219539642,10.353150367736816,-0.06799700111150742,-4.003750801086426
1403638522257829500,0.1320984661579132,0.2338923066854477,0.11535142362117767,10.394286155700684,-0.019483275711536407,-4.077247619628906
1403638522262829500,0.13067057728767395,0.23947085440158844,0.12287761270999908,10.247346878051758,-0.044943299144506454,-4.045488357543945
1403638522267829500,0.1349784880876541,0.24227093160152435,0.12634146213531494,10.280325889587402,-0.04527008906006813,-4.028762340545654
1403638522272829500,0.13431936502456665,0.24432964622974396,0.13052475452423096,10.239537239074707,-0.036893513053655624,-4.0533599853515625
1403638522277829500,0.13573923707008362,0.2436109036207199,0.129846453666687,10.304550170898438,0.03650819510221481,-4.045933246612549
1403638522282829500,0.1428208351135254,0.24217645823955536,0.13555872440338135,10.214529991149902,0.16696660220623016,-4.0295891761779785
1403638522287829500,0.1378900110721588,0.24220304191112518,0.12645795941352844,10.378155708312988,0.20807406306266785,-4.07900857925415
1403638522292829500,0.13503536581993103,0.24223963916301727,0.12422364205121994,10.345060348510742,0.2160530537366867,-4.095762252807617
1403638522297829500,0.13157574832439423,0.24157585203647614,0.1193327009677887,10.377462387084961,0.2813572883605957,-4.112168312072754
1403638522302829500,0.1288120448589325,0.2380855828523636,0.11237147450447083,10.280000686645508,0.1104467436671257,-4.136651515960693
1403638522307829500,0.13021841645240784,0.23808340728282928,0.10540367662906647,10.280137062072754,0.07690008729696274,-4.1695475578308105
1403638522312829500,0.13086062669754028,0.23878903687000275,0.10969869792461395,9.994609832763672,0.03672289848327637,-4.128383636474609
1403638522317829500,0.13226117193698883,0.22480015456676483,0.10691532492637634,10.044501304626465,-0.052184101194143295,-4.144771099090576
1403638522322829500,0.1329333484172821,0.21288876235485077,0.10541577637195587,9.94678020477295,-0.0606074184179306,-4.14521598815918
1403638522327829500,0.1322069764137268,0.19822071492671967,0.10189296305179596,9.938512802124023,-0.0028032155241817236,-4.096423625946045
1403638522332829500,0.12866659462451935,0.18848611414432526,0.10124976187944412,9.832914352416992,-0.07520753890275955,-4.096224784851074
1403638522337829500,0.12090699374675751,0.17599190771579742,0.09069758653640747,9.92285442352295,-0.14110861718654633,-4.080479621887207
1403638522342829500,0.12019357085227966,0.1711909919977188,0.0886046439409256,9.800129890441895,-0.1898149698972702,-3.9737601280212402
1403638522347829500,0.12088806927204132,0.15722349286079407,0.09225482493638992,9.849128723144531,-0.2382047474384308,-3.8916144371032715
