#timestamp [ns],w_RS_S_x [rad s^-1],w_RS_S_y [rad s^-1],w_RS_S_z [rad s^-1],a_RS_S_x [m s^-2],a_RS_S_y [m s^-2],a_RS_S_z [m s^-2]
1403638518097829500,0.0006981317007977319,0.01884955592153876,0.07819075048934597,9.087495666666666,-0.057205458333333334,-3.8245934999999998
1403638518102829500,-0.0041887902047863905,0.02234021442552742,0.07609635538695278,9.013945791666666,-0.057205458333333334,-3.800076875
1403638518107829500,-0.0020943951023931952,0.020943951023931952,0.07819075048934597,9.013945791666666,-0.032688833333333334,-3.800076875
1403638518112829500,-0.0041887902047863905,0.020943951023931952,0.07888888219014369,8.932223708333334,-0.024516625,-3.800076875
1403638518117829500,-0.0013962634015954637,0.0153588974175501,0.07888888219014369,8.989429166666666,-0.08989429166666667,-3.759215833333333
1403638518122829500,0.0006981317007977319,0.021642082724729686,0.08098327729253688,9.022118,-0.057205458333333334,-3.7837324583333327
1403638518127829500,-0.0020943951023931952,0.019547687622336492,0.08377580409572781,9.046634625,-0.016344416666666667,-3.8164212916666664
1403638518132829500,0.0,0.024434609527920613,0.08447393579652555,9.022118,-0.06537766666666667,-3.800076875
1403638518137829500,0.0,0.01815142422074103,0.08168140899333462,9.046634625,-0.04086104166666667,-3.7919046666666665
1403638518142829500,0.0006981317007977319,0.025132741228718346,0.07958701389094143,9.054806833333332,0.016344416666666667,-3.8245934999999998
1403638518147829500,0.0006981317007977319,0.02024581932313422,0.08237954069413235,9.005773583333333,0.0,-3.77556025
1403638518152829500,-0.0020943951023931952,0.021642082724729686,0.07819075048934597,9.038462416666666,-0.04086104166666667,-3.7837324583333327
1403638518157829500,-0.0027925268031909274,0.017453292519943295,0.07888888219014369,8.989429166666666,-0.024516625,-3.800076875
1403638518162829500,-0.0041887902047863905,0.019547687622336492,0.0767944870877505,9.062979041666667,-0.016344416666666667,-3.8245934999999998
1403638518167829500,-0.0041887902047863905,0.0153588974175501,0.07400196028455958,8.989429166666666,0.008172208333333333,-3.7919046666666665
1403638518172829500,-0.0013962634015954637,0.019547687622336492,0.07120943348136866,9.022118,-0.024516625,-3.77556025
1403638518177829500,-0.003490658503988659,0.023038346126325153,0.07330382858376185,9.005773583333333,-0.04086104166666667,-3.7837324583333327
1403638518182829500,-0.004886921905584123,0.023736477827122883,0.07260569688296412,9.005773583333333,-0.016344416666666667,-3.77556025
1403638518187829500,-0.003490658503988659,0.01815142422074103,0.07260569688296412,8.940395916666665,-0.07354987499999999,-3.751043625
1403638518192829500,-0.0006981317007977319,0.016057029118347832,0.0747000919853573,9.054806833333332,0.032688833333333334,-3.8082490833333327
1403638518197829500,-0.0013962634015954637,0.017453292519943295,0.07819075048934597,8.981256958333333,-0.04903325,-3.8082490833333327
1403638518202829500,-0.0020943951023931952,0.01884955592153876,0.07539822368615504,9.1201845,-0.04086104166666667,-3.8164212916666664
1403638518207829500,0.0027925268031909274,0.02024581932313422,0.07958701389094143,8.97308475,-0.10623870833333333,-3.751043625
1403638518212829500,-0.0006981317007977319,0.024434609527920613,0.0747000919853573,9.095667875,-0.04903325,-3.7919046666666665
1403638518217829500,-0.003490658503988659,0.02583087292951608,0.07819075048934597,8.9240515,-0.057205458333333334,-3.742871416666666
1403638518222829500,0.0,0.02024581932313422,0.0767944870877505,9.005773583333333,-0.04086104166666667,-3.8082490833333327
1403638518227829500,0.0020943951023931952,0.017453292519943295,0.08168140899333462,8.964912541666667,-0.04086104166666667,-3.7919046666666665
1403638518232829500,-0.0020943951023931952,0.021642082724729686,0.07958701389094143,9.128356708333332,-0.008172208333333333,-3.857282333333333
1403638518237829500,-0.003490658503988659,0.021642082724729686,0.08168140899333462,9.038462416666666,-0.04903325,-3.8409379166666664
1403638518242829500,-0.0024603232741355896,0.02657373808324337,0.08168278634548187,9.06765365600586,-0.005151621997356415,-3.8227055072784424
1403638518247829500,-0.004558384418487549,0.02305762656033039,0.08310079574584961,8.86347484588623,-0.005695443134754896,-3.7820515632629395
1403638518252829500,-0.0037980452179908752,0.01739100180566311,0.07752098143100739,9.002382278442383,0.019024237990379333,-3.847445249557495
1403638518257829500,-0.0038634836673736572,0.019471032544970512,0.07541113346815109,8.977838516235352,-0.05402642861008644,-3.75747013092041
1403638518262829500,-0.005981877446174622,0.013974322006106377,0.07400011271238327,9.06779956817627,0.019033802673220634,-3.7902588844299316
1403638518267829500,-0.0024231821298599243,0.01747390441596508,0.08030541241168976,8.986011505126953,0.0026955201756209135,-3.7656500339508057
1403638518272829500,-0.001008063554763794,0.021671494469046593,0.0747174397110939,9.08371639251709,0.03544911742210388,-3.830894708633423
1403638518277829500,-0.0052549391984939575,0.02304033376276493,0.07821555435657501,8.977656364440918,0.003048843238502741,-3.7900807857513428
1403638518282829500,-0.005231797695159912,0.02163339965045452,0.07193582504987717,9.043069839477539,-0.02179197035729885,-3.790026903152466
1403638518287829500,-0.0010481029748916626,0.02160688303411007,0.0740317702293396,8.896087646484375,-0.06231721490621567,-3.7410900592803955
1403638518292829500,-0.003151245415210724,0.013917066156864166,0.07335931062698364,9.010550498962402,-0.03822006285190582,-3.7820334434509277
1403638518297829500,-0.003110937774181366,0.020204534754157066,0.07331223785877228,9.059597969055176,-0.05438778176903725,-3.798185110092163
1403638518302829500,-0.004536435008049011,0.02309892140328884,0.07749971747398376,9.067647933959961,-0.0461813285946846,-3.81463885307312
1403638518307829500,-0.0010992735624313354,0.023064611479640007,0.07753944396972656,8.985873222351074,-0.07025529444217682,-3.7900264263153076
1403638518312829500,0.0003919750452041626,0.02093641646206379,0.07539832592010498,9.051121711730957,-0.05438676103949547,-3.7899539470672607
1403638518317829500,-0.0003228187561035156,0.022303080186247826,0.08032514154911041,8.928872108459473,-0.07885190844535828,-3.781905174255371
1403638518322829500,-0.0003791898488998413,0.023674650117754936,0.07958658039569855,9.084092140197754,-0.029735349118709564,-3.822852849960327
1403638518327829500,-0.0031642690300941467,0.025138670578598976,0.07888997346162796,8.953481674194336,-0.08689243346452713,-3.757479667663574
1403638518332829500,-0.0003306344151496887,0.016093967482447624,0.08174138516187668,9.051380157470703,-0.03821728751063347,-3.82283878326416
1403638518337829500,-0.00315944105386734,0.020217666402459145,0.08447498083114624,9.043193817138672,-0.07048909366130829,-3.839029550552368
1403638518342829500,-0.003159858286380768,0.02022532932460308,0.08094558119773865,9.018692970275879,-0.021649299189448357,-3.790177345275879
1403638518347829500,-0.0017423033714294434,0.02303936518728733,0.08101236820220947,9.034955978393555,-0.021609505638480186,-3.7655749320983887
1403638518352829500,-0.0010499879717826843,0.020962005481123924,0.07817722856998444,9.034823417663574,-0.0055970908142626286,-3.757380962371826
1403638518357829500,-0.0045436471700668335,0.022326471284031868,0.07958400994539261,9.002391815185547,0.011126569472253323,-3.7901980876922607
1403638518362829500,-0.003850400447845459,0.01878914050757885,0.07757526636123657,9.035036087036133,-0.04613518342375755,-3.7983689308166504
1403638518367829500,-0.00314369797706604,0.020937511697411537,0.07401395589113235,9.026824951171875,-0.02153254672884941,-3.8064143657684326
1403638518372829500,-0.004553161561489105,0.017495008185505867,0.07678962498903275,9.034969329833984,-0.04643111675977707,-3.7902112007141113
1403638518377829500,-0.0024164170026779175,0.02093944512307644,0.0810084193944931,8.994144439697266,0.019158879294991493,-3.7900888919830322
1403638518382829500,-0.0010570958256721497,0.020922919735312462,0.08167554438114166,8.994087219238281,-0.04615139216184616,-3.7818562984466553
1403638518387829500,-0.0024585872888565063,0.022346215322613716,0.0754423588514328,9.002249717712402,-0.021499762311577797,-3.7901089191436768
1403638518392829500,-0.003827124834060669,0.01883227936923504,0.08034093677997589,8.961511611938477,-0.01352520752698183,-3.8066201210021973
1403638518397829500,-0.005238533020019531,0.019525518640875816,0.07538846135139465,9.035054206848145,-0.005395421292632818,-3.790159225463867
1403638518402829500,-0.0024792104959487915,0.021613558754324913,0.07890662550926208,8.969606399536133,-0.04623499512672424,-3.81461501121521
1403638518407829500,-0.0010233744978904724,0.021673044189810753,0.07683801651000977,9.075739860534668,-0.021470701321959496,-3.822777509689331
1403638518412829500,0.0003697723150253296,0.019579200074076653,0.0795585960149765,8.96145248413086,-0.03809338063001633,-3.773756504058838
1403638518417829500,-0.002451077103614807,0.016724171116948128,0.07332278788089752,9.051334381103516,-0.03806161880493164,-3.7818260192871094
1403638518422829500,-0.0017669126391410828,0.018779819831252098,0.07825601100921631,8.961295127868652,-0.08711856603622437,-3.741001605987549
1403638518427829500,-0.003130793571472168,0.018146539106965065,0.07260062545537949,9.084083557128906,-0.005333065986633301,-3.7574830055236816
1403638518432829500,0.00035100430250167847,0.016758834943175316,0.07679992914199829,8.994125366210938,-0.05439595878124237,-3.7655892372131348
1403638518437829500,-0.0003262162208557129,0.01956065557897091,0.07684945315122604,9.026748657226562,-0.04617220163345337,-3.8145792484283447
1403638518442829500,-0.0038734525442123413,0.0209165308624506,0.07889042794704437,8.969667434692383,-0.05422240123152733,-3.7900350093841553
1403638518447829500,-0.0017566084861755371,0.02584959752857685,0.07681562006473541,9.084088325500488,0.027316119521856308,-3.7818005084991455
1403638518452829500,-0.0003513246774673462,0.021654533222317696,0.08102492988109589,8.9533109664917,-0.0705585703253746,-3.781870126724243
1403638518457829500,-0.0010307729244232178,0.018832193687558174,0.07745623588562012,9.075844764709473,-0.05442735552787781,-3.806509017944336
1403638518462829500,-0.0024534016847610474,0.020191071555018425,0.07891388982534409,8.953327178955078,-0.07864125818014145,-3.757472276687622
1403638518467829500,-0.002467423677444458,0.01603575609624386,0.07685647904872894,9.059613227844238,-0.02168317697942257,-3.8064627647399902
1403638518472829500,-0.003168448805809021,0.0223540011793375,0.07958140224218369,9.010478019714355,-0.06230180710554123,-3.7819108963012695
1403638518477829500,0.004578754305839539,0.018881088122725487,0.08028838783502579,9.100329399108887,0.027078598737716675,-3.839134931564331
1403638518482829500,-0.001723647117614746,0.026507532224059105,0.07961078733205795,8.977775573730469,-0.03784885257482529,-3.790076971054077
1403638518487829500,-0.0003810003399848938,0.021630866453051567,0.07817531377077103,9.010445594787598,-0.005128111224621534,-3.7492518424987793
1403638518492829500,-0.00035309791564941406,0.020226815715432167,0.07962305098772049,8.896218299865723,-0.046119850128889084,-3.757499933242798
1403638518497829500,-0.0017677098512649536,0.018838299438357353,0.07333636283874512,9.051222801208496,-0.022067969664931297,-3.806480646133423
1403638518502829500,-0.004533626139163971,0.020907996222376823,0.07753176987171173,8.98597526550293,-0.037845056504011154,-3.798328161239624
1403638518507829500,-0.0010297521948814392,0.018180010840296745,0.07820869982242584,9.116613388061523,-0.029759297147393227,-3.8391106128692627
1403638518512829500,-0.002467609941959381,0.023046093061566353,0.07956114411354065,9.034913063049316,-0.062422722578048706,-3.798062562942505
1403638518517829500,-0.0017668753862380981,0.020941918715834618,0.07752743363380432,8.994132041931152,-0.01358026172965765,-3.7982592582702637
1403638518522829500,0.00040143728256225586,0.02368391491472721,0.07264262437820435,8.969584465026855,-0.03770289197564125,-3.757359504699707
1403638518527829500,-0.0017782524228096008,0.018138384446501732,0.07399670034646988,9.010485649108887,-0.005625932011753321,-3.7901628017425537
1403638518532829500,-0.005945861339569092,0.01745968870818615,0.0754503607749939,8.986138343811035,-0.03006172925233841,-3.757584571838379
1403638518537829500,-0.0024234801530838013,0.01812713034451008,0.07750378549098969,9.075855255126953,-0.013568214140832424,-3.773766040802002
1403638518542829500,-0.0038654953241348267,0.023746108636260033,0.08169388771057129,9.05126667022705,-0.03751400113105774,-3.7982163429260254
1403638518547829500,-0.0031539499759674072,0.021664468571543694,0.07891571521759033,9.034780502319336,-0.06269361078739166,-3.790093421936035
1403638518552829500,0.0003912895917892456,0.023731088265776634,0.07819230109453201,8.97770881652832,-0.062363140285015106,-3.798190116882324
1403638518557829500,0.0010264292359352112,0.015309417620301247,0.07751619070768356,8.969654083251953,-0.07075531035661697,-3.7573599815368652
1403638518562829500,-0.003163933753967285,0.019484730437397957,0.07470358908176422,9.03519058227539,-0.013264906592667103,-3.8063483238220215
1403638518567829500,-0.00313626229763031,0.021646013483405113,0.08239579945802689,9.027016639709473,-0.005585554521530867,-3.7983741760253906
1403638518572829500,0.00034265220165252686,0.020301682874560356,0.07613495737314224,9.084099769592285,0.01916618086397648,-3.8227689266204834
1403638518577829500,-0.0017556697130203247,0.02025696448981762,0.08378009498119354,8.985946655273438,-0.013456500135362148,-3.798351287841797
1403638518582829500,-0.0024025291204452515,0.023728685453534126,0.07751798629760742,8.945025444030762,0.011214260943233967,-3.806481122970581
1403638518587829500,-0.003173351287841797,0.02020392380654812,0.07956353574991226,8.920584678649902,-0.04635204002261162,-3.765662670135498
1403638518592829500,-0.00388924777507782,0.022327659651637077,0.07681442052125931,8.994150161743164,-0.021571902558207512,-3.765681266784668
1403638518597829500,0.003180399537086487,0.018847716972231865,0.08034062385559082,8.961403846740723,-0.06258145719766617,-3.7738564014434814
1403638518602829500,-0.0017142891883850098,0.025120219215750694,0.07821794599294662,9.092151641845703,0.0029650211799889803,-3.8146491050720215
1403638518607829500,-0.001092180609703064,0.02373337559401989,0.07892145961523056,8.994014739990234,-0.02973337657749653,-3.8145110607147217
1403638518612829500,-0.0031380951404571533,0.02097431756556034,0.07260166108608246,9.07577133178711,0.0028828054200857878,-3.7982184886932373
1403638518617829500,-0.003144875168800354,0.02160518430173397,0.07607720792293549,8.92878246307373,-0.02171800658106804,-3.7655820846557617
1403638518622829500,-0.003823697566986084,0.017406901344656944,0.07472290098667145,9.059547424316406,-0.030012808740139008,-3.7982230186462402
1403638518627829500,-0.00523771345615387,0.019519319757819176,0.07962571084499359,8.969725608825684,-0.04617979750037193,-3.749276876449585
1403638518632829500,-0.0031620264053344727,0.0195681881159544,0.07754535228013992,9.06779956817627,-0.04608618840575218,-3.8064913749694824
1403638518637829500,-0.0010735243558883667,0.023047832772135735,0.0754428431391716,8.953170776367188,-0.07866133749485016,-3.798309564590454
1403638518642829500,-0.0031059831380844116,0.024430176243185997,0.07678879797458649,9.067554473876953,-0.04602770507335663,-3.8146159648895264
1403638518647829500,0.002438865602016449,0.02511783502995968,0.08307655900716782,8.953149795532227,-0.07050555944442749,-3.814542770385742
1403638518652829500,-0.0010428056120872498,0.01955842785537243,0.07817958295345306,9.06777572631836,0.002742469310760498,-3.7982165813446045
1403638518657829500,-0.0003703013062477112,0.018086446449160576,0.08032579720020294,8.977936744689941,-0.054298412054777145,-3.7900288105010986
1403638518662829500,-0.00033311545848846436,0.019526561722159386,0.08102503418922424,9.100381851196289,-0.029999081045389175,-3.8064212799072266
1403638518667829500,-0.001063033938407898,0.01954355277121067,0.08166623115539551,8.994222640991211,-0.05421122908592224,-3.765589952468872
1403638518672829500,-0.002445034682750702,0.020286014303565025,0.08099723607301712,9.092212677001953,-0.01360034104436636,-3.8065378665924072
1403638518677829500,-0.0031301379203796387,0.022345686331391335,0.07679848372936249,8.994056701660156,-0.013260671868920326,-3.7982876300811768
1403638518682829500,-0.0010571032762527466,0.019503982737660408,0.08233679831027985,9.051308631896973,-0.005520935636013746,-3.7901504039764404
1403638518687829500,-0.002475947141647339,0.025107214227318764,0.07964456081390381,9.018573760986328,0.0029641450382769108,-3.781867265701294
1403638518692829500,-0.0031199008226394653,0.019558576866984367,0.07683553546667099,9.051406860351562,-0.005433608777821064,-3.757424831390381
1403638518697829500,-0.0031522512435913086,0.01953384093940258,0.07611522823572159,8.99409294128418,-0.05421283468604088,-3.790144681930542
1403638518702829500,-0.004550077021121979,0.020243098959326744,0.07817701250314713,9.059442520141602,-0.005325107369571924,-3.8228683471679688
1403638518707829500,-0.004534460604190826,0.02094184421002865,0.0767960250377655,8.98603630065918,-0.054389532655477524,-3.79825496673584
1403638518712829500,-0.0038418173789978027,0.017449552193284035,0.07615204155445099,9.043119430541992,-0.05448000133037567,-3.814603090286255
1403638518717829500,-0.0038424134254455566,0.02303171344101429,0.07334800809621811,9.018686294555664,-0.045949649065732956,-3.7818148136138916
1403638518722829500,-0.0031371936202049255,0.019537335261702538,0.07469788938760757,9.02684211730957,-0.021794160827994347,-3.7819387912750244
1403638518727829500,-0.004535257816314697,0.017422126606106758,0.07752406597137451,9.010567665100098,0.01106078177690506,-3.7901575565338135
1403638518732829500,-0.0017677992582321167,0.01885916478931904,0.07890062034130096,8.985936164855957,-0.07895322144031525,-3.7819221019744873
1403638518737829500,-0.0024330317974090576,0.02304517664015293,0.07540170848369598,9.059377670288086,-0.021449526771903038,-3.7819294929504395
1403638518742829500,-0.0038380101323127747,0.018840977922081947,0.07962558418512344,9.067665100097656,-0.046165045350790024,-3.7655527591705322
1403638518747829500,-0.0017489492893218994,0.02654704637825489,0.08169581741094589,9.010385513305664,-0.06236233562231064,-3.7737503051757812
1403638518752829500,-0.0010525286197662354,0.02092335931956768,0.0830814316868782,9.002177238464355,-0.07070314139127731,-3.7901058197021484
1403638518757829500,-0.002442404627799988,0.02089797519147396,0.08101443201303482,9.043261528015137,-0.021679380908608437,-3.814546585083008
1403638518762829500,-0.0031482577323913574,0.01812518946826458,0.08166825771331787,8.969712257385254,-0.07075081765651703,-3.7819414138793945
1403638518767829500,-0.0038477256894111633,0.02444230578839779,0.07887710630893707,9.10041332244873,0.003083014627918601,-3.8145744800567627
1403638518772829500,-0.0038669705390930176,0.02306041680276394,0.0803404450416565,8.961520195007324,-0.030040554702281952,-3.7983059883117676
1403638518777829500,-0.0038208961486816406,0.018868165090680122,0.07889726758003235,9.051345825195312,-0.0462256483733654,-3.7983410358428955
1403638518782829500,0.001045331358909607,0.02231837995350361,0.08026686310768127,8.969544410705566,-0.062215209007263184,-3.7900567054748535
1403638518787829500,-0.001752212643623352,0.020901119336485863,0.07821424305438995,9.075896263122559,0.0029209197964519262,-3.8227455615997314
1403638518792829500,-0.00035240501165390015,0.020922290161252022,0.07962937653064728,8.945067405700684,-0.013608956709504128,-3.7901782989501953
1403638518797829500,-0.0038357824087142944,0.018176568672060966,0.07331252098083496,9.067713737487793,0.02740424871444702,-3.831012487411499
1403638518802829500,-0.005268774926662445,0.020933745428919792,0.07681644707918167,8.96152400970459,-0.00528750428929925,-3.798313856124878
1403638518807829500,-0.0017175301909446716,0.02093619294464588,0.07471682131290436,9.051301002502441,-0.021840235218405724,-3.806424140930176
1403638518812829500,-0.002437993884086609,0.019525667652487755,0.07889953255653381,8.98583984375,-0.07044743746519089,-3.7736687660217285
1403638518817829500,-0.0038566142320632935,0.018180059269070625,0.07893721014261246,9.059467315673828,-0.03791274130344391,-3.7900822162628174
1403638518822829500,-0.005259424448013306,0.016707459464669228,0.07682222127914429,8.912426948547363,-0.038218602538108826,-3.78204345703125
1403638518827829500,-0.001740187406539917,0.01742330752313137,0.07469719648361206,9.059490203857422,-0.038318343460559845,-3.79011607170105
1403638518832829500,-0.0017526671290397644,0.022349899634718895,0.07962298393249512,8.936927795410156,-0.05392281711101532,-3.806394338607788
1403638518837829500,-0.0031156763434410095,0.018886638805270195,0.07679426670074463,9.051342964172363,-0.02977229468524456,-3.814593553543091
1403638518842829500,-0.002452559769153595,0.023728063330054283,0.07472901046276093,8.994102478027344,-0.06234970688819885,-3.7899811267852783
1403638518847829500,-0.001078389585018158,0.019518015906214714,0.0782412514090538,9.067669868469238,-0.04637635499238968,-3.7900638580322266
1403638518852829500,-0.00032773613929748535,0.014631440863013268,0.07957162708044052,8.985952377319336,-0.05427270755171776,-3.814567804336548
1403638518857829500,0.0017765909433364868,0.013941330835223198,0.07608647644519806,9.092205047607422,-0.04622762277722359,-3.7982332706451416
1403638518862829500,-0.0017586275935173035,0.01952436752617359,0.07405724376440048,8.961498260498047,-0.03781263530254364,-3.7655906677246094
1403638518867829500,-0.003873869776725769,0.018865061923861504,0.07608409225940704,9.034991264343262,-0.038144126534461975,-3.7982802391052246
1403638518872829500,-0.002445131540298462,0.023077933117747307,0.07890889793634415,9.010526657104492,-0.0297170951962471,-3.8145911693573
1403638518877829500,-0.0031450241804122925,0.020259244367480278,0.08245096355676651,9.026867866516113,-0.07888717204332352,-3.781991720199585
1403638518882829500,-0.004542335867881775,0.02366860769689083,0.07958512008190155,9.010415077209473,-0.054099079221487045,-3.7982277870178223
1403638518887829500,-0.00104580819606781,0.020217986777424812,0.07886357605457306,9.034998893737793,-0.05442772060632706,-3.7900547981262207
1403638518892829500,-0.003167778253555298,0.023063408210873604,0.07821212708950043,9.05128002166748,-0.04613204300403595,-3.8064403533935547
1403638518897829500,-0.00036147236824035645,0.018846867606043816,0.07890000194311142,9.002283096313477,-0.07065276056528091,-3.781933546066284
1403638518902829500,-0.0003093332052230835,0.018835561349987984,0.07752089202404022,9.002466201782227,-0.013354350812733173,-3.7900853157043457
1403638518907829500,0.001035533845424652,0.0195291917771101,0.07543668895959854,9.01863956451416,-0.03805643692612648,-3.790083646774292
1403638518912829500,-0.0038405433297157288,0.025823203846812248,0.07400686293840408,9.059398651123047,-0.045949067920446396,-3.806354522705078
1403638518917829500,-0.00314900279045105,0.023050228133797646,0.07612007856369019,8.961498260498047,-0.03796231746673584,-3.790121078491211
1403638518922829500,-0.003852538764476776,0.025130366906523705,0.0733233243227005,9.059518814086914,-0.021700555458664894,-3.7983005046844482
1403638518927829500,-0.0024645626544952393,0.01883273385465145,0.07819750905036926,9.010354042053223,-0.029860423877835274,-3.814624071121216
1403638518932829500,-0.003106027841567993,0.02021743170917034,0.07821395993232727,9.04325008392334,-0.013411668129265308,-3.8146355152130127
1403638518937829500,-0.006671130657196045,0.018132353201508522,0.08032181113958359,8.928841590881348,-0.06260693818330765,-3.765638828277588
1403638518942829500,-0.0010645538568496704,0.021661004051566124,0.07544317096471786,9.108412742614746,-0.062493033707141876,-3.8226802349090576
1403638518947829500,0.0010602772235870361,0.022342847660183907,0.08029439300298691,8.97766399383545,-0.09503638744354248,-3.7982137203216553
1403638518952829500,-0.001018822193145752,0.020933957770466805,0.07885418832302094,9.051409721374512,-0.013556896708905697,-3.7982943058013916
1403638518957829500,-0.00454305112361908,0.02230588160455227,0.07750473916530609,8.9778413772583,-0.005371983628720045,-3.7574281692504883
1403638518962829500,-0.0024694353342056274,0.01743055321276188,0.07614719867706299,9.035005569458008,0.010921686887741089,-3.7982823848724365
1403638518967829500,-0.001763179898262024,0.019527865573763847,0.08030186593532562,9.002180099487305,-0.07869773358106613,-3.781916618347168
1403638518972829500,-0.004512280225753784,0.020975938066840172,0.07818852365016937,9.092243194580078,-0.029679199680685997,-3.8227198123931885
1403638518977829500,-0.0052300021052360535,0.019553029909729958,0.07612729072570801,8.977877616882324,-0.05414566025137901,-3.814558267593384
1403638518982829500,-0.003888264298439026,0.019559485837817192,0.07748225331306458,9.100302696228027,0.01088590919971466,-3.830954074859619
1403638518987829500,-0.0003509819507598877,0.021594485267996788,0.07818620651960373,8.986039161682129,0.0026755870785564184,-3.7900538444519043
1403638518992829500,-0.0024051666259765625,0.02231702022254467,0.07614469528198242,9.026823997497559,-0.038079582154750824,-3.798269748687744
1403638518997829500,-0.0010529980063438416,0.02372431568801403,0.07825179398059845,8.945002555847168,-0.07018917798995972,-3.7737579345703125
1403638519002829500,-0.0024657398462295532,0.01958560012280941,0.08096469938755035,9.043237686157227,-0.005249244160950184,-3.7983744144439697
1403638519007829500,-0.003152094781398773,0.020922759547829628,0.07818789035081863,9.002283096313477,-0.06279276311397552,-3.7574052810668945
1403638519012829500,-0.0017159730195999146,0.01882789470255375,0.07403016090393066,9.141098976135254,0.0027060345746576786,-3.8308982849121094
1403638519017829500,0.0010452941060066223,0.0223382618278265,0.07682305574417114,8.953311920166016,-0.005127453710883856,-3.814610481262207
1403638519022829500,-0.00034293532371520996,0.025142142549157143,0.07749132812023163,9.067482948303223,-0.0297376848757267,-3.8226964473724365
1403638519027829500,-0.001048170030117035,0.02862759493291378,0.07683082669973373,8.977781295776367,-0.004905632231384516,-3.82262921333313
1403638519032829500,-0.002450890839099884,0.024426480755209923,0.08241204917430878,9.002496719360352,-0.03805044665932655,-3.7819952964782715
1403638519037829500,-0.003173321485519409,0.022306198254227638,0.07957234978675842,9.010499954223633,0.019158586859703064,-3.80653715133667
1403638519042829500,-0.0017401129007339478,0.016027482226490974,0.08378586173057556,9.035043716430664,-0.03827511891722679,-3.790180206298828
1403638519047829500,-0.004532806575298309,0.02021184377372265,0.07684208452701569,8.994014739990234,-0.07040662318468094,-3.8146305084228516
1403638519052829500,-0.002464689314365387,0.01746499352157116,0.07886624336242676,9.010370254516602,-0.10321129113435745,-3.8146133422851562
1403638519057829500,-0.001745849847793579,0.02377244271337986,0.07682368159294128,9.067582130432129,-0.04597834497690201,-3.814436435699463
1403638519062829500,-0.0003486350178718567,0.022337710484862328,0.0817178338766098,8.985941886901855,-0.030073191970586777,-3.7901270389556885
1403638519067829500,-0.00031925737857818604,0.025090394541621208,0.07400275766849518,9.051298141479492,-0.005299916956573725,-3.781930685043335
1403638519072829500,-0.0024422407150268555,0.020216969773173332,0.07891374081373215,8.98609447479248,-0.013542073778808117,-3.7492733001708984
1403638519077829500,-0.0045712292194366455,0.01883331872522831,0.07890570908784866,9.026932716369629,-0.013361506164073944,-3.781977891921997
1403638519082829500,-0.0017674118280410767,0.01954369805753231,0.0795639231801033,8.985825538635254,-0.07079082727432251,-3.7901041507720947
1403638519087829500,-0.004514217376708984,0.02444945089519024,0.07754671573638916,9.075852394104004,0.011186296120285988,-3.8309969902038574
1403638519092829500,-0.0010496824979782104,0.02376554347574711,0.07894270122051239,8.953224182128906,-0.029837716370821,-3.7901439666748047
1403638519097829500,-0.0003383904695510864,0.021639717742800713,0.07817289233207703,9.059447288513184,-0.03799765929579735,-3.7900476455688477
1403638519102829500,-0.00037767738103866577,0.022284282371401787,0.07683147490024567,8.93700122833252,-0.01348541397601366,-3.7738122940063477
1403638519107829500,-0.0003333240747451782,0.01810956932604313,0.07331866025924683,9.051397323608398,-0.005603662226349115,-3.806469440460205
1403638519112829500,-0.004534006118774414,0.020931357517838478,0.0774884894490242,8.95327377319336,0.002830818295478821,-3.773921251296997
1403638519117829500,-0.005249686539173126,0.017505766823887825,0.07682164013385773,9.067841529846191,0.010927528142929077,-3.8147079944610596
1403638519122829500,-0.004545368254184723,0.019544387236237526,0.07892562448978424,9.010404586791992,-0.021819278597831726,-3.806445837020874
1403638519127829500,-0.0038239657878875732,0.018149198964238167,0.07752405107021332,9.084035873413086,0.002825342118740082,-3.80644154548645
1403638519132829500,-0.003856055438518524,0.02161109261214733,0.07890349626541138,8.920574188232422,-0.08670741319656372,-3.765571355819702
1403638519137829500,-0.001732267439365387,0.023032905533909798,0.07539299130439758,9.051108360290527,-0.06243279576301575,-3.8145322799682617
1403638519142829500,-0.0017529502511024475,0.0216194000095129,0.07752463221549988,8.969640731811523,-0.07054352760314941,-3.806419849395752
1403638519147829500,0.0010504946112632751,0.019548876211047173,0.07472597807645798,9.051395416259766,-0.029918033629655838,-3.798295259475708
1403638519152829500,-0.005224749445915222,0.025119131430983543,0.0761115700006485,9.034981727600098,-0.013222265057265759,-3.798217535018921
1403638519157829500,-0.0045690834522247314,0.023060960695147514,0.0803266316652298,8.969696044921875,-0.013731549493968487,-3.7901694774627686
1403638519162829500,-0.0059371814131736755,0.024440715089440346,0.07958771288394928,9.002285957336426,-0.02158796600997448,-3.806452751159668
1403638519167829500,-0.0031412243843078613,0.021642344072461128,0.07819119840860367,9.051321983337402,-0.02166835591197014,-3.7982187271118164
1403638519172829500,-0.0073223114013671875,0.021603448316454887,0.07753035426139832,9.010560989379883,-0.04619286581873894,-3.7901196479797363
1403638519177829500,-0.0017603784799575806,0.01600823365151882,0.07677289843559265,9.100287437438965,-0.013572302646934986,-3.814674139022827
1403638519182829500,-0.002443641424179077,0.020938502624630928,0.07752041518688202,9.01052474975586,-0.021644113585352898,-3.7900826930999756
1403638519187829500,0.00035455822944641113,0.020258305594325066,0.07823938131332397,9.043096542358398,0.0027224631048738956,-3.7901060581207275
1403638519192829500,-0.004497841000556946,0.027234768494963646,0.07957100123167038,9.01865005493164,-0.005211421754211187,-3.7900755405426025
1403638519197829500,-0.0038788020610809326,0.020972108468413353,0.08099181950092316,8.994112014770508,-0.013490306213498116,-3.790153741836548
1403638519202829500,-0.0024375244975090027,0.023710424080491066,0.07752509415149689,9.051328659057617,0.019392967224121094,-3.7901530265808105
1403638519207829500,-0.0024394765496253967,0.017401045188307762,0.07889449596405029,9.034957885742188,-0.06272471696138382,-3.8145744800567627
1403638519212829500,-0.002422228455543518,0.021603254601359367,0.07890239357948303,9.092167854309082,-0.03799371421337128,-3.8146066665649414
1403638519217829500,-0.003174722194671631,0.02096475474536419,0.07891327887773514,8.9696044921875,-0.062333788722753525,-3.8064680099487305
1403638519222829500,-0.003141649067401886,0.02447289042174816,0.07612648606300354,9.010469436645508,-0.005134609527885914,-3.814575672149658
1403638519227829500,-0.0010440200567245483,0.025134725496172905,0.08031265437602997,8.977738380432129,-0.06250230967998505,-3.7819297313690186
1403638519232829500,-0.0017250031232833862,0.020917249843478203,0.07189396023750305,9.075883865356445,-0.02162870764732361,-3.814575433731079
1403638519237829500,0.0010304898023605347,0.0209022406488657,0.07612226903438568,8.96962833404541,-0.054268911480903625,-3.798255205154419
1403638519242829500,-0.0024506449699401855,0.020234929397702217,0.07962672412395477,9.05953598022461,0.011156067252159119,-3.83915376663208
1403638519247829500,-0.002449914813041687,0.02162862755358219,0.0809750109910965,8.953206062316895,-0.04638511687517166,-3.790128231048584
1403638519252829500,-0.0024260133504867554,0.023775016888976097,0.07336358726024628,9.026723861694336,-0.029915113002061844,-3.7901113033294678
1403638519257829500,-0.0024506449699401855,0.018846528604626656,0.07615764439105988,8.945106506347656,-0.08697913587093353,-3.7737720012664795
1403638519262829500,-0.004536628723144531,0.024424979463219643,0.07604330778121948,9.108412742614746,-0.021574676036834717,-3.790130853652954
1403638519267829500,-0.004558078944683075,0.021596496924757957,0.07890939712524414,8.928764343261719,-0.04627135768532753,-3.782006025314331
1403638519272829500,-0.004548892378807068,0.020943989977240562,0.07964763045310974,9.010614395141602,0.0026599615812301636,-3.831057071685791
1403638519277829500,-0.0031607970595359802,0.023737473413348198,0.08237423002719879,8.928730964660645,-0.046019453555345535,-3.7738037109375
1403638519282829500,0.0010799244046211243,0.020956361666321754,0.07960165292024612,9.10849380493164,0.002805262804031372,-3.8227667808532715
1403638519287829500,-0.001051589846611023,0.019530771300196648,0.08174030482769012,8.96143627166748,-0.037969399243593216,-3.773746967315674
1403638519292829500,-0.002450816333293915,0.024430682882666588,0.07816427201032639,9.034950256347656,-0.037989918142557144,-3.781980037689209
1403638519297829500,-0.004546746611595154,0.023034119978547096,0.08027699589729309,8.920544624328613,-0.09490688890218735,-3.7819809913635254
1403638519302829500,-0.0017500072717666626,0.018826289102435112,0.07475218176841736,9.010507583618164,-0.021870389580726624,-3.814723253250122
1403638519307829500,-0.0010252445936203003,0.02442098595201969,0.0782192125916481,8.986067771911621,-0.005236685276031494,-3.7983667850494385
1403638519312829500,-0.0010382309556007385,0.02024458535015583,0.07891567051410675,9.051352500915527,-0.005444926209747791,-3.8309781551361084
1403638519317829500,-0.003171086311340332,0.02649570442736149,0.07889755070209503,9.010407447814941,-0.03761877864599228,-3.8063533306121826
1403638519322829500,-0.003174819052219391,0.019596105441451073,0.08027157187461853,9.04323959350586,0.002591619035229087,-3.7901086807250977
1403638519327829500,-0.001718774437904358,0.02161591313779354,0.0796034038066864,8.969718933105469,-0.03807155042886734,-3.749269962310791
1403638519332829500,0.001074075698852539,0.012519419193267822,0.07542809844017029,9.034884452819824,-0.013694385066628456,-3.7738256454467773
1403638519337829500,-0.0038434118032455444,0.016016988083720207,0.0719684362411499,9.051314353942871,-0.0542423352599144,-3.7819364070892334
1403638519342829500,-0.0038682520389556885,0.020250117406249046,0.07541098445653915,9.034905433654785,-0.07086599618196487,-3.7819530963897705
1403638519347829500,-0.003844231367111206,0.022354332730174065,0.07537112385034561,9.051436424255371,-0.013292068615555763,-3.790008068084717
1403638519352829500,-0.0017412826418876648,0.017496315762400627,0.08100797981023788,9.043269157409668,0.002638787031173706,-3.790032148361206
1403638519357829500,-0.004505276679992676,0.023701665922999382,0.07683637738227844,9.010453224182129,-0.0051809013821184635,-3.798259973526001
1403638519362829500,-0.0017585605382919312,0.021610217168927193,0.0788954645395279,8.969578742980957,-0.021725891157984734,-3.765652656555176
1403638519367829500,-0.002476036548614502,0.020935183390975,0.07614683359861374,9.018794059753418,-0.021699680015444756,-3.7818984985351562
1403638519372829500,-0.004564695060253143,0.017469247803092003,0.08169201016426086,8.953381538391113,-0.0382302850484848,-3.765763759613037
1403638519377829500,-0.0038028359413146973,0.020256439223885536,0.07677716016769409,9.084051132202148,0.011265737004578114,-3.8064990043640137
1403638519382829500,-0.002454981207847595,0.02230333350598812,0.07683667540550232,8.920599937438965,-0.005425065755844116,-3.7820239067077637
1403638519387829500,0.001059606671333313,0.02235560305416584,0.07473324239253998,9.051190376281738,-0.013626626692712307,-3.7819020748138428
1403638519392829500,-0.00034037232398986816,0.024444518610835075,0.07958361506462097,8.977621078491211,-0.054308924823999405,-3.7737014293670654
1403638519397829500,-0.004552572965621948,0.02231610380113125,0.07890325784683228,9.035110473632812,-0.01315691601485014,-3.7819271087646484
1403638519402829500,-0.0024677738547325134,0.020905284211039543,0.07960797846317291,8.969642639160156,-0.013544849120080471,-3.790165662765503
1403638519407829500,-0.0003153681755065918,0.02234974317252636,0.07541312277317047,9.051356315612793,0.051592011004686356,-3.8228724002838135
1403638519412829500,-0.0031284838914871216,0.01954738236963749,0.07614164054393768,8.961445808410645,-0.04646492376923561,-3.773773670196533
1403638519417829500,-0.005254641175270081,0.020245088264346123,0.07682507485151291,9.084013938903809,-0.013254391960799694,-3.798243284225464
1403638519422829500,-0.004572451114654541,0.02370617352426052,0.07888302952051163,8.985922813415527,-0.0457620732486248,-3.798226833343506
1403638519427829500,-0.0010471045970916748,0.023053592070937157,0.07607708871364594,9.10021686553955,-0.013592016883194447,-3.8145782947540283
1403638519432829500,-0.003795720636844635,0.023014375939965248,0.07892481982707977,8.953206062316895,-0.04638161137700081,-3.7656478881835938
1403638519437829500,-0.0010329335927963257,0.018828248605132103,0.07893170416355133,8.994300842285156,0.027303634211421013,-3.7983603477478027
1403638519442829500,-0.006689473986625671,0.019516492262482643,0.07543058693408966,8.945256233215332,-0.013353548012673855,-3.773845911026001
1403638519447829500,-0.003163933753967285,0.01815839298069477,0.07681527733802795,9.092137336730957,-0.021701430901885033,-3.790104866027832
1403638519452829500,-0.00309966504573822,0.02096184901893139,0.07958816736936569,8.96960163116455,-0.08693328499794006,-3.8063888549804688
1403638519457829500,-0.0024387240409851074,0.022349877282977104,0.0781751275062561,9.067595481872559,-0.05433966591954231,-3.839053153991699
1403638519462829500,-0.0003490447998046875,0.020914753898978233,0.07686373591423035,8.977726936340332,-0.07049614191055298,-3.806321382522583
1403638519467829500,-0.00036125630140304565,0.02092035673558712,0.07682449370622635,9.0267972946167,-0.06258364766836166,-3.8063952922821045
1403638519472829500,-0.0010509192943572998,0.02370562218129635,0.0795569121837616,9.018661499023438,-0.037785839289426804,-3.806396245956421
1403638519477829500,-0.00035105645656585693,0.018854202702641487,0.07891493290662766,9.01056957244873,-0.04624156653881073,-3.8146936893463135
1403638519482829500,-0.0017253831028938293,0.023740975186228752,0.0789174884557724,9.051329612731934,-0.013203573413193226,-3.8064236640930176
1403638519487829500,-0.0024702250957489014,0.01955789513885975,0.08308804780244827,9.018656730651855,-0.046368908137083054,-3.7900969982147217
1403638519492829500,-0.00663428008556366,0.020932571962475777,0.07821764051914215,8.985992431640625,-0.05419619008898735,-3.814708948135376
1403638519497829500,-0.0017617419362068176,0.019530033692717552,0.08238774538040161,9.026749610900879,-0.0053067803382873535,-3.7739059925079346
1403638519502829500,-0.005952164530754089,0.02232879213988781,0.07958731055259705,9.0186128616333,-0.04622579738497734,-3.790102481842041
1403638519507829500,0.00036817044019699097,0.018829023465514183,0.08026351034641266,9.034883499145508,-0.04643914848566055,-3.7982513904571533
1403638519512829500,-0.002420589327812195,0.023734180256724358,0.07824132591485977,9.018725395202637,-0.029465556144714355,-3.773780107498169
1403638519517829500,-0.0010857582092285156,0.020264023914933205,0.07613153755664825,9.018579483032227,-0.03798743709921837,-3.8145751953125
1403638519522829500,-0.0024308711290359497,0.023715632036328316,0.07469350844621658,9.132963180541992,-0.005288818385452032,-3.814509630203247
1403638519527829500,-0.00314900279045105,0.021646229550242424,0.07961584627628326,9.010461807250977,-0.04647397622466087,-3.7982871532440186
1403638519532829500,-0.005214259028434753,0.022324303165078163,0.07539308071136475,9.043265342712402,-0.013374722562730312,-3.7901370525360107
1403638519537829500,0.0031365379691123962,0.020216258242726326,0.07402446866035461,8.9042387008667,-0.05422539636492729,-3.7655279636383057
1403638519542829500,-0.0010315775871276855,0.01954592578113079,0.07407814264297485,9.0186767578125,-0.021755389869213104,-3.7820498943328857
1403638519547829500,-0.003190085291862488,0.020929543301463127,0.07680283486843109,9.002290725708008,-0.07071240991353989,-3.798318386077881
1403638519552829500,-0.007315799593925476,0.02305019088089466,0.07609289884567261,9.124929428100586,-0.0051831649616360664,-3.806431770324707
1403638519557829500,-0.0038733333349227905,0.023043641820549965,0.07824841886758804,8.969483375549316,-0.07877827435731888,-3.7655880451202393
1403638519562829500,0.0024810582399368286,0.023037204518914223,0.07329059392213821,9.083883285522461,-0.013569893315434456,-3.8144872188568115
1403638519567829500,0.0010792016983032227,0.02091294340789318,0.08099941164255142,8.961487770080566,-0.03800160065293312,-3.781862258911133
1403638519572829500,-0.001069575548171997,0.01813276670873165,0.08033245801925659,9.04328727722168,0.0028152659069746733,-3.773832082748413
1403638519577829500,-0.0003962665796279907,0.01950930990278721,0.07888098061084747,8.928816795349121,-0.05435098335146904,-3.7737772464752197
1403638519582829500,-0.0017205625772476196,0.02027195505797863,0.0789070799946785,9.084061622619629,0.01898634247481823,-3.8146438598632812
1403638519587829500,-0.0017303526401519775,0.02164963074028492,0.0796029269695282,8.961519241333008,0.019131718203425407,-3.7901930809020996
1403638519592829500,-0.005226016044616699,0.018855495378375053,0.07747499644756317,9.100351333618164,-0.00540549773722887,-3.7982983589172363
1403638519597829500,-0.002490609884262085,0.02230939082801342,0.07686304301023483,8.977521896362305,-0.06236065924167633,-3.7655301094055176
1403638519602829500,-0.002456158399581909,0.01673010177910328,0.07609463483095169,9.034933090209961,-0.029963230714201927,-3.7819671630859375
1403638519607829500,-0.0017233267426490784,0.02022518776357174,0.08026038110256195,8.994115829467773,-0.05414252355694771,-3.814531087875366
1403638519612829500,-0.003131955862045288,0.02096804417669773,0.07406149059534073,9.035144805908203,-0.005304005928337574,-3.8146581649780273
1403638519617829500,-0.00316755473613739,0.02443504147231579,0.07683359831571579,9.002394676208496,-0.013455185107886791,-3.814617395401001
1403638519622829500,-0.0024466365575790405,0.023055950179696083,0.07959470897912979,9.04313850402832,-0.013697597198188305,-3.8146183490753174
1403638519627829500,-0.004540659487247467,0.025113945826888084,0.07889483869075775,8.912501335144043,-0.013107046484947205,-3.781965494155884
1403638519632829500,-0.001035258173942566,0.01882076822221279,0.07892908155918121,8.912396430969238,-0.06265170127153397,-3.7820258140563965
1403638519637829500,-0.001046881079673767,0.018810568377375603,0.07613725960254669,8.977731704711914,-0.046049974858760834,-3.781942367553711
1403638519642829500,-0.0010534971952438354,0.013963228091597557,0.07469414919614792,9.018643379211426,-0.06272660940885544,-3.7901177406311035
1403638519647829500,-0.005243420600891113,0.01884668879210949,0.07752206176519394,9.067635536193848,-0.05419275537133217,-3.790083408355713
1403638519652829500,-0.0017748326063156128,0.01676170341670513,0.07821536064147949,8.985967636108398,-0.04628026485443115,-3.8145692348480225
1403638519657829500,-0.00033676624298095703,0.018855875357985497,0.07816949486732483,9.059535026550293,0.00307490979321301,-3.830900192260742
1403638519662829500,-0.002422824501991272,0.02092844434082508,0.08033132553100586,9.010371208190918,-0.06250859051942825,-3.798159122467041
1403638519667829500,-0.0017141252756118774,0.025114944204688072,0.07332743704319,9.018706321716309,-0.00528005650267005,-3.7900564670562744
1403638519672829500,-0.0031946077942848206,0.021631354466080666,0.07959657907485962,8.953330993652344,-0.0709458440542221,-3.7574615478515625
1403638519677829500,-0.005259841680526733,0.019548973068594933,0.07544175535440445,9.018654823303223,-0.06236248463392258,-3.7902092933654785
1403638519682829500,-0.0017235353589057922,0.015336794778704643,0.07608431577682495,8.945164680480957,-0.0706038698554039,-3.749415636062622
1403638519687829500,0.00037200748920440674,0.021620692685246468,0.077524334192276,9.10033130645752,-0.021686682477593422,-3.814561605453491
1403638519692829500,0.0031213313341140747,0.022343838587403297,0.0810275450348854,8.985747337341309,-0.04626084491610527,-3.7736775875091553
1403638519697829500,0.0017626136541366577,0.02167675457894802,0.0753822922706604,9.092113494873047,-0.021430104970932007,-3.7981624603271484
1403638519702829500,-0.0003605857491493225,0.020218370482325554,0.07543815672397614,8.928893089294434,-0.005203682463616133,-3.7900846004486084
1403638519707829500,-0.0038569197058677673,0.013907039538025856,0.07539615035057068,9.051627159118652,-0.02199101261794567,-3.8064563274383545
1403638519712829500,-0.0024383068084716797,0.02299671806395054,0.07749055325984955,8.977791786193848,-0.09514616429805756,-3.790081024169922
1403638519717829500,-0.00593692809343338,0.018897732719779015,0.07617922127246857,9.059556007385254,-0.08685746043920517,-3.7982664108276367
1403638519722829500,-0.0017788708209991455,0.024468867108225822,0.07961555570363998,8.969626426696777,-0.0623178705573082,-3.8064472675323486
1403638519727829500,-0.0003276914358139038,0.02444273792207241,0.07815669476985931,9.067593574523926,-0.029893500730395317,-3.798346996307373
1403638519732829500,-0.0010662823915481567,0.02158956788480282,0.07753042131662369,8.912345886230469,-0.0624973438680172,-3.741114854812622
1403638519737829500,-0.0017341971397399902,0.01741906814277172,0.0754111260175705,9.10029411315918,-0.04631713777780533,-3.790034294128418
1403638519742829500,-0.001059502363204956,0.02229875884950161,0.07890257239341736,8.936955451965332,-0.062233902513980865,-3.78192138671875
1403638519747829500,0.001043461263179779,0.018873723223805428,0.07753194868564606,9.018744468688965,0.01905154623091221,-3.798393964767456
1403638519752829500,-0.00524226576089859,0.02235277183353901,0.07822011411190033,9.010588645935059,-0.02988765947520733,-3.8063652515411377
1403638519757829500,-0.0017385631799697876,0.01680179499089718,0.08098799735307693,9.035017967224121,-0.04640599712729454,-3.7982418537139893
1403638519762829500,-0.002458125352859497,0.020194875076413155,0.07957862317562103,9.010401725769043,-0.10303948819637299,-3.7573893070220947
1403638519767829500,-0.0038575083017349243,0.018797604367136955,0.08307701349258423,9.043156623840332,-0.02158811129629612,-3.8063693046569824
1403638519772829500,-0.0017306208610534668,0.023742428049445152,0.07892266660928726,8.969586372375488,-0.029781349003314972,-3.830925703048706
1403638519777829500,-0.0017664283514022827,0.02445833943784237,0.08028502017259598,9.059406280517578,-0.005359351634979248,-3.831070899963379
1403638519782829500,-0.007359787821769714,0.026535434648394585,0.07824636995792389,8.96164321899414,-0.029701322317123413,-3.790149211883545
1403638519787829500,-0.0010359659790992737,0.015336649492383003,0.0809953510761261,8.969710350036621,-0.046388622373342514,-3.7819948196411133
1403638519792829500,-0.0031226128339767456,0.02229318581521511,0.07747124135494232,9.043122291564941,-0.02965240180492401,-3.7819409370422363
1403638519797829500,-0.0024822354316711426,0.014657041057944298,0.07960569113492966,8.994125366210938,-0.06246120110154152,-3.7901265621185303
1403638519802829500,-0.0024067237973213196,0.01883825473487377,0.07542073726654053,9.034950256347656,-0.062493398785591125,-3.7981810569763184
1403638519807829500,-0.002470865845680237,0.01956263743340969,0.07750337570905685,9.018521308898926,-0.06254494935274124,-3.814516305923462
1403638519812829500,-0.00455726683139801,0.025146247819066048,0.07754302024841309,9.05951976776123,-0.045910369604825974,-3.814534902572632
1403638519817829500,-0.0038075000047683716,0.02580787055194378,0.0796021819114685,8.985970497131348,-0.04581179842352867,-3.7982418537139893
1403638519822829500,-0.005242347717285156,0.021642250940203667,0.07819125056266785,9.002506256103516,-0.029663939028978348,-3.798234224319458
1403638519827829500,-0.00319768488407135,0.016734296455979347,0.07751836627721786,8.96153736114502,-0.05474424362182617,-3.781963586807251
1403638519832829500,-0.006608426570892334,0.021599574014544487,0.07540744543075562,9.059517860412598,-0.046100061386823654,-3.8227286338806152
1403638519837829500,-0.00596502423286438,0.02024790830910206,0.07891646027565002,8.928808212280273,-0.037934280931949615,-3.7738773822784424
1403638519842829500,-0.004545137286186218,0.018890542909502983,0.0809917002916336,9.124890327453613,-0.062229666858911514,-3.8391335010528564
1403638519847829500,0.00036835670471191406,0.023031791672110558,0.08029134571552277,9.002065658569336,-0.0625837966799736,-3.8063859939575195
1403638519852829500,0.00038358569145202637,0.02231946401298046,0.07682652771472931,9.051305770874023,-0.03802124038338661,-3.7900028228759766
1403638519857829500,0.00033733993768692017,0.017382318153977394,0.07403536140918732,8.928799629211426,-0.11971134692430496,-3.749108076095581
1403638519862829500,-0.0010562688112258911,0.016076834872364998,0.07609426975250244,9.018699645996094,-0.07848146557807922,-3.7573862075805664
1403638519867829500,-0.002467930316925049,0.019539961591362953,0.0803045779466629,8.945260047912598,-0.00531846284866333,-3.7657265663146973
1403638519872829500,0.0003711879253387451,0.014644889160990715,0.07819359004497528,9.100517272949219,0.0023801655042916536,-3.8145856857299805
1403638519877829500,-0.005948960781097412,0.02096620760858059,0.08031488955020905,9.010396957397461,-0.05429702252149582,-3.7900540828704834
1403638519882829500,-0.003164634108543396,0.025178836658596992,0.08100441098213196,9.149251937866211,-0.01299927569925785,-3.822688102722168
1403638519887829500,-0.004547938704490662,0.029274722561240196,0.08098787814378738,8.928716659545898,-0.07039953768253326,-3.7737154960632324
1403638519892829500,-0.00034609436988830566,0.020225951448082924,0.08029715716838837,8.994136810302734,-0.038214366883039474,-3.741204261779785
1403638519897829500,-0.003123059868812561,0.02301115356385708,0.07749933749437332,9.002389907836914,-0.03808965906500816,-3.757473945617676
1403638519902829500,-0.0031667351722717285,0.016036903485655785,0.07819163054227829,9.051427841186523,-0.07089590281248093,-3.773806095123291
1403638519907829500,-0.0010671168565750122,0.02091129682958126,0.0768532007932663,9.059507369995117,-0.02942795306444168,-3.8309712409973145
1403638519912829500,-0.002450913190841675,0.019611073657870293,0.0796012356877327,9.05966567993164,0.051846250891685486,-3.790123224258423
1403638519917829500,-0.004496186971664429,0.025848736986517906,0.07398663461208344,9.002195358276367,-0.04642454534769058,-3.7899539470672607
1403638519922829500,-0.0031567588448524475,0.022313831374049187,0.0795903205871582,9.002166748046875,-0.03793632611632347,-3.7819478511810303
1403638519927829500,-0.002459421753883362,0.023685013875365257,0.081026092171669,8.912613868713379,-0.029601218178868294,-3.7329537868499756
1403638519932829500,-0.0017572641372680664,0.014638835564255714,0.07891428470611572,9.002396583557129,-0.0383211188018322,-3.7901628017425537
1403638519937829500,-0.0017412900924682617,0.0174237173050642,0.07616187632083893,9.010544776916504,-0.03797582536935806,-3.78194522857666
1403638519942829500,-0.0031681954860687256,0.018165236338973045,0.07470770180225372,8.99414348602295,-0.046036247164011,-3.7983319759368896
1403638519947829500,0.0003470480442047119,0.02097727172076702,0.07675241678953171,9.051253318786621,-0.037829793989658356,-3.822664976119995
1403638519952829500,0.0003800243139266968,0.015379266813397408,0.07893282920122147,8.985821723937988,-0.08714451640844345,-3.7735774517059326
1403638519957829500,-0.0024428069591522217,0.02510213665664196,0.07612278312444687,9.083855628967285,-0.0458880253136158,-3.7899556159973145
1403638519962829500,0.0003362596035003662,0.022274604067206383,0.07681413739919662,8.961467742919922,-0.06245163455605507,-3.790005922317505
1403638519967829500,-0.0038399547338485718,0.024434464052319527,0.07614415138959885,8.986122131347656,-0.02985304966568947,-3.7575180530548096
1403638519972829500,0.0003371238708496094,0.020283306017518044,0.0789002925157547,8.945136070251465,-0.021829063072800636,-3.806593894958496
1403638519977829500,-0.0003266856074333191,0.020935235545039177,0.08028195798397064,9.108587265014648,-0.05429184064269066,-3.8145503997802734
1403638519982829500,-0.0017814338207244873,0.020904408767819405,0.0803055614233017,8.961321830749512,-0.07842319458723068,-3.822761297225952
1403638519987829500,0.00033508241176605225,0.02025969885289669,0.07749722898006439,9.092156410217285,-0.06214292347431183,-3.8389317989349365
1403638519992829500,-0.0024433135986328125,0.020245930179953575,0.07823464274406433,8.904196739196777,-0.07109446823596954,-3.7654640674591064
1403638519997829500,0.0003539770841598511,0.023005584254860878,0.07890439033508301,9.01873779296875,0.010942861437797546,-3.8065409660339355
1403638520002829500,-0.0024509280920028687,0.018814126029610634,0.07678059488534927,9.010581970214844,-0.029570406302809715,-3.806442975997925
1403638520007829500,-0.003150343894958496,0.025155486539006233,0.07890000939369202,9.084115982055664,0.03576439991593361,-3.8392174243927
1403638520012829500,-0.0024630725383758545,0.025837508961558342,0.08311442285776138,8.936873435974121,-0.03807636722922325,-3.798387050628662
1403638520017829500,-0.003830648958683014,0.019565043970942497,0.07889288663864136,9.067681312561035,-0.021814752370119095,-3.7981646060943604
1403638520022829500,-0.005248814821243286,0.01811591349542141,0.0803297758102417,8.928820610046387,-0.02965744026005268,-3.7656657695770264
1403638520027829500,-0.0003565847873687744,0.017434535548090935,0.07887618243694305,9.083917617797852,-0.03803197667002678,-3.8064403533935547
1403638520032829500,-0.004531458020210266,0.020891470834612846,0.07606497406959534,8.96947956085205,-0.0707024410367012,-3.7492153644561768
1403638520037829500,-0.00245821475982666,0.018160445615649223,0.07405689358711243,9.100372314453125,-0.029785510152578354,-3.8227570056915283
1403638520042829500,-0.0003283470869064331,0.025155095383524895,0.07404877245426178,9.059399604797363,-0.05394392088055611,-3.830767869949341
1403638520047829500,-0.0017522871494293213,0.02443755976855755,0.0746864527463913,9.067713737487793,0.01109809335321188,-3.8064305782318115
1403638520052829500,-0.001732654869556427,0.02439890243113041,0.08103074133396149,8.95339584350586,-0.029942786321043968,-3.7655816078186035
1403638520057829500,-0.0038286373019218445,0.020256133750081062,0.08029245585203171,9.002253532409668,-0.046374090015888214,-3.7737467288970947
1403638520062829500,-0.007385663688182831,0.02440209873020649,0.07678217440843582,8.961603164672852,-0.02950344979763031,-3.798335313796997
1403638520067829500,-0.0052585601806640625,0.01535169966518879,0.0789516419172287,9.018832206726074,-0.07079528272151947,-3.814695119857788
1403638520072829500,-0.004507891833782196,0.022326389327645302,0.08099015057086945,9.11662483215332,-0.03779701143503189,-3.839085578918457
1403638520077829500,-0.0003650560975074768,0.023767558857798576,0.08305582404136658,9.04309368133545,0.00280686910264194,-3.8065237998962402
1403638520082829500,-0.0024298205971717834,0.02720615454018116,0.08172918856143951,8.977740287780762,-0.03789280727505684,-3.790090322494507
1403638520087829500,-0.0003459751605987549,0.021625829860568047,0.07678453624248505,8.977701187133789,-0.005363294389098883,-3.7573699951171875
1403638520092829500,-0.002459496259689331,0.019537651911377907,0.07400450110435486,8.937171936035156,-0.01354287751019001,-3.7656216621398926
1403638520097829500,-0.0031409114599227905,0.012531710788607597,0.0775441974401474,9.02684211730957,-0.013788575306534767,-3.8065638542175293
1403638520102829500,-0.0052174776792526245,0.018819918856024742,0.07608600705862045,9.157557487487793,-0.03784417733550072,-3.798172950744629
1403638520107829500,-0.0024674981832504272,0.018887421116232872,0.07819784432649612,9.067556381225586,-0.07887592911720276,-3.822660207748413
1403638520112829500,-0.00312882661819458,0.025855669751763344,0.07754398882389069,9.075629234313965,-0.06217212975025177,-3.790046215057373
1403638520117829500,-0.0024450570344924927,0.02234075404703617,0.07960639894008636,8.871508598327637,-0.05428731068968773,-3.7574145793914795
1403638520122829500,0.003164231777191162,0.024388303980231285,0.07891380786895752,9.010502815246582,0.002876234007999301,-3.7737467288970947
1403638520127829500,-0.0010780394077301025,0.022291837260127068,0.08100009709596634,8.953292846679688,-0.029955636709928513,-3.7983078956604004
1403638520132829500,-0.00035125017166137695,0.018155938014388084,0.0739787369966507,9.100574493408203,-0.04611831530928612,-3.822798490524292
1403638520137829500,-0.0024500787258148193,0.018858669325709343,0.08172697573900223,8.994192123413086,-0.03770822286605835,-3.8228557109832764
1403638520142829500,-0.003863215446472168,0.018872303888201714,0.07824390381574631,9.059515953063965,-0.00544295459985733,-3.8145923614501953
1403638520147829500,-0.0017275214195251465,0.019542770460247993,0.08028203994035721,8.928610801696777,-0.09541405737400055,-3.7819020748138428
1403638520152829500,-0.0024155452847480774,0.02233543060719967,0.07610984891653061,9.100201606750488,-0.037794310599565506,-3.8144960403442383
1403638520157829500,0.0010161548852920532,0.0230043213814497,0.08027353137731552,8.92058277130127,-0.0705467015504837,-3.814586877822876
1403638520162829500,-0.00035578757524490356,0.020227311179041862,0.07749077677726746,9.084142684936523,-0.038029637187719345,-3.782024621963501
1403638520167829500,-0.0052388012409210205,0.024412749335169792,0.07826472818851471,9.018694877624512,-0.029654812067747116,-3.806432008743286
1403638520172829500,-0.0059597790241241455,0.016786297783255577,0.07612651586532593,9.04329776763916,-0.005585773382335901,-3.7983522415161133
1403638520177829500,-0.008039459586143494,0.0174249317497015,0.07678458839654922,8.928731918334961,-0.04627084732055664,-3.790184736251831
1403638520182829500,-0.0066339969635009766,0.01746632345020771,0.0816890150308609,9.06762409210205,-0.005305904429405928,-3.790081024169922
1403638520187829500,-0.0045436471700668335,0.023023618385195732,0.07820507884025574,8.977663040161133,-0.09502068907022476,-3.781776189804077
1403638520192829500,-0.002437092363834381,0.019550839439034462,0.07610467076301575,9.0758695602417,-0.04604675993323326,-3.806471586227417
1403638520197829500,0.00034299492835998535,0.025822801515460014,0.078255295753479,8.953302383422852,-0.05415252596139908,-3.8064520359039307
1403638520202829500,0.0010762214660644531,0.022327324375510216,0.07539628446102142,9.05123519897461,-0.030024781823158264,-3.798286199569702
1403638520207829500,-0.0017451420426368713,0.025093035772442818,0.0775144174695015,8.961441040039062,-0.02963239699602127,-3.806396007537842
1403638520212829500,-0.0031631886959075928,0.016791200265288353,0.077539823949337,9.002460479736328,-0.03798721730709076,-3.790090322494507
1403638520217829500,-0.0010383129119873047,0.0216317530721426,0.07535979151725769,9.059517860412598,-0.005208647344261408,-3.7736611366271973
1403638520222829500,-0.0024519413709640503,0.01743052713572979,0.07821522653102875,9.03496265411377,-0.03841486945748329,-3.7901225090026855
1403638520227829500,-0.0038329660892486572,0.019521070644259453,0.0761459469795227,9.051304817199707,-0.03790784999728203,-3.8065025806427
1403638520232829500,-0.003147229552268982,0.017447644844651222,0.07607787102460861,9.043143272399902,-0.07868324220180511,-3.8145933151245117
1403638520237829500,-0.0059635937213897705,0.02372553013265133,0.07543429732322693,9.051339149475098,-0.005099927075207233,-3.798236608505249
1403638520242829500,-0.003840819001197815,0.021632304415106773,0.08170417696237564,9.026856422424316,-0.0137746287509799,-3.79007887840271
1403638520247829500,0.0010830163955688477,0.02723805420100689,0.07889033854007721,8.994146347045898,-0.013439414091408253,-3.7819342613220215
1403638520252829500,0.0017369985580444336,0.01816965453326702,0.08033239841461182,8.9287748336792,-0.029754405841231346,-3.7737932205200195
1403638520257829500,-0.0010557621717453003,0.01882256753742695,0.07609934359788895,9.075961112976074,0.019346237182617188,-3.781944751739502
1403638520262829500,-0.003142997622489929,0.020201915875077248,0.07606040686368942,9.05936336517334,-0.038287531584501266,-3.7900373935699463
1403638520267829500,-0.003854706883430481,0.01955348812043667,0.07474173605442047,9.132969856262207,0.019197504967451096,-3.822787046432495
1403638520272829500,-0.004537820816040039,0.022344937548041344,0.07962112873792648,9.010421752929688,-0.037959981709718704,-3.806396722793579
1403638520277829500,-0.0038045793771743774,0.02165128104388714,0.07749208062887192,9.010497093200684,-0.005236685276031494,-3.806455135345459
1403638520282829500,-0.0003724098205566406,0.025090260431170464,0.08171869814395905,8.936996459960938,-0.013462632894515991,-3.7656307220458984
1403638520287829500,-0.0010653063654899597,0.024442097172141075,0.07541699707508087,9.026939392089844,0.010975792072713375,-3.7982704639434814
1403638520292829500,0.0003527700901031494,0.01745656691491604,0.07400242239236832,8.93693733215332,-0.029869258403778076,-3.798332691192627
1403638520297829500,-0.0017402619123458862,0.01674576662480831,0.07403481751680374,9.108467102050781,-0.021660616621375084,-3.8309733867645264
1403638520302829500,-0.00315731018781662,0.025086982175707817,0.07682904601097107,8.912285804748535,-0.08696234226226807,-3.7818973064422607
1403638520307829500,-0.0038211271166801453,0.018882958218455315,0.07332737743854523,9.043098449707031,-0.04619790241122246,-3.7900800704956055
1403638520312829500,-0.0010488182306289673,0.022338366135954857,0.07615547627210617,8.98580551147461,-0.07033543288707733,-3.814478635787964
1403638520317829500,-0.00034002959728240967,0.0237415861338377,0.07679558545351028,9.034930229187012,-0.013630934059619904,-3.7901666164398193
1403638520322829500,-0.0010416209697723389,0.02366156317293644,0.07818049192428589,8.953368186950684,-0.07888772338628769,-3.765573024749756
1403638520327829500,-0.001737929880619049,0.02443658374249935,0.0747377872467041,9.075901985168457,-0.0216273944824934,-3.7900588512420654
1403638520332829500,-0.003883853554725647,0.025883721187710762,0.07821951806545258,8.985987663269043,-0.03756832703948021,-3.7656288146972656
1403638520337829500,-0.003148391842842102,0.020232701674103737,0.08448455482721329,9.075777053833008,-0.054553236812353134,-3.798349380493164
1403638520342829500,-0.001034654676914215,0.023676319047808647,0.0838044285774231,9.034859657287598,-0.021584315225481987,-3.7818751335144043
1403638520347829500,-0.0024496987462043762,0.02235492132604122,0.08517605066299438,9.026854515075684,-0.03815310820937157,-3.7983195781707764
1403638520352829500,-0.0003508329391479492,0.023012621328234673,0.08236362040042877,8.97775936126709,-0.05409703403711319,-3.7738027572631836
1403638520357829500,0.002456940710544586,0.020929133519530296,0.07606462389230728,9.059581756591797,-0.0052940757013857365,-3.8064117431640625
1403638520362829500,-0.0024602338671684265,0.020931078121066093,0.07544763386249542,9.018815994262695,0.0026507617440074682,-3.8065290451049805
1403638520367829500,-0.0017480701208114624,0.017423922196030617,0.07964256405830383,9.010469436645508,-0.04647156596183777,-3.790214776992798
1403638520372829500,-0.002434670925140381,0.01885838992893696,0.07888737320899963,8.977872848510742,-0.05403905734419823,-3.790060520172119
1403638520377829500,-0.0024728775024414062,0.018160270527005196,0.0817115530371666,9.010526657104492,-0.04622126743197441,-3.781900405883789
1403638520382829500,-0.003830656409263611,0.024428056553006172,0.07332243025302887,9.010409355163574,-0.02969708852469921,-3.806472063064575
1403638520387829500,-0.0017410442233085632,0.017466643825173378,0.07467429339885712,9.010489463806152,-0.021815774962306023,-3.790193796157837
1403638520392829500,-0.0017657279968261719,0.025123124942183495,0.07405231148004532,9.10033130645752,0.035626254975795746,-3.814544677734375
1403638520397829500,-0.002441108226776123,0.023010333999991417,0.0775180459022522,8.977734565734863,-0.00548785924911499,-3.7738077640533447
1403638520402829500,-0.0045092105865478516,0.020918266847729683,0.07333290576934814,9.043176651000977,-0.09500370919704437,-3.732865333557129
1403638520407829500,-0.004577159881591797,0.02234998159110546,0.0775623768568039,8.969521522521973,-0.05412886664271355,-3.790083885192871
1403638520412829500,-0.0017362385988235474,0.02375105954706669,0.07470270991325378,9.0186185836792,-0.038124192506074905,-3.8146467208862305
1403638520417829500,-0.002430453896522522,0.01952960528433323,0.07956405729055405,9.002248764038086,-0.10356976091861725,-3.7819290161132812
1403638520422829500,-0.0010489076375961304,0.024421891197562218,0.07891349494457245,9.124844551086426,-0.07037317752838135,-3.8144123554229736
1403638520427829500,-0.0024674683809280396,0.021636640653014183,0.07959906756877899,8.945148468017578,-0.12783843278884888,-3.749148368835449
1403638520432829500,-0.0003540143370628357,0.02090936340391636,0.07823532074689865,9.03501033782959,-0.04605128988623619,-3.7901663780212402
1403638520437829500,0.0003560557961463928,0.016735082492232323,0.07756662368774414,8.879820823669434,-0.07070229947566986,-3.7819435596466064
1403638520442829500,-0.001042686402797699,0.01816692017018795,0.07886072993278503,9.116756439208984,-0.03009714186191559,-3.830842971801758
1403638520447829500,-0.0031675249338150024,0.02441500313580036,0.08514690399169922,8.994251251220703,-0.029670072719454765,-3.8146581649780273
1403638520452829500,-0.004558257758617401,0.024480221793055534,0.08374045044183731,9.141379356384277,0.027616141363978386,-3.822763442993164
1403638520457829500,-0.004542350769042969,0.02444806881248951,0.08170351386070251,9.002196311950684,-0.037870172411203384,-3.773742437362671
1403638520462829500,-0.0031301602721214294,0.0230086836963892,0.0796678364276886,8.985922813415527,-0.021774156019091606,-3.782094717025757
1403638520467829500,-0.0017448961734771729,0.01948987878859043,0.08169856667518616,8.896088600158691,-0.03792361915111542,-3.76570200920105
1403638520472829500,-0.002467319369316101,0.018127186223864555,0.0795561671257019,9.092184066772461,-0.03798247128725052,-3.8227438926696777
1403638520477829500,-0.00036244094371795654,0.023752035573124886,0.07959528267383575,9.02673625946045,-0.013478696346282959,-3.839080333709717
1403638520482829500,-0.005223967134952545,0.01888812892138958,0.07330057770013809,9.116782188415527,-0.05448496714234352,-3.814607620239258
1403638520487829500,-0.003847770392894745,0.019513966515660286,0.0761348232626915,8.936963081359863,-0.046014267951250076,-3.765531539916992
1403638520492829500,-0.0031285732984542847,0.018139852210879326,0.07685382664203644,8.985956192016602,-0.013572302646934986,-3.7737388610839844
1403638520497829500,-0.0052521079778671265,0.024403175339102745,0.07818804681301117,8.953266143798828,0.010972651652991772,-3.7819554805755615
1403638520502829500,-0.005248904228210449,0.015352075919508934,0.07820995897054672,8.986066818237305,-0.0462469719350338,-3.790198564529419
1403638520507829500,-0.005952179431915283,0.020952099934220314,0.07752890884876251,9.002348899841309,-0.08657898008823395,-3.7737839221954346
1403638520512829500,-0.0038530677556991577,0.02095642499625683,0.07681411504745483,9.010492324829102,-0.05432279780507088,-3.798307180404663
1403638520517829500,-0.0010273456573486328,0.023710371926426888,0.07893618941307068,9.010416030883789,-0.07880152761936188,-3.8145248889923096
1403638520522829500,-0.0031241923570632935,0.02376069687306881,0.0809774100780487,9.042987823486328,-0.05416252836585045,-3.7900233268737793
1403638520527829500,-0.0038792043924331665,0.025126678869128227,0.080956369638443,8.986000061035156,-0.02949833869934082,-3.790050983428955
1403638520532829500,0.002446115016937256,0.016711773350834846,0.08241303265094757,8.994124412536621,-0.054791923612356186,-3.7819089889526367
1403638520537829500,-0.00032242387533187866,0.02089674584567547,0.07822107523679733,9.059659957885742,0.0028414055705070496,-3.79826021194458
1403638520542829500,-0.00524669885635376,0.018861697986721992,0.07820291817188263,8.986150741577148,-0.029878459870815277,-3.8228683471679688
1403638520547829500,-0.004541605710983276,0.024453839287161827,0.08029216527938843,9.067705154418945,-0.02152853086590767,-3.8064992427825928
1403638520552829500,-0.00039089471101760864,0.0209538284689188,0.08306650817394257,8.904176712036133,-0.06255035102367401,-3.732978343963623
1403638520557829500,-0.0031304657459259033,0.024434803053736687,0.08168467879295349,9.108433723449707,-0.021609140560030937,-3.8144702911376953
1403638520562829500,-0.0031117796897888184,0.02159619890153408,0.07685316354036331,9.002212524414062,-0.08683519065380096,-3.7736775875091553
1403638520567829500,-0.00176992267370224,0.02300485037267208,0.07331890612840652,9.026841163635254,-0.04587167128920555,-3.7902028560638428
1403638520572829500,-0.0052983760833740234,0.014643339440226555,0.08169135451316833,8.920767784118652,-0.013505712151527405,-3.773893117904663
1403638520577829500,-0.0051961615681648254,0.02024799771606922,0.07608752697706223,9.092430114746094,0.05149329453706741,-3.8145525455474854
1403638520582829500,-0.0052299946546554565,0.02095974050462246,0.07890421152114868,9.010469436645508,-0.029836401343345642,-3.7900919914245605
1403638520587829500,-0.0038683563470840454,0.02235507406294346,0.07755185663700104,9.116701126098633,-0.037601035088300705,-3.8471732139587402
1403638520592829500,-0.0031274408102035522,0.02373499982059002,0.08098524808883667,8.977662086486816,-0.09493003785610199,-3.7818355560302734
1403638520597829500,-0.0045203715562820435,0.02232825569808483,0.07890685647726059,9.010411262512207,-0.06263402849435806,-3.790158271789551
1403638520602829500,0.0003201812505722046,0.019475100561976433,0.07752852141857147,8.904264450073242,-0.12789107859134674,-3.732902765274048
1403638520607829500,-0.002438485622406006,0.018849438056349754,0.07397016882896423,9.067737579345703,-0.046050775796175,-3.7819714546203613
1403638520612829500,-0.0017483383417129517,0.018862517550587654,0.07684683799743652,8.985993385314941,-0.054209768772125244,-3.7901530265808105
1403638520617829500,-0.001747414469718933,0.018161429092288017,0.07755133509635925,9.116727828979492,0.05165319889783859,-3.8146026134490967
1403638520622829500,-0.005254805088043213,0.025819575414061546,0.07679354399442673,8.953360557556152,-0.013574785552918911,-3.773613214492798
1403638520627829500,-0.0031330883502960205,0.021670160815119743,0.08028052002191544,9.018664360046387,0.002808329416438937,-3.7901055812835693
1403638520632829500,-0.0038415193557739258,0.019508784636855125,0.080288365483284,8.928752899169922,-0.07041888684034348,-3.7819881439208984
1403638520637829500,-0.004546985030174255,0.015336664393544197,0.07541409134864807,8.95336627960205,-0.06278670579195023,-3.798435688018799
1403638520642829500,-0.0010613054037094116,0.018795086070895195,0.081076979637146,8.961520195007324,-0.09514138102531433,-3.7900547981262207
1403638520647829500,0.0038518384099006653,0.020284222438931465,0.07610490918159485,9.051257133483887,-0.029809532687067986,-3.814549207687378
1403638520652829500,-0.0003586709499359131,0.02029324881732464,0.07536409795284271,9.018656730651855,-0.062229886651039124,-3.7900137901306152
1403638520657829500,-0.002427414059638977,0.017454495653510094,0.07964413613080978,9.034817695617676,-0.0627051442861557,-3.7737698554992676
1403638520662829500,-0.0017406195402145386,0.020868690684437752,0.07747341692447662,9.018574714660645,-0.029636265709996223,-3.7655367851257324
1403638520667829500,-0.001092471182346344,0.020214548334479332,0.0768025666475296,8.93698787689209,-0.03805096074938774,-3.7738025188446045
1403638520672829500,-0.005907677114009857,0.024442138150334358,0.07618628442287445,8.994206428527832,-0.03773684427142143,-3.81461238861084
1403638520677829500,-0.006643116474151611,0.017491454258561134,0.07747182250022888,8.969904899597168,-0.02206110768020153,-3.782073736190796
1403638520682829500,-0.0024951398372650146,0.019535912200808525,0.07610558718442917,9.06778621673584,-0.04607545584440231,-3.83093523979187
1403638520687829500,-0.0010503530502319336,0.023011041805148125,0.0789588913321495,9.010289192199707,-0.03762944042682648,-3.83091402053833
1403638520692829500,-0.0009969323873519897,0.023047877475619316,0.0788591057062149,9.043132781982422,-0.021237343549728394,-3.8144543170928955
1403638520697829500,0.0017325431108474731,0.020251711830496788,0.08307957649230957,8.953184127807617,-0.0303058922290802,-3.773729085922241
1403638520702829500,0.001020193099975586,0.019511094316840172,0.07824181020259857,8.97783374786377,-0.005384031217545271,-3.765618085861206
1403638520707829500,-0.003834560513496399,0.016708040609955788,0.07887724786996841,8.94526481628418,0.0027256757020950317,-3.7494897842407227
1403638520712829500,-0.0038210153579711914,0.01883442886173725,0.07681654393672943,9.051448822021484,-0.013416195288300514,-3.790203332901001
1403638520717829500,-0.0024711191654205322,0.018881430849432945,0.07962600141763687,8.95322322845459,-0.06270748376846313,-3.798309803009033
1403638520722829500,-0.0038449466228485107,0.020965607836842537,0.07818502187728882,9.15752124786377,0.0030262083746492863,-3.830860137939453
1403638520727829500,-0.0045266300439834595,0.021615004166960716,0.07960586249828339,8.994019508361816,-0.09525981545448303,-3.7572519779205322
1403638520732829500,-0.00315171480178833,0.022331709042191505,0.07749366760253906,9.083874702453613,-0.03779832646250725,-3.78181529045105
1403638520737829500,0.0024233460426330566,0.018112903460860252,0.0775032714009285,8.969676971435547,-0.013409331440925598,-3.7328968048095703
1403638520742829500,-0.0010138601064682007,0.017426198348402977,0.07681183516979218,9.07602310180664,0.0354105643928051,-3.806472063064575
1403638520747829500,-0.0003462284803390503,0.023714883252978325,0.07960966229438782,8.99411392211914,-0.03784330189228058,-3.822760581970215
1403638520752829500,-0.004560336470603943,0.025170842185616493,0.07751093804836273,9.116786003112793,-0.013219855725765228,-3.8390724658966064
1403638520757829500,-0.006666302680969238,0.02168346755206585,0.07892481982707977,8.92887020111084,-0.054283954203128815,-3.806506395339966
1403638520762829500,-0.005211427807807922,0.018130293115973473,0.0754091739654541,9.04313850402832,-0.04627179726958275,-3.8228061199188232
1403638520767829500,-0.004535861313343048,0.022258145734667778,0.07402132451534271,8.896079063415527,-0.07892667502164841,-3.757416009902954
1403638520772829500,-0.0038499534130096436,0.015340989455580711,0.07821302115917206,9.002403259277344,-0.04642994701862335,-3.7901928424835205
1403638520777829500,-0.0010712742805480957,0.018879977986216545,0.07749854028224945,9.051301002502441,-0.04594176635146141,-3.8145036697387695
1403638520782829500,0.0017448961734771729,0.02098255045711994,0.07681777328252792,9.075774192810059,-0.0296036284416914,-3.84724497795105
1403638520787829500,-0.0017387419939041138,0.02509896270930767,0.0796465277671814,9.0186128616333,0.0029389546252787113,-3.798283338546753
1403638520792829500,-0.003812350332736969,0.023040397092700005,0.08027102053165436,9.00226879119873,-0.03812777251005173,-3.7900032997131348
1403638520797829500,-0.0031593888998031616,0.021641967818140984,0.08098435401916504,8.871569633483887,-0.05411068722605705,-3.7574522495269775
1403638520802829500,-0.0010761171579360962,0.01671508513391018,0.08381784707307816,8.969622611999512,-0.06259730458259583,-3.7575230598449707
1403638520807829500,-0.002419702708721161,0.022992542013525963,0.08097322285175323,9.010475158691406,-0.02971694804728031,-3.814626455307007
1403638520812829500,-0.0017495229840278625,0.019581018015742302,0.07890692353248596,9.034936904907227,-0.03800831735134125,-3.8228983879089355
1403638520817829500,-0.003869369626045227,0.020981421694159508,0.07545097172260284,9.124741554260254,-0.029580993577837944,-3.8309144973754883
1403638520822829500,-0.0003549531102180481,0.01673838309943676,0.08305796980857849,8.977724075317383,-0.04646557942032814,-3.790073871612549
1403638520827829500,-0.00100746750831604,0.02367413602769375,0.07817509025335312,9.010461807250977,-0.013347268104553223,-3.7900028228759766
1403638520832829500,-0.0010627061128616333,0.025119049474596977,0.0754316970705986,8.969554901123047,-0.0052696154452860355,-3.79008150100708
1403638520837829500,-0.0038503259420394897,0.019587213173508644,0.07544337213039398,9.00256633758545,0.010919204913079739,-3.78206467628479
1403638520842829500,-0.0038522332906723022,0.01394595392048359,0.0747077539563179,9.018815040588379,-0.013929787091910839,-3.790224075317383
1403638520847829500,-0.004530809819698334,0.02018641121685505,0.07402592152357101,9.09226131439209,0.011107439175248146,-3.7901923656463623
1403638520852829500,-0.003139093518257141,0.023029828444123268,0.0733492374420166,8.993903160095215,-0.08676892518997192,-3.7655866146087646
1403638520857829500,-0.00032317638397216797,0.027981707826256752,0.07399014383554459,9.034685134887695,-0.07036799937486649,-3.822636604309082
1403638520862829500,0.001032128930091858,0.030056117102503777,0.0796387642621994,8.879640579223633,-0.029825596138834953,-3.7574119567871094
1403638520867829500,0.0010531842708587646,0.023690441623330116,0.07616209238767624,9.002459526062012,-0.03004566580057144,-3.7900729179382324
1403638520872829500,-0.0024584680795669556,0.022947875782847404,0.07331522554159164,8.888107299804688,-0.013493591919541359,-3.757535457611084
1403638520877829500,-0.002457350492477417,0.020261293277144432,0.0733112171292305,9.051617622375488,0.06003160402178764,-3.8473875522613525
1403638520882829500,0.000350266695022583,0.022349318489432335,0.07401975989341736,8.969614028930664,-0.04623061418533325,-3.8310115337371826
1403638520887829500,-0.001021362841129303,0.02516164444386959,0.07540988177061081,9.100096702575684,-0.021565621718764305,-3.8226537704467773
1403638520892829500,-0.0010476857423782349,0.027244573459029198,0.07965417206287384,8.969475746154785,-0.06240183860063553,-3.7899577617645264
1403638520897829500,-0.0017525404691696167,0.023022031411528587,0.07748890668153763,9.043063163757324,-0.06261781603097916,-3.798255205154419
1403638520902829500,0.0003417879343032837,0.020862961187958717,0.07610111683607101,8.871512413024902,-0.062239889055490494,-3.782097101211548
1403638520907829500,-0.0017241016030311584,0.015308698639273643,0.07612957060337067,9.067885398864746,-0.005495160818099976,-3.7984018325805664
1403638520912829500,-0.0003536716103553772,0.020218437537550926,0.07540227472782135,9.018716812133789,-0.029955856502056122,-3.7981905937194824
1403638520917829500,-0.0010635927319526672,0.02310842089354992,0.0719294399023056,9.100234031677246,-0.013388010673224926,-3.8390841484069824
1403638520922829500,-0.0024534091353416443,0.025177786126732826,0.07614918053150177,9.043055534362793,-0.01322387158870697,-3.7817916870117188
1403638520927829500,-0.002407267689704895,0.023024631664156914,0.07608330994844437,9.083876609802246,-0.013779813423752785,-3.798168420791626
1403638520932829500,-0.002440616488456726,0.025766758248209953,0.07610595226287842,9.034818649291992,-0.07880974560976028,-3.757343053817749
1403638520937829500,-0.00455135852098465,0.015308169648051262,0.07542350143194199,9.133167266845703,-0.021565841510891914,-3.773730993270874
1403638520942829500,-0.0017576366662979126,0.020911825820803642,0.07608173042535782,9.026958465576172,-0.06239519268274307,-3.8145744800567627
1403638520947829500,-0.0017392933368682861,0.01887473277747631,0.07891310751438141,9.043211936950684,-0.029928401112556458,-3.782057762145996
1403638520952829500,0.0017432495951652527,0.02724405564367771,0.08034959435462952,9.084081649780273,-0.00500960648059845,-3.7818710803985596
1403638520957829500,0.003866136074066162,0.02238144539296627,0.08377594500780106,9.026819229125977,0.010832461528480053,-3.814558267593384
1403638520962829500,0.0024444758892059326,0.018833806738257408,0.07957866042852402,9.010464668273926,0.010909055359661579,-3.7737319469451904
1403638520967829500,0.002429388463497162,0.018082955852150917,0.08238483965396881,9.002227783203125,-0.013666055165231228,-3.7820069789886475
1403638520972829500,-0.003841683268547058,0.020191067829728127,0.07609688490629196,9.01872730255127,-0.013504690490663052,-3.7656404972076416
1403638520977829500,-0.0024590492248535156,0.02237468771636486,0.07890357822179794,8.969624519348145,-0.029914382845163345,-3.7739603519439697
1403638520982829500,-0.0024402812123298645,0.022402165457606316,0.07755547761917114,9.018681526184082,-0.03788718581199646,-3.8147106170654297
1403638520987829500,-0.002439841628074646,0.02165074087679386,0.07751134783029556,9.018509864807129,-0.08710169792175293,-3.7736973762512207
1403638520992829500,-0.002452567219734192,0.02369893155992031,0.07332100719213486,9.051198959350586,-0.054144784808158875,-3.7900145053863525
1403638520997829500,0.0003266632556915283,0.022294173017144203,0.07542955875396729,8.95327091217041,-0.046169355511665344,-3.7900538444519043
1403638521002829500,-0.0017395466566085815,0.02236252836883068,0.07189479470252991,9.059517860412598,0.0028698088135570288,-3.806370973587036
1403638521007829500,-0.00523686408996582,0.024412231519818306,0.07543312013149261,8.91238021850586,-0.03007195144891739,-3.749404191970825
1403638521012829500,-0.007321164011955261,0.022354288026690483,0.07615605741739273,9.0432710647583,0.011120435781776905,-3.8310434818267822
1403638521017829500,-0.004582330584526062,0.023733628913760185,0.07682551443576813,8.945110321044922,-0.11147017031908035,-3.7983040809631348
1403638521022829500,-0.004521667957305908,0.023052019998431206,0.07543747127056122,9.026689529418945,-0.09499695897102356,-3.806431531906128
1403638521027829500,-0.003128930926322937,0.023707294836640358,0.0775223821401596,8.95324993133545,-0.10333026945590973,-3.7736876010894775
1403638521032829500,-0.0031565874814987183,0.0202184971421957,0.07955899834632874,9.051336288452148,-0.09522096812725067,-3.79006028175354
1403638521037829500,0.0017192810773849487,0.01882276125252247,0.07822135090827942,8.920514106750488,-0.09506376832723618,-3.8064537048339844
1403638521042829500,0.0038723796606063843,0.019542889669537544,0.07682443410158157,9.100445747375488,0.019292790442705154,-3.8553764820098877
1403638521047829500,0.002447187900543213,0.01952783577144146,0.08030834048986435,8.953377723693848,-0.0380537323653698,-3.8553333282470703
1403638521052829500,0.003149062395095825,0.024464411661028862,0.08447249978780746,9.116682052612305,0.019353393465280533,-3.8472776412963867
1403638521057829500,-0.0024615973234176636,0.026552708819508553,0.0795845091342926,8.9941987991333,-0.013374795205891132,-3.806339740753174
1403638521062829500,-0.0010447502136230469,0.019541246816515923,0.08236441016197205,9.11667251586914,-0.013770759105682373,-3.8391103744506836
1403638521067829500,-0.003130987286567688,0.020886307582259178,0.07679598778486252,9.05115795135498,-0.013219490647315979,-3.798330545425415
1403638521072829500,-0.0024559348821640015,0.014609059318900108,0.07819975912570953,9.026896476745605,-0.0299164280295372,-3.773867130279541
1403638521077829500,-0.001752421259880066,0.019524941220879555,0.0754539966583252,9.10020637512207,-0.021586066111922264,-3.7736833095550537
1403638521082829500,-0.0017554685473442078,0.016090428456664085,0.07747539132833481,9.124809265136719,-0.038099151104688644,-3.781853675842285
1403638521087829500,0.00036034733057022095,0.02305597998201847,0.07677576690912247,9.141100883483887,-0.005021143238991499,-3.8145196437835693
1403638521092829500,-0.002442970871925354,0.022326363250613213,0.07753144949674606,9.035013198852539,-0.013630715198814869,-3.7981748580932617
1403638521097829500,-0.0038316547870635986,0.023701442405581474,0.07611528038978577,9.010560989379883,0.010975280776619911,-3.7736520767211914
1403638521102829500,-0.004558451473712921,0.018850045278668404,0.07750418037176132,9.035138130187988,0.06790481507778168,-3.7493231296539307
1403638521107829500,-0.006639003753662109,0.023014778271317482,0.07613212615251541,9.00256633758545,0.010923147201538086,-3.757505416870117
1403638521112829500,-0.009445995092391968,0.014663038775324821,0.08517120033502579,9.067638397216797,-0.06259942054748535,-3.7738986015319824
1403638521117829500,-0.015043161809444427,0.021652517840266228,0.08795690536499023,9.214717864990234,-0.06191270798444748,-3.814614772796631
1403638521122829500,-0.016445957124233246,0.02513906918466091,0.09217588603496552,8.969605445861816,-0.258495956659317,-3.741062879562378
1403638521127829500,-0.010845258831977844,0.022311294451355934,0.09847447276115417,8.855325698852539,-0.2990480661392212,-3.708465814590454
1403638521132829500,0.005233943462371826,0.022998569533228874,0.11446601152420044,8.937034606933594,-0.27448952198028564,-3.7818500995635986
1403638521137829500,0.019226565957069397,0.030730003491044044,0.11372490227222443,9.21461009979248,-0.10290904343128204,-3.8961260318756104
1403638521142829500,0.02063152939081192,0.03559626638889313,0.09493570029735565,9.157464981079102,0.0438726469874382,-3.912461757659912
1403638521147829500,0.01155078411102295,0.03493533283472061,0.07122036069631577,9.018936157226562,0.1740746647119522,-3.8471150398254395
1403638521152829500,0.0010155364871025085,0.02656240575015545,0.06771500408649445,8.610298156738281,0.19817160069942474,-3.7822346687316895
1403638521157829500,-0.0010614171624183655,0.013217875733971596,0.08097660541534424,8.798480987548828,0.27198249101638794,-3.8396835327148438
1403638521162829500,-0.004551514983177185,0.01248273067176342,0.09704875946044922,8.83137321472168,0.28818002343177795,-3.8233907222747803
1403638521167829500,-0.011543020606040955,0.011185551062226295,0.0802917629480362,9.051572799682617,0.2551690936088562,-3.823253870010376
1403638521172829500,-0.022777311503887177,0.00838802196085453,0.05521416664123535,9.042611122131348,-0.038433197885751724,-3.7820003032684326
1403638521177829500,-0.02135581523180008,0.0076992809772491455,0.037776242941617966,9.189483642578125,-0.1848755180835724,-3.7816967964172363
1403638521182829500,-0.007268577814102173,0.018092384561896324,0.04401032254099846,9.042496681213379,-0.24170365929603577,-3.789766311645508
1403638521187829500,0.006069965660572052,0.025109989568591118,0.0552123598754406,9.001893997192383,-0.029997913166880608,-3.7735214233398438
1403638521192829500,0.00181637704372406,0.02585787884891033,0.05667635798454285,8.912342071533203,-0.046407751739025116,-3.7815229892730713
1403638521197829500,-0.005287468433380127,0.023767700418829918,0.052465736865997314,9.067951202392578,0.002566136419773102,-3.8468568325042725
1403638521202829500,-0.009474322199821472,0.028565919026732445,0.05457045137882233,8.921270370483398,-0.05389587581157684,-3.789917469024658
1403638521207829500,-0.007281683385372162,0.024416876956820488,0.0663229450583458,8.9945707321167,-0.11901955306529999,-3.806487798690796
1403638521212829500,-0.008644960820674896,0.021663425490260124,0.0767194926738739,8.84688663482666,-0.16785664856433868,-3.7493343353271484
1403638521217829500,-0.010184243321418762,0.016067111864686012,0.08865893632173538,9.002087593078613,-0.14414545893669128,-3.7819888591766357
1403638521222829500,-0.010974332690238953,0.018084881827235222,0.09228259325027466,9.067832946777344,-0.13608482480049133,-3.7573482990264893
1403638521227829500,0.0010020583868026733,0.01251981221139431,0.0908648669719696,9.092470169067383,-0.11156012862920761,-3.7002460956573486
1403638521232829500,0.003939993679523468,0.013967325910925865,0.07883475720882416,9.092267036437988,-0.1438491940498352,-3.7492010593414307
1403638521237829500,0.010211877524852753,0.014662429690361023,0.06745290756225586,9.255453109741211,-0.1526823490858078,-3.773404598236084
1403638521242829500,0.012266337871551514,0.025107303634285927,0.06334692239761353,9.26373291015625,0.010553906671702862,-3.797844648361206
1403638521247829500,0.011495701968669891,0.030747490003705025,0.07482540607452393,9.035257339477539,0.18129269778728485,-3.765537738800049
1403638521252829500,0.001080349087715149,0.030766552314162254,0.07566437125205994,8.945566177368164,0.32870373129844666,-3.7494187355041504
1403638521257829500,-0.003801390528678894,0.020228086039423943,0.0832030177116394,9.100517272949219,0.19862984120845795,-3.7740390300750732
1403638521262829500,-0.012218080461025238,0.02433907799422741,0.07389330118894577,9.15757942199707,0.06887073814868927,-3.7740070819854736
1403638521267829500,-0.017186664044857025,0.019501598551869392,0.06888508051633835,9.116722106933594,-0.07046755403280258,-3.7657973766326904
1403638521272829500,-0.012951165437698364,0.025892188772559166,0.06145031750202179,9.09998607635498,-0.16819500923156738,-3.798274040222168
1403638521277829500,-0.0038945376873016357,0.02519882284104824,0.06234162300825119,8.960945129394531,-0.20073072612285614,-3.7900102138519287
1403638521282829500,0.003869980573654175,0.027209153398871422,0.06303168088197708,9.010518074035645,-0.1110294833779335,-3.847142219543457
1403638521287829500,0.006013631820678711,0.02297949232161045,0.06574201583862305,8.896454811096191,-0.08751744776964188,-3.8388962745666504
1403638521292829500,0.005957245826721191,0.027214037254452705,0.06626519560813904,9.018841743469238,0.02724047563970089,-3.8389463424682617
1403638521297829500,0.000300481915473938,0.023751275613904,0.06902936100959778,8.86355209350586,0.010966007597744465,-3.7901110649108887
1403638521302829500,-0.006618395447731018,0.018152641132473946,0.06705346703529358,8.88002872467041,0.002560368273407221,-3.7902512550354004
1403638521307829500,-0.004502616822719574,0.012567402794957161,0.07132640480995178,8.871362686157227,-0.12024720758199692,-3.7820427417755127
1403638521312829500,-0.0031409189105033875,0.012552255764603615,0.07343168556690216,8.944714546203613,-0.13646702468395233,-3.7656707763671875
1403638521317829500,-0.004578739404678345,0.00903269462287426,0.0775473564863205,8.977416038513184,-0.16841992735862732,-3.7654905319213867
1403638521322829500,-0.0024917200207710266,0.018166588619351387,0.08023501932621002,9.15730094909668,-0.13558422029018402,-3.7898552417755127
1403638521327829500,0.0031052008271217346,0.022348539903759956,0.08649790287017822,8.953189849853516,-0.160268634557724,-3.7246224880218506
1403638521332829500,0.003171361982822418,0.020957162603735924,0.08301617205142975,9.08395767211914,-0.06286679953336716,-3.765550136566162
1403638521337829500,0.002489142119884491,0.030006537213921547,0.08311682939529419,9.010318756103516,-0.11964219808578491,-3.8062262535095215
1403638521342829500,-0.0024602264165878296,0.030725644901394844,0.08386532962322235,9.002372741699219,-0.054329369217157364,-3.8473401069641113
1403638521347829500,-0.0025114938616752625,0.028606383129954338,0.0963728055357933,8.888360977172852,-0.02999659813940525,-3.814788341522217
1403638521352829500,-0.001030154526233673,0.023752229288220406,0.10261615365743637,8.921041488647461,-0.05472525954246521,-3.855630397796631
1403638521357829500,-0.0017412230372428894,0.020900698378682137,0.09697969257831573,8.937092781066895,-0.11080405116081238,-3.790405750274658
1403638521362829500,0.003095582127571106,0.014602398499846458,0.09486386179924011,9.002514839172363,-0.028995700180530548,-3.8230743408203125
1403638521367829500,0.00029678642749786377,0.01531376875936985,0.09632003307342529,8.986102104187012,-0.045701395720243454,-3.8310112953186035
1403638521372829500,0.004502236843109131,0.011888166889548302,0.09563258290290833,9.092022895812988,-0.05438530072569847,-3.8309314250946045
1403638521377829500,0.005941450595855713,0.018834305927157402,0.09428846836090088,9.084084510803223,0.0276333000510931,-3.806457996368408
1403638521382829500,0.005954548716545105,0.013990303501486778,0.09076958894729614,9.027131080627441,0.08429909497499466,-3.7738382816314697
1403638521387829500,0.001756042242050171,0.018833300098776817,0.08721040934324265,9.100401878356934,0.04363344609737396,-3.7818973064422607
1403638521392829500,0.0010309293866157532,0.01534203626215458,0.08028396219015121,9.092002868652344,0.06782661378383636,-3.7819983959198
1403638521397829500,-0.0010428428649902344,0.020917700603604317,0.07678622007369995,9.149420738220215,0.1085352674126625,-3.757388114929199
1403638521402829500,-0.006635531783103943,0.018142877146601677,0.07956433296203613,9.043070793151855,0.04299791902303696,-3.7411108016967773
1403638521407829500,-0.011500358581542969,0.023738356307148933,0.07194117456674576,9.132855415344238,0.07659053802490234,-3.798292636871338
1403638521412829500,-0.008080348372459412,0.026537662371993065,0.07619879394769669,9.002054214477539,-0.10329087823629379,-3.749234199523926
1403638521417829500,-0.010851338505744934,0.019502809271216393,0.07199142873287201,9.010454177856445,-0.18469899892807007,-3.7736048698425293
1403638521422829500,-0.0024526268243789673,0.01952163316309452,0.07608607411384583,8.977931022644043,-0.1763565093278885,-3.7735092639923096
1403638521427829500,-0.0031371265649795532,0.019555578008294106,0.07329311221837997,9.051694869995117,-0.029793469235301018,-3.8144500255584717
1403638521432829500,-0.0038725584745407104,0.016734113916754723,0.07540087401866913,8.978014945983887,-0.022179683670401573,-3.81453800201416
1403638521437829500,-0.0038048550486564636,0.022367941215634346,0.07543082535266876,9.149506568908691,0.011299031786620617,-3.8634378910064697
1403638521442829500,-0.0052390992641448975,0.02654437907040119,0.07898281514644623,8.961446762084961,-0.1356566995382309,-3.798118829727173
1403638521447829500,-0.000341661274433136,0.023726606741547585,0.08240053057670593,9.002158164978027,-0.14386402070522308,-3.76548171043396
1403638521452829500,0.0024701207876205444,0.02089410088956356,0.07954459637403488,8.953251838684082,-0.07854097336530685,-3.781771183013916
1403638521457829500,0.0038551688194274902,0.0181389469653368,0.07747577875852585,9.035027503967285,-0.01364969927817583,-3.7575197219848633
1403638521462829500,0.0023892968893051147,0.012503748759627342,0.0803183913230896,8.887853622436523,-0.06287607550621033,-3.708611011505127
1403638521467829500,-0.0017620325088500977,0.008361997082829475,0.08238588273525238,9.084017753601074,-0.09514547139406204,-3.7899692058563232
1403638521472829500,-0.003872126340866089,0.021684827283024788,0.09080834686756134,8.977622032165527,-0.135330930352211,-3.781769275665283
1403638521477829500,-0.0003441944718360901,0.025879954919219017,0.09145291149616241,9.149128913879395,-0.07030002027750015,-3.8308663368225098
1403638521482829500,0.0031703412532806396,0.031433068215847015,0.09698619693517685,9.034789085388184,-0.15236330032348633,-3.7980215549468994
1403638521487829500,-0.00037070363759994507,0.032820962369441986,0.09843603521585464,8.994094848632812,-0.03832608088850975,-3.8146700859069824
1403638521492829500,-0.0017873048782348633,0.027846528217196465,0.10264036059379578,8.806570053100586,-0.01331879198551178,-3.765981912612915
1403638521497829500,0.0016997158527374268,0.02718169055879116,0.1102728471159935,8.937374114990234,0.10947447270154953,-3.9211175441741943
1403638521502829500,-0.005274146795272827,0.03073723055422306,0.10469119250774384,8.888389587402344,0.1829419881105423,-3.8967514038085938
1403638521507829500,-0.012244276702404022,0.0196139644831419,0.09770610928535461,8.937315940856934,0.21457909047603607,-3.8887269496917725
1403638521512829500,-0.02276267111301422,0.016042089089751244,0.09006520360708237,8.888199806213379,0.1659245789051056,-3.8150956630706787
1403638521517829500,-0.0234832763671875,0.006222739815711975,0.0893227681517601,8.887901306152344,-0.005592491012066603,-3.7659525871276855
1403638521522829500,-0.029690153896808624,0.0026896409690380096,0.0991080179810524,8.99399471282959,-0.18484430015087128,-3.7250382900238037
1403638521527829500,-0.0198974609375,0.0006386712193489075,0.10680897533893585,9.16549301147461,-0.3402288854122162,-3.732793092727661
1403638521532829500,-0.008736632764339447,0.013271616771817207,0.11237969994544983,9.181769371032715,-0.42173686623573303,-3.724304676055908
1403638521537829500,0.003134123980998993,0.018854929134249687,0.11729775369167328,9.181681632995605,-0.356363445520401,-3.7161929607391357
1403638521542829500,0.01019132137298584,0.03492424637079239,0.12773072719573975,9.149438858032227,-0.30670490860939026,-3.756909132003784
1403638521547829500,0.0199093297123909,0.03912199288606644,0.13324514031410217,9.010537147521973,-0.15154071152210236,-3.7571561336517334
1403638521552829500,0.01780487596988678,0.038345083594322205,0.13534384965896606,9.076369285583496,0.1013561487197876,-3.830803871154785
1403638521557829500,0.010084599256515503,0.03905054181814194,0.12700414657592773,9.002913475036621,0.13317281007766724,-3.9044437408447266
1403638521562829500,0.0010061338543891907,0.037694185972213745,0.11583475768566132,8.96198844909668,0.17469406127929688,-3.9210944175720215
1403638521567829500,0.0009304136037826538,0.02793988399207592,0.10889816284179688,8.798645973205566,0.199159637093544,-3.872504711151123
1403638521572829500,-0.0017794966697692871,0.01958356611430645,0.09417114406824112,8.904891014099121,0.28015756607055664,-3.8969643115997314
1403638521577829500,-0.005248606204986572,0.011137591674923897,0.07813054323196411,8.781743049621582,0.18937845528125763,-3.8479092121124268
1403638521582829500,-0.004556998610496521,0.008315326645970345,0.058693721890449524,9.05108642578125,0.17355436086654663,-3.8719875812530518
1403638521587829500,-0.006661929190158844,0.008357807993888855,0.03988238424062729,9.132759094238281,0.14121146500110626,-3.8389453887939453
1403638521592829500,-0.004462212324142456,0.011892180889844894,0.01966666802763939,9.157390594482422,0.2716967761516571,-3.749182939529419
1403638521597829500,-0.007918670773506165,0.010424705222249031,0.01059197261929512,8.993853569030762,0.2711640000343323,-3.675647258758545
1403638521602829500,-0.012141242623329163,0.011839883401989937,4.380941390991211e-05,9.181736946105957,0.1897953748703003,-3.6916511058807373
1403638521607829500,-0.01987246423959732,0.02023201249539852,0.00012382492423057556,9.10792064666748,0.035735923796892166,-3.740577459335327
1403638521612829500,-0.021976288408041,0.030043983832001686,0.006523989140987396,9.173572540283203,-0.0453045554459095,-3.7896134853363037
1403638521617829500,-0.012187622487545013,0.03423531353473663,0.016950342804193497,9.00206184387207,-0.2820553779602051,-3.805652618408203
1403638521622829500,-0.003790035843849182,0.03561647981405258,0.028069574385881424,8.969422340393066,-0.3474350869655609,-3.797595739364624
1403638521627829500,0.001774802803993225,0.03346747159957886,0.04062175005674362,8.806324005126953,-0.40438762307167053,-3.7813897132873535
1403638521632829500,0.005199074745178223,0.025080176070332527,0.05239524319767952,8.904765129089355,-0.315399706363678,-3.855005979537964
1403638521637829500,0.010096266865730286,0.024398038163781166,0.06570976972579956,8.774018287658691,-0.31563955545425415,-3.8796298503875732
1403638521642829500,0.015740662813186646,0.018879061564803123,0.07964296638965607,8.921043395996094,-0.19324928522109985,-3.9533019065856934
1403638521647829500,0.013666637241840363,0.02375139109790325,0.09211830049753189,8.806999206542969,-0.1605527102947235,-3.888141393661499
1403638521652829500,0.012926585972309113,0.011194171383976936,0.09207665175199509,8.831367492675781,0.0017506241565570235,-3.8394644260406494
1403638521657829500,0.0031009986996650696,0.009727029129862785,0.0864916443824768,9.05153751373291,0.026300106197595596,-3.8393332958221436
1403638521662829500,0.002421945333480835,0.013913298025727272,0.08650416135787964,9.149068832397461,0.002382647944614291,-3.798414707183838
1403638521667829500,-0.0010250210762023926,0.014618689194321632,0.08026015013456345,8.98569107055664,0.011633152142167091,-3.7577013969421387
1403638521672829500,-0.0003426745533943176,0.006315069273114204,0.07887840270996094,9.124587059020996,-0.054548125714063644,-3.733001470565796
1403638521677829500,-0.0017501115798950195,0.018884064629673958,0.07609492540359497,9.255178451538086,0.010916868224740028,-3.7819466590881348
1403638521682829500,-0.008093461394309998,0.020237145945429802,0.07955368608236313,9.181818008422852,0.043587591499090195,-3.6843042373657227
1403638521687829500,-0.012244410812854767,0.023696618154644966,0.07890433073043823,9.222757339477539,-0.05389740690588951,-3.7492055892944336
1403638521692829500,-0.005216941237449646,0.0356561541557312,0.08592525869607925,9.140979766845703,-0.11143913865089417,-3.7328104972839355
1403638521697829500,-0.005886927247047424,0.036331161856651306,0.09078378975391388,8.994136810302734,-0.16861458122730255,-3.708554267883301
1403638521702829500,-0.001064404845237732,0.030644355341792107,0.09289894998073578,8.91275405883789,-0.19305750727653503,-3.741349697113037
1403638521707829500,0.0038148611783981323,0.027215564623475075,0.09851525723934174,9.051785469055176,-0.1678391546010971,-3.831104040145874
1403638521712829500,0.006547741591930389,0.023716753348708153,0.1110195517539978,8.97806167602539,-0.16057154536247253,-3.8394412994384766
1403638521717829500,0.012220986187458038,0.02578738145530224,0.11652509868144989,9.0109281539917,-0.05426102504134178,-3.8392670154571533
1403638521722829500,0.010852977633476257,0.018875649198889732,0.11723492294549942,8.92133903503418,0.019207507371902466,-3.822784185409546
1403638521727829500,0.006585448980331421,0.01749449409544468,0.10673416405916214,9.092576026916504,0.18255412578582764,-3.814892292022705
1403638521732829500,0.0009786784648895264,0.01740111969411373,0.10116074979305267,8.986221313476562,0.2550029158592224,-3.7497591972351074
1403638521737829500,-0.005233980715274811,0.015323067083954811,0.08866072446107864,9.182299613952637,0.2793036997318268,-3.814915180206299
1403638521742829500,-0.011524558067321777,0.01535128615796566,0.07608047127723694,9.141092300415039,0.2714836597442627,-3.790329933166504
1403638521747829500,-0.016365282237529755,0.02100231684744358,0.056519150733947754,9.255435943603516,0.23894618451595306,-3.7983551025390625
1403638521752829500,-0.02199188992381096,0.023054884746670723,0.048897482454776764,9.06728458404541,0.09195143729448318,-3.7654812335968018
1403638521757829500,-0.02342742308974266,0.020212704315781593,0.03217841684818268,9.181520462036133,-0.030247334390878677,-3.789759397506714
1403638521762829500,-0.01918506994843483,0.02931404672563076,0.03711614012718201,8.993654251098633,-0.16853934526443481,-3.7489078044891357
1403638521767829500,-0.012179441750049591,0.022314948961138725,0.04483425244688988,8.945094108581543,-0.19274704158306122,-3.7651946544647217
1403638521772829500,-0.005899593234062195,0.01947074942290783,0.0503508485853672,8.936992645263672,-0.29048585891723633,-3.7485620975494385
1403638521777829500,-0.000326402485370636,0.020961588248610497,0.058068834245204926,9.043225288391113,-0.26609691977500916,-3.789546012878418
1403638521782829500,0.004537865519523621,0.023730238899588585,0.06644396483898163,8.953422546386719,-0.2578330338001251,-3.7488019466400146
1403638521787829500,0.008741021156311035,0.01815384067595005,0.07188158482313156,9.035030364990234,-0.23329046368598938,-3.8303418159484863
1403638521792829500,0.014363452792167664,0.029333380982279778,0.07611409574747086,8.985990524291992,-0.15931662917137146,-3.8468000888824463
1403638521797829500,0.019243687391281128,0.029351593926548958,0.07749005407094955,8.994240760803223,-0.021066414192318916,-3.879794120788574
1403638521802829500,0.020605631172657013,0.02929185889661312,0.07675282657146454,8.93727970123291,0.11699464917182922,-3.8308708667755127
1403638521807829500,0.016392946243286133,0.0195471178740263,0.0768466666340828,8.937295913696289,0.1654878705739975,-3.8066680431365967
1403638521812829500,0.009397566318511963,0.018110213801264763,0.07748980075120926,8.994351387023926,0.23092424869537354,-3.8068296909332275
1403638521817829500,0.0010230392217636108,0.013915078714489937,0.07880136370658875,9.002311706542969,0.18992987275123596,-3.79052472114563
1403638521822829500,-0.004547193646430969,0.013974590227007866,0.07748052477836609,9.018377304077148,0.05936482548713684,-3.790323495864868
1403638521827829500,-0.0052493661642074585,0.011204222217202187,0.07821039110422134,9.04255485534668,-0.07145863026380539,-3.765796184539795
1403638521832829500,-0.0010568201541900635,0.017439497634768486,0.08099812269210815,9.148919105529785,-0.054656919091939926,-3.790088176727295
1403638521837829500,-0.00244913250207901,0.016696328297257423,0.08383016288280487,9.01032543182373,-0.07898921519517899,-3.7574563026428223
1403638521842829500,-0.0017407238483428955,0.02160097099840641,0.08587157726287842,9.124856948852539,-0.05381767451763153,-3.7491824626922607
1403638521847829500,-0.004558071494102478,0.02374493144452572,0.09282630681991577,9.03508472442627,-0.08648204803466797,-3.7655129432678223
1403638521852829500,-0.005265817046165466,0.02653760276734829,0.08724689483642578,9.157705307006836,-0.06983764469623566,-3.8226170539855957
1403638521857829500,-0.00034771859645843506,0.034879349172115326,0.09079985320568085,9.034957885742188,-0.14297859370708466,-3.8226664066314697
1403638521862829500,0.007343605160713196,0.0321323424577713,0.08942453563213348,9.002361297607422,-0.20859210193157196,-3.8227133750915527
1403638521867829500,0.012914121150970459,0.02649378590285778,0.08586152642965317,8.887901306152344,-0.30718016624450684,-3.8144383430480957
1403638521872829500,0.016408436000347137,0.028561873361468315,0.08450278639793396,8.977856636047363,-0.2173454463481903,-3.8308353424072266
1403638521877829500,0.024782106280326843,0.01807939074933529,0.09013012051582336,8.765718460083008,-0.24246181547641754,-3.757436752319336
1403638521882829500,0.02197226881980896,0.006956437602639198,0.09421677887439728,8.978018760681152,-0.22663676738739014,-3.765510320663452
1403638521887829500,0.021983928978443146,0.009771382436156273,0.0949854850769043,8.945100784301758,-0.20198483765125275,-3.72460675239563
1403638521892829500,0.02410215139389038,0.008370140567421913,0.09705448150634766,9.124795913696289,-0.16945181787014008,-3.700112819671631
1403638521897829500,0.02615410089492798,0.013227498158812523,0.10325850546360016,9.091782569885254,-0.1856454610824585,-3.634613037109375
1403638521902829500,0.02970968186855316,0.020301038399338722,0.10330083221197128,9.173418998718262,-0.10387694090604782,-3.6427931785583496
1403638521907829500,0.03249487280845642,0.02302306704223156,0.10333545506000519,9.108147621154785,0.027376795187592506,-3.651183843612671
1403638521912829500,0.02545291930437088,0.02436169795691967,0.09490141272544861,9.182099342346191,0.19069857895374298,-3.7166590690612793
1403638521917829500,0.012153774499893188,0.0293030496686697,0.08583136647939682,9.035449028015137,0.33754977583885193,-3.700495481491089
1403638521922829500,0.00872090458869934,0.019556468352675438,0.0705166608095169,9.108898162841797,0.3207152783870697,-3.6923906803131104
1403638521927829500,0.003103688359260559,0.023010889068245888,0.05864807218313217,9.149325370788574,0.2072175145149231,-3.7330195903778076
1403638521932829500,0.00034543871879577637,0.015360066667199135,0.03702560067176819,9.29610538482666,-0.02168186381459236,-3.7081973552703857
1403638521937829500,0.011575490236282349,0.01878592185676098,0.018883876502513885,9.565113067626953,-0.28346186876296997,-3.699270009994507
1403638521942829500,0.031113922595977783,0.041864484548568726,0.00842137262225151,9.703461647033691,-0.44663625955581665,-3.698716402053833
1403638521947829500,0.049357980489730835,0.0768267810344696,0.0021714121103286743,9.450559616088867,-0.3634941279888153,-3.690704107284546
1403638521952829500,0.0627065896987915,0.10128854960203171,0.012020375579595566,9.222153663635254,-0.19218631088733673,-3.6909093856811523
1403638521957829500,0.0653800368309021,0.1117578074336052,0.03514036908745766,8.765230178833008,-0.1599590927362442,-3.5850026607513428
1403638521962829500,0.06526462733745575,0.08371604233980179,0.056035034358501434,8.504292488098145,-0.20931492745876312,-3.462994337081909
1403638521967829500,0.0680885910987854,0.05419798940420151,0.062346432358026505,8.50456428527832,-0.30714303255081177,-3.5282578468322754
1403638521972829500,0.07084773480892181,0.029136216267943382,0.05883745104074478,8.55328369140625,-0.38958024978637695,-3.609891653060913
1403638521977829500,0.07851162552833557,0.004882199689745903,0.04897640272974968,8.340524673461914,-0.46405473351478577,-3.446749448776245
1403638521982829500,0.08692629635334015,-0.03560154139995575,0.0342690572142601,8.66696834564209,-0.6928064227104187,-3.584554433822632
1403638521987829500,0.09528931975364685,-0.02864939719438553,0.03288380801677704,9.017930030822754,-0.5526754260063171,-3.772033214569092
1403638521992829500,0.10788828134536743,-0.022401347756385803,0.06572232395410538,8.57766056060791,-0.22682130336761475,-3.5281529426574707
1403638521997829500,0.10306194424629211,-0.03216106444597244,0.08097896724939346,8.766103744506836,0.09086671471595764,-3.7896811962127686
1403638522002829500,0.08549964427947998,-0.03551843762397766,0.085857093334198,8.873003959655762,0.4174277186393738,-3.7981019020080566
1403638522007829500,0.06169232726097107,-0.045351654291152954,0.08024746179580688,9.338041305541992,0.49961790442466736,-4.182328224182129
1403638522012829500,0.030250266194343567,-0.053168006241321564,0.06546156853437424,9.362606048583984,0.6222844123840332,-4.264199256896973
1403638522017829500,0.00795765221118927,-0.057067617774009705,0.052284713834524155,10.031962394714355,0.5743110775947571,-4.483585357666016
1403638522022829500,0.0010286122560501099,-0.0417000874876976,0.03428366407752037,9.875221252441406,0.2476271688938141,-4.2063446044921875
1403638522027829500,-0.002476513385772705,-0.045368026942014694,0.009732618927955627,9.745031356811523,0.10961662977933884,-4.189907073974609
1403638522032829500,-0.010208219289779663,-0.04409001022577286,-0.006940864026546478,9.411067962646484,0.019392821937799454,-4.01823091506958
1403638522037829500,-0.019285492599010468,-0.05581299215555191,-0.009688839316368103,9.411142349243164,0.12534376978874207,-4.108483791351318
1403638522042829500,-0.03051333874464035,-0.050266459584236145,0.0013716518878936768,9.57459545135498,0.0360383540391922,-4.271410942077637
1403638522047829500,-0.0346260592341423,-0.04663725942373276,0.014750469475984573,9.615821838378906,-0.16781656444072723,-4.319553852081299
1403638522052829500,-0.03382912278175354,-0.04451708495616913,0.030229127034544945,9.337879180908203,-0.32304638624191284,-4.237469673156738
1403638522057829500,-0.019904300570487976,-0.06335631757974625,0.041984446346759796,9.427096366882324,-0.40513575077056885,-4.229048252105713
1403638522062829500,-0.005231209099292755,-0.08382507413625717,0.04053067788481712,9.475998878479004,-0.35573863983154297,-4.25340461730957
1403638522067829500,0.004621043801307678,-0.10843063145875931,0.034126728773117065,9.615242958068848,-0.18429802358150482,-4.237697124481201
1403638522072829500,0.007421940565109253,-0.11390504986047745,0.027691636234521866,9.770633697509766,-0.06226325407624245,-4.303077697753906
1403638522077829500,0.011586233973503113,-0.11919040232896805,0.02564779669046402,9.999053955078125,-0.08659135550260544,-4.392891883850098
1403638522082829500,0.015105418860912323,-0.10790586471557617,0.02302642911672592,10.243145942687988,-0.248899906873703,-4.4821977615356445
1403638522087829500,0.02631206065416336,-0.10380580276250839,0.02519071474671364,10.12876033782959,-0.2489350289106369,-4.3271708488464355
1403638522092829500,0.031207039952278137,-0.09834546595811844,0.02856144681572914,9.997916221618652,-0.3811805844306946,-4.26140022277832
1403638522097829500,0.0437169149518013,-0.09706699848175049,0.03964044153690338,9.890949249267578,-0.4641930162906647,-4.204125881195068
1403638522102829500,0.050700217485427856,-0.0908070057630539,0.056428879499435425,9.859036445617676,-0.4714016318321228,-4.1066131591796875
1403638522107829500,0.06392398476600647,-0.08727886527776718,0.08509229123592377,9.851322174072266,-0.49467796087265015,-4.115133762359619
1403638522112829500,0.06671132147312164,-0.08439714461565018,0.1095566377043724,9.93287467956543,-0.34709322452545166,-4.180495738983154
1403638522117829500,0.07224838435649872,-0.06970049440860748,0.13186600804328918,10.022377014160156,-0.19281935691833496,-4.196931838989258
1403638522122829500,0.07366900146007538,-0.05086051672697067,0.1387282907962799,10.120485305786133,-0.20088446140289307,-4.171984672546387
1403638522127829500,0.07712171971797943,-0.036171868443489075,0.1442086398601532,10.202034950256348,-0.190939798951149,-4.327026844024658
1403638522132829500,0.08276496827602386,-0.01729498617351055,0.14354845881462097,10.120474815368652,-0.1743977963924408,-4.213447093963623
1403638522137829500,0.08968594670295715,-0.005489782430231571,0.14359864592552185,9.96530818939209,-0.04525600001215935,-4.246790409088135
1403638522142829500,0.08970454335212708,0.007804954424500465,0.13736256957054138,10.2185697555542,0.05222717300057411,-4.328371047973633
1403638522147829500,0.09038838744163513,0.02452130801975727,0.12902045249938965,10.005846977233887,0.002978164004161954,-4.181737899780273
1403638522152829500,0.09813305735588074,0.03925052285194397,0.1275947391986847,10.038351058959961,0.11722428351640701,-4.23893928527832
1403638522157829500,0.1030074805021286,0.04544413089752197,0.1275685429573059,10.037429809570312,-0.014165043830871582,-4.246452808380127
1403638522162829500,0.10023219883441925,0.0642918050289154,0.12063178420066833,10.160319328308105,0.17393344640731812,-4.303595542907715
1403638522167829500,0.09950119256973267,0.08029939234256744,0.1270376741886139,10.070845603942871,0.2638518512248993,-4.263073921203613
1403638522172829500,0.09247179329395294,0.09780797362327576,0.12425443530082703,10.25087833404541,0.2557196319103241,-4.319737434387207
1403638522177829500,0.08270151913166046,0.10968441516160965,0.12424282729625702,10.021822929382324,0.1669067144393921,-4.230188369750977
1403638522182829500,0.08279573917388916,0.11945893615484238,0.1214725598692894,10.177149772644043,0.1103491261601448,-4.254746913909912
1403638522187829500,0.0806506872177124,0.1312272548675537,0.12484005838632584,10.079127311706543,0.061292000114917755,-4.1972150802612305
1403638522192829500,0.0785166323184967,0.13544303178787231,0.1185310035943985,10.250808715820312,0.1508958339691162,-4.3198018074035645
1403638522197829500,0.07787519693374634,0.15077270567417145,0.11728440225124359,10.291172981262207,0.11791041493415833,-4.262760639190674
1403638522202829500,0.07996593415737152,0.15563730895519257,0.11518257856369019,10.291364669799805,0.012242249213159084,-4.246440887451172
1403638522207829500,0.08280646800994873,0.16397546231746674,0.10044696182012558,10.274807929992676,-0.15049231052398682,-4.2298197746276855
1403638522212829500,0.0919964462518692,0.17028896510601044,0.09770189225673676,10.266551971435547,-0.25733959674835205,-4.066372871398926
1403638522217829500,0.1003466248512268,0.18075035512447357,0.0977012887597084,10.095247268676758,-0.26621323823928833,-4.01737117767334
1403638522222829500,0.11218640208244324,0.18079406023025513,0.10251514613628387,10.307853698730469,-0.22586612403392792,-4.033536911010742
1403638522227829500,0.11713960766792297,0.19405187666416168,0.1033729612827301,10.365147590637207,-0.18410319089889526,-3.9517838954925537
1403638522232829500,0.11920467019081116,0.19759070873260498,0.10824704170227051,10.406424522399902,-0.1104196235537529,-4.001211166381836
1403638522237829500,0.1177913099527359,0.2087041139602661,0.10324276238679886,10.487907409667969,-0.19189749658107758,-4.025269985198975
1403638522242829500,0.12058186531066895,0.2171158343553543,0.10191737860441208,10.430623054504395,-0.23297825455665588,-3.96814227104187
1403638522247829500,0.13178573548793793,0.2240961790084839,0.10263735055923462,10.398444175720215,-0.17560230195522308,-3.984769105911255
1403638522252829500,0.13596965372562408,0.2317880541086197,0.11306724697351456,10.349817276000977,-0.06163006275892258,-4.001192569732666
1403638522257829500,0.1310630589723587,0.23531301319599152,0.11594893783330917,10.390972137451172,-0.012512479908764362,-4.07510232925415
1403638522262829500,0.12961067259311676,0.24087966978549957,0.12366287410259247,10.243820190429688,-0.037247493863105774,-4.042593955993652
1403638522267829500,0.13380976021289825,0.24368049204349518,0.1270729899406433,10.276471138000488,-0.03683919087052345,-4.02608060836792
1403638522272829500,0.13313838839530945,0.24579013884067535,0.13124772906303406,10.235404014587402,-0.028914213180541992,-4.0505690574646
1403638522277829500,0.1345774382352829,0.24508784711360931,0.13060449063777924,10.300836563110352,0.04461295157670975,-4.0424909591674805
1403638522282829500,0.14150391519069672,0.24364496767520905,0.13621267676353455,10.211005210876465,0.17517435550689697,-4.026140213012695
1403638522287829500,0.13658566772937775,0.24366916716098785,0.1271248459815979,10.374858856201172,0.21579839289188385,-4.074967861175537
1403638522292829500,0.13385134935379028,0.24363382160663605,0.12505494058132172,10.341964721679688,0.22428075969219208,-4.091353416442871
1403638522297829500,0.13037221133708954,0.24300046265125275,0.12015306949615479,10.374996185302734,0.28987017273902893,-4.107768535614014
1403638522302829500,0.12747319042682648,0.2394789606332779,0.11305356025695801,10.276374816894531,0.11813865602016449,-4.131961822509766
1403638522307829500,0.12892799079418182,0.23945562541484833,0.10616709291934967,10.276106834411621,0.08564623445272446,-4.1646318435668945
1403638522312829500,0.1296301931142807,0.24012373387813568,0.11045442521572113,9.989946365356445,0.044519420713186264,-4.1238112449646
1403638522317829500,0.1309664249420166,0.22615738213062286,0.10757601261138916,10.039192199707031,-0.0461469404399395,-4.139922142028809
1403638522322829500,0.13166815042495728,0.21425585448741913,0.10622954368591309,9.94079875946045,-0.053675003349781036,-4.140061378479004
1403638522327829500,0.13101820647716522,0.1995754837989807,0.1027153953909874,9.932948112487793,0.0036166133359074593,-4.091387748718262
1403638522332829500,0.12745575606822968,0.18977297842502594,0.10187205672264099,9.826492309570312,-0.0704529881477356,-4.091151714324951
1403638522337829500,0.11978583037853241,0.17728741466999054,0.09145893156528473,9.916295051574707,-0.13587482273578644,-4.074613094329834
1403638522342829500,0.11909359693527222,0.17241840064525604,0.08946557343006134,9.793693542480469,-0.18456533551216125,-3.9684157371520996
1403638522347829500,0.11979523301124573,0.15841737389564514,0.09287721663713455,9.842845916748047,-0.23383647203445435,-3.8867244720458984
