#timestamp [ns],w_RS_S_x [rad s^-1],w_RS_S_y [rad s^-1],w_RS_S_z [rad s^-1],a_RS_S_x [m s^-2],a_RS_S_y [m s^-2],a_RS_S_z [m s^-2]
1403638518097829500,0.0006981317007977319,0.01884955592153876,0.07819075048934597,9.087495666666666,-0.057205458333333334,-3.8245934999999998
1403638518102829500,-0.0041887902047863905,0.02234021442552742,0.07609635538695278,9.013945791666666,-0.057205458333333334,-3.800076875
1403638518107829500,-0.0020943951023931952,0.020943951023931952,0.07819075048934597,9.013945791666666,-0.032688833333333334,-3.800076875
1403638518112829500,-0.0041887902047863905,0.020943951023931952,0.07888888219014369,8.932223708333334,-0.024516625,-3.800076875
1403638518117829500,-0.0013962634015954637,0.0153588974175501,0.07888888219014369,8.989429166666666,-0.08989429166666667,-3.759215833333333
1403638518122829500,0.0006981317007977319,0.021642082724729686,0.08098327729253688,9.022118,-0.057205458333333334,-3.7837324583333327
1403638518127829500,-0.0020943951023931952,0.019547687622336492,0.08377580409572781,9.046634625,-0.016344416666666667,-3.8164212916666664
1403638518132829500,0.0,0.024434609527920613,0.08447393579652555,9.022118,-0.06537766666666667,-3.800076875
1403638518137829500,0.0,0.01815142422074103,0.08168140899333462,9.046634625,-0.04086104166666667,-3.7919046666666665
1403638518142829500,0.0006981317007977319,0.025132741228718346,0.07958701389094143,9.054806833333332,0.016344416666666667,-3.8245934999999998
1403638518147829500,0.0006981317007977319,0.02024581932313422,0.08237954069413235,9.005773583333333,0.0,-3.77556025
1403638518152829500,-0.0020943951023931952,0.021642082724729686,0.07819075048934597,9.038462416666666,-0.04086104166666667,-3.7837324583333327
1403638518157829500,-0.0027925268031909274,0.017453292519943295,0.07888888219014369,8.989429166666666,-0.024516625,-3.800076875
1403638518162829500,-0.0041887902047863905,0.019547687622336492,0.0767944870877505,9.062979041666667,-0.016344416666666667,-3.8245934999999998
1403638518167829500,-0.0041887902047863905,0.0153588974175501,0.07400196028455958,8.989429166666666,0.008172208333333333,-3.7919046666666665
1403638518172829500,-0.0013962634015954637,0.019547687622336492,0.07120943348136866,9.022118,-0.024516625,-3.77556025
1403638518177829500,-0.003490658503988659,0.023038346126325153,0.07330382858376185,9.005773583333333,-0.04086104166666667,-3.7837324583333327
1403638518182829500,-0.004886921905584123,0.023736477827122883,0.07260569688296412,9.005773583333333,-0.016344416666666667,-3.77556025
1403638518187829500,-0.003490658503988659,0.01815142422074103,0.07260569688296412,8.940395916666665,-0.07354987499999999,-3.751043625
1403638518192829500,-0.0006981317007977319,0.016057029118347832,0.0747000919853573,9.054806833333332,0.032688833333333334,-3.8082490833333327
1403638518197829500,-0.0013962634015954637,0.017453292519943295,0.07819075048934597,8.981256958333333,-0.04903325,-3.8082490833333327
1403638518202829500,-0.0020943951023931952,0.01884955592153876,0.07539822368615504,9.1201845,-0.04086104166666667,-3.8164212916666664
1403638518207829500,0.0027925268031909274,0.02024581932313422,0.07958701389094143,8.97308475,-0.10623870833333333,-3.751043625
1403638518212829500,-0.0006981317007977319,0.024434609527920613,0.0747000919853573,9.095667875,-0.04903325,-3.7919046666666665
1403638518217829500,-0.003490658503988659,0.02583087292951608,0.07819075048934597,8.9240515,-0.057205458333333334,-3.742871416666666
1403638518222829500,0.0,0.02024581932313422,0.0767944870877505,9.005773583333333,-0.04086104166666667,-3.8082490833333327
1403638518227829500,0.0020943951023931952,0.017453292519943295,0.08168140899333462,8.964912541666667,-0.04086104166666667,-3.7919046666666665
1403638518232829500,-0.0020943951023931952,0.021642082724729686,0.07958701389094143,9.128356708333332,-0.008172208333333333,-3.857282333333333
1403638518237829500,-0.003490658503988659,0.021642082724729686,0.08168140899333462,9.038462416666666,-0.04903325,-3.8409379166666664
1403638518242829500,-0.00211431086063385,0.026177629828453064,0.08190234750509262,9.068653106689453,-0.007319020107388496,-3.823842763900757
1403638518247829500,-0.004217907786369324,0.02266840822994709,0.08328989893198013,8.864649772644043,-0.007321648299694061,-3.782982587814331
1403638518252829500,-0.003513738512992859,0.017105575650930405,0.07771047204732895,9.003357887268066,0.01725119911134243,-3.8483712673187256
1403638518257829500,-0.0035055428743362427,0.019195599481463432,0.0756215825676918,8.97899341583252,-0.056367967277765274,-3.758556365966797
1403638518262829500,-0.005588740110397339,0.013624163344502449,0.07423468679189682,9.068680763244629,0.017168836668133736,-3.791341543197632
1403638518267829500,-0.0021086782217025757,0.017102135345339775,0.08051078766584396,8.987137794494629,0.000809013843536377,-3.7667627334594727
1403638518272829500,-0.0007123053073883057,0.02129860781133175,0.07493055611848831,9.084921836853027,0.033568743616342545,-3.8320858478546143
1403638518277829500,-0.004905611276626587,0.022682080045342445,0.0784122571349144,8.978862762451172,0.0008555978420190513,-3.7912166118621826
1403638518282829500,-0.0048978328704833984,0.021295934915542603,0.0721353068947792,9.044168472290039,-0.023647591471672058,-3.7912518978118896
1403638518287829500,-0.0007196366786956787,0.021279750391840935,0.07422269135713577,8.897393226623535,-0.064517542719841,-3.7421741485595703
1403638518292829500,-0.002804860472679138,0.013619402423501015,0.07352777570486069,9.011659622192383,-0.04000522568821907,-3.7830915451049805
1403638518297829500,-0.0028062015771865845,0.019902171567082405,0.07352762669324875,9.060577392578125,-0.0563364252448082,-3.799382209777832
1403638518302829500,-0.004205524921417236,0.022691406309604645,0.07771199196577072,9.068705558776855,-0.048167355358600616,-3.815685749053955
1403638518307829500,-0.0007221102714538574,0.02268410474061966,0.07770886272192001,8.98717212677002,-0.07267602533102036,-3.791142702102661
1403638518312829500,0.0006816983222961426,0.020598717033863068,0.07562226802110672,9.052465438842773,-0.056352268904447556,-3.791201114654541
1403638518317829500,-2.8759241104125977e-05,0.02197956293821335,0.08049686998128891,8.930081367492676,-0.08085691928863525,-3.7829432487487793
1403638518322829500,-1.8984079360961914e-05,0.0233900249004364,0.07980836182832718,9.085044860839844,-0.03183184936642647,-3.823840618133545
1403638518327829500,-0.002815067768096924,0.024772103875875473,0.07910510152578354,8.954530715942383,-0.08905577659606934,-3.7584707736968994
1403638518332829500,-2.008676528930664e-05,0.015713604167103767,0.08189795166254044,9.052506446838379,-0.04001084715127945,-3.8238565921783447
1403638518337829500,-0.0028187036514282227,0.019897207617759705,0.08468148857355118,9.044323921203613,-0.07268215715885162,-3.8401176929473877
1403638518342829500,-0.0028095096349716187,0.019895292818546295,0.08120419830083847,9.019780158996582,-0.023690305650234222,-3.7912139892578125
1403638518347829500,-0.0014103949069976807,0.02268705889582634,0.08120956271886826,9.036100387573242,-0.023720096796751022,-3.7667288780212402
1403638518352829500,-0.0007088184356689453,0.020595453679561615,0.07842207700014114,9.03609561920166,-0.007374292705208063,-3.758603811264038
1403638518357829500,-0.0042054057121276855,0.021986696869134903,0.07981053739786148,9.003362655639648,0.009005243889987469,-3.7912330627441406
1403638518362829500,-0.0035065412521362305,0.018503231927752495,0.07771245390176773,9.036118507385254,-0.04817962273955345,-3.7993757724761963
1403638518367829500,-0.002809494733810425,0.02059646137058735,0.07422540336847305,9.027875900268555,-0.02363627403974533,-3.8075478076934814
1403638518372829500,-0.004202336072921753,0.017108198255300522,0.07701573520898819,9.036126136779785,-0.04818969964981079,-3.791232109069824
1403638518377829500,-0.0021128952503204346,0.020590664818882942,0.08120676130056381,8.995232582092285,0.01717628352344036,-3.7912330627441406
1403638518382829500,-0.0007197707891464233,0.020590336993336678,0.08189905434846878,8.99534797668457,-0.048196855932474136,-3.7830069065093994
1403638518387829500,-0.0021124333143234253,0.02198880724608898,0.07562161237001419,9.003402709960938,-0.023647591471672058,-3.791207790374756
1403638518392829500,-0.003513842821121216,0.01849495992064476,0.08050044625997543,8.962624549865723,-0.015478523448109627,-3.8075196743011475
1403638518397829500,-0.004898086190223694,0.01920130103826523,0.07562471181154251,9.036029815673828,-0.007329242303967476,-3.7912628650665283
1403638518402829500,-0.0021212249994277954,0.021286923438310623,0.07910165935754776,8.970805168151855,-0.04813982918858528,-3.8156373500823975
1403638518407829500,-0.0007155835628509521,0.021297549828886986,0.07701800018548965,9.076865196228027,-0.02364226244390011,-3.823866605758667
1403638518412829500,0.0006761997938156128,0.019192904233932495,0.07980708032846451,8.962703704833984,-0.04001668840646744,-3.774850845336914
1403638518417829500,-0.002104431390762329,0.016413720324635506,0.07353148609399796,9.052448272705078,-0.04001748934388161,-3.7830963134765625
1403638518422829500,-0.0014140009880065918,0.01849503256380558,0.0784110352396965,8.9627685546875,-0.08907395601272583,-3.7421889305114746
1403638518427829500,-0.002793818712234497,0.017811553552746773,0.07284290343523026,9.085040092468262,-0.00737334368750453,-3.75866436958313
1403638518432829500,0.0006813704967498779,0.016406910493969917,0.07701762765645981,8.995393753051758,-0.056372057646512985,-3.7667150497436523
1403638518437829500,-2.130866050720215e-05,0.019200779497623444,0.07701291888952255,9.027972221374512,-0.04815070703625679,-3.8156728744506836
1403638518442829500,-0.0035127103328704834,0.020588770508766174,0.07910384982824326,8.97082805633545,-0.05634540691971779,-3.7911629676818848
1403638518447829500,-0.0014050006866455078,0.025482922792434692,0.07702954858541489,9.084936141967773,0.025327609851956367,-3.7831101417541504
1403638518452829500,-2.633035182952881e-05,0.021284108981490135,0.08119673281908035,8.954567909240723,-0.07269507646560669,-3.782961368560791
1403638518457829500,-0.0007138699293136597,0.01850735954940319,0.07771394401788712,9.076963424682617,-0.05635380372405052,-3.807537317276001
1403638518462829500,-0.0021149367094039917,0.019889293238520622,0.07910599559545517,8.954572677612305,-0.08088736981153488,-3.75849986076355
1403638518467829500,-0.002107292413711548,0.01571565493941307,0.07701850682497025,9.060602188110352,-0.023670518770813942,-3.807579278945923
1403638518472829500,-0.0028116703033447266,0.021987859159708023,0.07980506867170334,9.011646270751953,-0.06454083323478699,-3.7830069065093994
1403638518477829500,0.004868298768997192,0.018508149310946465,0.08051244169473648,9.101377487182617,0.025378648191690445,-3.8402209281921387
1403638518482829500,-0.0014207065105438232,0.026170002296566963,0.07980481535196304,8.97893238067627,-0.04000018537044525,-3.791144847869873
1403638518487829500,-1.208484172821045e-05,0.021290821954607964,0.07842185348272324,9.011615753173828,-0.007371664047241211,-3.7504284381866455
1403638518492829500,-2.4631619453430176e-05,0.019883129745721817,0.07980445772409439,8.897415161132812,-0.04819094017148018,-3.758493423461914
1403638518497829500,-0.0014101415872573853,0.018506446853280067,0.07353008538484573,9.052393913269043,-0.023642845451831818,-3.807567596435547
1403638518502829500,-0.004209041595458984,0.020591052249073982,0.07771015912294388,8.987104415893555,-0.039993248879909515,-3.7993502616882324
1403638518507829500,-0.0007128715515136719,0.017812764272093773,0.07841280847787857,9.11772632598877,-0.031823597848415375,-3.8402099609375
1403638518512829500,-0.002114623785018921,0.02268795669078827,0.07980457693338394,9.036124229431152,-0.06452455371618271,-3.799329996109009
1403638518517829500,-0.0014163106679916382,0.02059217356145382,0.07771400362253189,8.995262145996094,-0.015479618683457375,-3.799368381500244
1403638518522829500,0.0006802082061767578,0.02338164858520031,0.07283314317464828,8.97079086303711,-0.04000405594706535,-3.7585361003875732
1403638518527829500,-0.0014107823371887207,0.017804833129048347,0.07422902435064316,9.011580467224121,-0.007312375586479902,-3.791249990463257
1403638518532829500,-0.005595579743385315,0.01710355654358864,0.07562332600355148,8.987127304077148,-0.03186638280749321,-3.7585980892181396
1403638518537829500,-0.002101808786392212,0.01780902035534382,0.077722929418087,9.076916694641113,-0.01554211974143982,-3.774951457977295
1403638518542829500,-0.0035084784030914307,0.023385778069496155,0.08190008252859116,9.052406311035156,-0.04002932086586952,-3.799351930618286
1403638518547829500,-0.0028105080127716064,0.021292846649885178,0.07910735160112381,9.036134719848633,-0.0645313411951065,-3.791182041168213
1403638518552829500,0.0006713718175888062,0.023380976170301437,0.07840617746114731,8.979001998901367,-0.06449446827173233,-3.7992918491363525
1403638518557829500,0.0013777464628219604,0.015009012073278427,0.07771364599466324,8.97096061706543,-0.0727166160941124,-3.7585337162017822
1403638518562829500,-0.0028076171875,0.019201885908842087,0.07492455095052719,9.036044120788574,-0.015478304587304592,-3.807563543319702
1403638518567829500,-0.002810552716255188,0.021290406584739685,0.08260003477334976,9.02790641784668,-0.007345378398895264,-3.799375295639038
1403638518572829500,0.000683903694152832,0.019903486594557762,0.07632582634687424,9.084993362426758,0.01720680482685566,-3.823911428451538
1403638518577829500,-0.00141926109790802,0.01989123411476612,0.08399245887994766,8.987143516540527,-0.015505466610193253,-3.799348831176758
1403638518582829500,-0.002119585871696472,0.02337743528187275,0.07771202176809311,8.946212768554688,0.009059349074959755,-3.8075149059295654
1403638518587829500,-0.0028149783611297607,0.019885506480932236,0.07980356365442276,8.921870231628418,-0.048188019543886185,-3.766674280166626
1403638518592829500,-0.0035052746534347534,0.02198699861764908,0.07701998203992844,8.995251655578613,-0.02368234656751156,-3.766732931137085
1403638518597829500,0.0034657716751098633,0.018495434895157814,0.0805034264922142,8.962773323059082,-0.06452703475952148,-3.774820327758789
1403638518602829500,-0.0014107376337051392,0.024785801768302917,0.07841811329126358,9.093124389648438,0.000850559794344008,-3.8157176971435547
1403638518607829500,-0.000723615288734436,0.023382075130939484,0.07910595089197159,8.995259284973145,-0.0318012535572052,-3.8156466484069824
1403638518612829500,-0.0028012096881866455,0.02060149796307087,0.07283783704042435,9.076804161071777,0.0008539915434084833,-3.799440383911133
1403638518617829500,-0.0028123855590820312,0.021283026784658432,0.07631828635931015,8.929961204528809,-0.023662924766540527,-3.7667031288146973
1403638518622829500,-0.003501906991004944,0.017111528664827347,0.07492532581090927,9.060575485229492,-0.03183608129620552,-3.7994184494018555
1403638518627829500,-0.004901498556137085,0.019192714244127274,0.07980825752019882,8.970839500427246,-0.04822489246726036,-3.7503910064697266
1403638518632829500,-0.0028076469898223877,0.019203821197152138,0.07771366089582443,9.068761825561523,-0.04818122833967209,-3.807544231414795
1403638518637829500,-0.0007257014513015747,0.022681746631860733,0.07561174780130386,8.954516410827637,-0.08081763982772827,-3.799283504486084
1403638518642829500,-0.0028104782104492188,0.024087069556117058,0.07701501995325089,9.06870174407959,-0.04816202446818352,-3.81567645072937
1403638518647829500,0.002757340669631958,0.02477213740348816,0.08328624814748764,8.954550743103027,-0.07265769690275192,-3.8155603408813477
1403638518652829500,-0.0007107704877853394,0.019203579053282738,0.07841890305280685,9.068717956542969,0.0008275598520413041,-3.799421548843384
1403638518657829500,-2.2977590560913086e-05,0.017799586057662964,0.08050166815519333,8.979053497314453,-0.05635438486933708,-3.791167736053467
1403638518662829500,-1.4126300811767578e-05,0.019205322489142418,0.08120691031217575,9.101433753967285,-0.03186740726232529,-3.807554006576538
1403638518667829500,-0.0007164627313613892,0.01919529214501381,0.08190140873193741,8.995382308959961,-0.056392572820186615,-3.7666923999786377
1403638518672829500,-0.002107188105583191,0.01990181766450405,0.0812075212597847,9.093223571777344,-0.015524450689554214,-3.8075685501098633
1403638518677829500,-0.0028118938207626343,0.021987322717905045,0.07701624184846878,8.995226860046387,-0.01547947246581316,-3.799367666244507
1403638518682829500,-0.000713050365447998,0.019200343638658524,0.08260374516248703,9.052441596984863,-0.007360200863331556,-3.791236639022827
1403638518687829500,-0.0021111667156219482,0.02477847971022129,0.07981278747320175,9.019695281982422,0.0008290931582450867,-3.7830543518066406
1403638518692829500,-0.0027992576360702515,0.01920216716825962,0.07702667266130447,9.052406311035156,-0.007375022862106562,-3.7586302757263184
1403638518697829500,-0.0028115659952163696,0.019197488203644753,0.07631508260965347,8.995318412780762,-0.056336790323257446,-3.791189670562744
1403638518702829500,-0.0042047202587127686,0.019900133833289146,0.07841227203607559,9.060514450073242,-0.0073072644881904125,-3.8238887786865234
1403638518707829500,-0.004209890961647034,0.020591501146554947,0.07701043039560318,8.987126350402832,-0.056327953934669495,-3.7993390560150146
1403638518712829500,-0.0035078227519989014,0.01710953190922737,0.07631435245275497,9.044288635253906,-0.05632992461323738,-3.815701484680176
1403638518717829500,-0.003505885601043701,0.02268843911588192,0.07352783530950546,9.019733428955078,-0.04816940054297447,-3.783043146133423
1403638518722829500,-0.002805560827255249,0.019200878217816353,0.07492653280496597,9.027914047241211,-0.02367102913558483,-3.783080577850342
1403638518727829500,-0.004202142357826233,0.017105458304286003,0.07771771401166916,9.011560440063477,0.009005901403725147,-3.7912676334381104
1403638518732829500,-0.0014179348945617676,0.01849798485636711,0.07910420745611191,8.987232208251953,-0.08086889237165451,-3.782999277114868
1403638518737829500,-0.0021063685417175293,0.022691460326313972,0.07562670856714249,9.060532569885254,-0.023680303245782852,-3.7830729484558105
1403638518742829500,-0.00349995493888855,0.018504926934838295,0.07981226593255997,9.068798065185547,-0.048243291676044464,-3.7667551040649414
1403638518747829500,-0.001417994499206543,0.026172392070293427,0.08189935237169266,9.011637687683105,-0.06454835087060928,-3.774815082550049
1403638518752829500,-0.0007220059633255005,0.020590852946043015,0.08329091221094131,9.003549575805664,-0.07271070778369904,-3.7911431789398193
1403638518757829500,-0.0021141022443771362,0.020595449954271317,0.08120185881853104,9.044249534606934,-0.023664092645049095,-3.8156893253326416
1403638518762829500,-0.002814754843711853,0.017797643318772316,0.08189443498849869,8.970904350280762,-0.07271157950162888,-3.782996416091919
1403638518767829500,-0.003502979874610901,0.02408856712281704,0.0791156068444252,9.101280212402344,0.0008351534488610923,-3.815730333328247
1403638518772829500,-0.0035151690244674683,0.02268027327954769,0.08049999922513962,8.96261215209961,-0.03182556852698326,-3.799325466156006
1403638518777829500,-0.0035057812929153442,0.018504364416003227,0.0791088417172432,9.052451133728027,-0.04819473624229431,-3.799381732940674
1403638518782829500,0.001369476318359375,0.02198415994644165,0.08050072938203812,8.97087574005127,-0.06451228260993958,-3.7911298274993896
1403638518787829500,-0.0014121681451797485,0.020599421113729477,0.07841577380895615,9.07684326171875,0.0008574232342652977,-3.8238916397094727
1403638518792829500,-2.4527311325073242e-05,0.020586615428328514,0.07980599254369736,8.94631576538086,-0.015484364703297615,-3.7911765575408936
1403638518797829500,-0.0035029053688049316,0.01781025342643261,0.07353252917528152,9.06861400604248,0.025398580357432365,-3.8321032524108887
1403638518802829500,-0.004907101392745972,0.020588843151926994,0.07701406627893448,8.962559700012207,-0.0073001086711883545,-3.799375057220459
1403638518807829500,-0.0014118850231170654,0.020598677918314934,0.07492513209581375,9.052380561828613,-0.023644598200917244,-3.8075547218322754
1403638518812829500,-0.002114012837409973,0.01919535920023918,0.07910644263029099,8.987208366394043,-0.07270581275224686,-3.7748472690582275
1403638518817829500,-0.003502979874610901,0.01780715212225914,0.07911146432161331,9.060615539550781,-0.04003464803099632,-3.7912395000457764
1403638518822829500,-0.004908397793769836,0.01639794185757637,0.07700947672128677,8.913686752319336,-0.0399944894015789,-3.7830259799957275
1403638518827829500,-0.0014081001281738281,0.017111539840698242,0.07492627948522568,9.060615539550781,-0.04001478850841522,-3.791247844696045
1403638518832829500,-0.0014259815216064453,0.021980730816721916,0.07979785650968552,8.938178062438965,-0.056312695145606995,-3.8074491024017334
1403638518837829500,-0.0028088539838790894,0.01850508339703083,0.07701563090085983,9.052409172058105,-0.031823817640542984,-3.8157143592834473
1403638518842829500,-0.0021155625581741333,0.023383257910609245,0.0749194398522377,8.995281219482422,-0.06449972838163376,-3.7911624908447266
1403638518847829500,-0.0007124543190002441,0.01920349709689617,0.07841447740793228,9.068795204162598,-0.04820473864674568,-3.7912209033966064
1403638518852829500,-2.4259090423583984e-05,0.014313044026494026,0.07980046421289444,8.987235069274902,-0.05633050948381424,-3.815666437149048
1403638518857829500,0.0020828545093536377,0.013626368716359138,0.07632290571928024,9.09334945678711,-0.04820021241903305,-3.7994179725646973
1403638518862829500,-0.001413390040397644,0.019194677472114563,0.07422588020563126,8.962656021118164,-0.04000887647271156,-3.7667160034179688
1403638518867829500,-0.003505393862724304,0.01850348711013794,0.07631810754537582,9.036101341247559,-0.04000748693943024,-3.7993886470794678
1403638518872829500,-0.002117142081260681,0.022685807198286057,0.07910614460706711,9.011577606201172,-0.031814031302928925,-3.815662384033203
1403638518877829500,-0.0028115063905715942,0.01989567093551159,0.08259474486112595,9.028037071228027,-0.08090109378099442,-3.7830049991607666
1403638518882829500,-0.004209652543067932,0.02338291145861149,0.07980307191610336,9.011601448059082,-0.05634869262576103,-3.7993290424346924
1403638518887829500,-0.0007163286209106445,0.01989797130227089,0.0791093036532402,9.03615665435791,-0.056364756077528,-3.7911911010742188
1403638518892829500,-0.0028105825185775757,0.02268986590206623,0.07841052860021591,9.05240535736084,-0.048177942633628845,-3.8075149059295654
1403638518897829500,-2.0638108253479004e-05,0.018499838188290596,0.07910696417093277,9.003557205200195,-0.07270581275224686,-3.783008575439453
1403638518902829500,-1.8283724784851074e-05,0.018500450998544693,0.07771656662225723,9.003460884094238,-0.015495170839130878,-3.7912209033966064
1403638518907829500,0.0013779103755950928,0.01920047402381897,0.0756223276257515,9.01981258392334,-0.040002670139074326,-3.7912027835845947
1403638518912829500,-0.0035069137811660767,0.025482477620244026,0.0742252990603447,9.060502052307129,-0.048157062381505966,-3.8075175285339355
1403638518917829500,-0.0028146207332611084,0.02268189750611782,0.07631460577249527,8.962610244750977,-0.03998697176575661,-3.7911698818206787
1403638518922829500,-0.00350382924079895,0.024784987792372704,0.07353132218122482,9.060473442077637,-0.023653944954276085,-3.7993874549865723
1403638518927829500,-0.0021152645349502563,0.01850110851228237,0.07840866595506668,9.011616706848145,-0.0318172462284565,-3.815687894821167
1403638518932829500,-0.0028096139430999756,0.019898954778909683,0.07841207832098007,9.044220924377441,-0.015484292060136795,-3.8157124519348145
1403638518937829500,-0.006303161382675171,0.01779300905764103,0.08049850910902023,8.930048942565918,-0.06454302370548248,-3.76668381690979
1403638518942829500,-0.0007140934467315674,0.021301323547959328,0.07562070339918137,9.109564781188965,-0.06450542062520981,-3.8238525390625
1403638518947829500,0.0013669729232788086,0.021985076367855072,0.08049648255109787,8.979079246520996,-0.09718987345695496,-3.7992653846740723
1403638518952829500,-0.0007141083478927612,0.020597144961357117,0.07911346107721329,9.052409172058105,-0.015507875941693783,-3.799389362335205
1403638518957829500,-0.004202589392662048,0.021984923630952835,0.0777193233370781,8.978906631469727,-0.00735837547108531,-3.758582830429077
1403638518962829500,-0.002107173204421997,0.017108600586652756,0.0763239786028862,9.036056518554688,0.009017146192491055,-3.7994353771209717
1403638518967829500,-0.001417398452758789,0.01919678971171379,0.08050092309713364,9.00355339050293,-0.08088050037622452,-3.7829976081848145
1403638518972829500,-0.004202812910079956,0.02060045301914215,0.0784120187163353,9.093188285827637,-0.031833089888095856,-3.823880195617676
1403638518977829500,-0.004909485578536987,0.01919586770236492,0.07630958408117294,8.978959083557129,-0.056311819702386856,-3.815662384033203
1403638518982829500,-0.0035025328397750854,0.019206028431653976,0.0777185931801796,9.101301193237305,0.00902649201452732,-3.832085132598877
1403638518987829500,-2.0489096641540527e-05,0.021288590505719185,0.07841458171606064,8.987088203430176,0.0008534073713235557,-3.7912116050720215
1403638518992829500,-0.002112656831741333,0.021990807726979256,0.07631806284189224,9.02791690826416,-0.0399906225502491,-3.7993624210357666
1403638518997829500,-0.0007233023643493652,0.023376889526844025,0.0784066691994667,8.946367263793945,-0.07268448919057846,-3.7748029232025146
1403638519002829500,-0.0021100491285324097,0.01920013688504696,0.08120616525411606,9.04425048828125,-0.007345013320446014,-3.799398183822632
1403638519007829500,-0.0028080791234970093,0.020592182874679565,0.0784129872918129,9.00350570678711,-0.0645579919219017,-3.7585413455963135
1403638519012829500,-0.0014037489891052246,0.018513360992074013,0.07423343509435654,9.142123222351074,0.0008572041988372803,-3.832102060317993
1403638519017829500,0.001368492841720581,0.021984083577990532,0.07701312750577927,8.95443344116211,-0.0072684199549257755,-3.815654754638672
1403638519022829500,-2.053380012512207e-05,0.024784650653600693,0.0777144655585289,9.068696022033691,-0.03180724009871483,-3.8238320350646973
1403638519027829500,-0.0007265657186508179,0.028264224529266357,0.07701333612203598,8.978832244873047,-0.00726111838594079,-3.8237998485565186
1403638519032829500,-0.0021153539419174194,0.02407882735133171,0.0825980082154274,9.003457069396973,-0.04002975672483444,-3.783006429672241
1403638519037829500,-0.002811342477798462,0.02198808267712593,0.07981044799089432,9.011513710021973,0.01719672791659832,-3.807555913925171
1403638519042829500,-0.0014132112264633179,0.015710877254605293,0.08399402350187302,9.036200523376465,-0.040048521012067795,-3.7912180423736572
1403638519047829500,-0.004212036728858948,0.019895130768418312,0.07700739055871964,8.99531364440918,-0.07265251129865646,-3.8156518936157227
1403638519052829500,-0.0021191537380218506,0.01710607297718525,0.07909887284040451,9.011740684509277,-0.10535631328821182,-3.8156356811523438
1403638519057829500,-0.0014146864414215088,0.023389864712953568,0.07701609283685684,9.068718910217285,-0.048162609338760376,-3.8156774044036865
1403638519062829500,-2.3290514945983887e-05,0.02198498323559761,0.08189982920885086,8.987151145935059,-0.03184572234749794,-3.791167974472046
1403638519067829500,-1.3336539268493652e-05,0.0247843898832798,0.07423406094312668,9.052338600158691,-0.00732705183327198,-3.783071756362915
1403638519072829500,-0.0021075308322906494,0.019892709329724312,0.07911626249551773,8.987135887145996,-0.015543507412075996,-3.750420570373535
1403638519077829500,-0.004201263189315796,0.018501676619052887,0.07911305874586105,9.027922630310059,-0.015524085611104965,-3.7830851078033447
1403638519082829500,-0.00141887366771698,0.019195446744561195,0.07980187982320786,8.987212181091309,-0.07269281893968582,-3.7911572456359863
1403638519087829500,-0.00420476496219635,0.024086926132440567,0.07771679013967514,9.07675838470459,0.009041679091751575,-3.8320465087890625
1403638519092829500,-0.0007235109806060791,0.023377807810902596,0.0791066363453865,8.954463005065918,-0.031818777322769165,-3.7911534309387207
1403638519097829500,-1.6063451766967773e-05,0.02129579894244671,0.07841531187295914,9.060606002807617,-0.04002201929688454,-3.7912089824676514
1403638519102829500,-2.2366642951965332e-05,0.021981753408908844,0.07701709121465683,8.938131332397461,-0.0154842184856534,-3.7748565673828125
1403638519107829500,-1.3947486877441406e-05,0.017809148877859116,0.07353223115205765,9.052388191223145,-0.0073014963418245316,-3.8075811862945557
1403638519112829500,-0.0042060911655426025,0.020587386563420296,0.07771595567464828,8.954410552978516,0.0008400455117225647,-3.774899959564209
1403638519117829500,-0.004897519946098328,0.017111070454120636,0.07702047377824783,9.068670272827148,0.009019116871058941,-3.8157734870910645
1403638519122829500,-0.00420735776424408,0.0191978607326746,0.07910757511854172,9.01158332824707,-0.023653797805309296,-3.8075385093688965
1403638519127829500,-0.0035002827644348145,0.017809676006436348,0.07771985977888107,9.08502197265625,0.0008340582135133445,-3.8076066970825195
1403638519132829500,-0.003515392541885376,0.02128070406615734,0.07910112291574478,8.921905517578125,-0.08903373032808304,-3.7666361331939697
1403638519137829500,-0.0014163851737976074,0.02269132062792778,0.0756172314286232,9.052421569824219,-0.06448687613010406,-3.8156633377075195
1403638519142829500,-0.0014231055974960327,0.02128756418824196,0.07770542055368423,8.970842361450195,-0.07265499234199524,-3.807460069656372
1403638519147829500,0.0013802796602249146,0.01920386590063572,0.07492650300264359,9.052437782287598,-0.03182680904865265,-3.799386978149414
1403638519152829500,-0.004902377724647522,0.02478138916194439,0.07632071524858475,9.035981178283691,-0.015490571036934853,-3.799381732940674
1403638519157829500,-0.004210114479064941,0.02268088422715664,0.08050329238176346,8.97075080871582,-0.015496193431317806,-3.7911899089813232
1403638519162829500,-0.005605772137641907,0.024079522117972374,0.07980399578809738,9.003365516662598,-0.02365591563284397,-3.807512044906616
1403638519167829500,-0.0028074830770492554,0.02129480056464672,0.07841428369283676,9.052388191223145,-0.02367599494755268,-3.7993881702423096
1403638519172829500,-0.006997391581535339,0.021290818229317665,0.07771105319261551,9.011573791503906,-0.04818414896726608,-3.7912068367004395
1403638519177829500,-0.0014066994190216064,0.0157190952450037,0.07702123373746872,9.101400375366211,-0.015503276139497757,-3.815762996673584
1403638519182829500,-0.0021122097969055176,0.02059365250170231,0.07771512120962143,9.011592864990234,-0.02366628311574459,-3.791213274002075
1403638519187829500,0.0006829500198364258,0.01989910565316677,0.07841847091913223,9.044244766235352,0.0008358836057595909,-3.7912442684173584
1403638519192829500,-0.0042069703340530396,0.026871221140027046,0.07980980724096298,9.019661903381348,-0.0073308483697474,-3.79120135307312
1403638519197829500,-0.0035096406936645508,0.02059042826294899,0.0812026783823967,8.995268821716309,-0.015503932721912861,-3.791208028793335
1403638519202829500,-0.0021074116230010986,0.023387571796774864,0.07772263139486313,9.052313804626465,0.0171760655939579,-3.7912559509277344
1403638519207829500,-0.0021147876977920532,0.01710803061723709,0.07910405844449997,9.03617000579834,-0.06450724601745605,-3.8156778812408447
1403638519212829500,-0.0021096915006637573,0.021298358216881752,0.07911060005426407,9.09322452545166,-0.04001018777489662,-3.8157026767730713
1403638519217829500,-0.0028182268142700195,0.02058938890695572,0.07910100370645523,8.97083854675293,-0.06449206173419952,-3.8074724674224854
1403638519222829500,-0.0028136074542999268,0.024082183837890625,0.07631795853376389,9.011503219604492,-0.007283753249794245,-3.8156888484954834
1403638519227829500,-0.000723034143447876,0.024774855002760887,0.08050156384706497,8.978995323181152,-0.06452323496341705,-3.7829694747924805
1403638519232829500,-0.0014095008373260498,0.020602243021130562,0.07213553041219711,9.0768404006958,-0.023632988333702087,-3.8157312870025635
1403638519237829500,0.001370757818222046,0.02059084363281727,0.07631424814462662,8.97084903717041,-0.05631568655371666,-3.799314498901367
1403638519242829500,-0.0021134763956069946,0.019899865612387657,0.07980801910161972,9.06050968170166,0.009045476093888283,-3.84020733833313
1403638519247829500,-0.0021191686391830444,0.021284127607941628,0.08119746297597885,8.954509735107422,-0.04817692190408707,-3.791151285171509
1403638519252829500,-0.0021102726459503174,0.02338707633316517,0.07352981716394424,9.027873039245605,-0.03181731700897217,-3.791212320327759
1403638519257829500,-0.002116754651069641,0.01849479041993618,0.07631183415651321,8.946410179138184,-0.08902627974748611,-3.774824380874634
1403638519262829500,-0.004196375608444214,0.02409033104777336,0.07632630318403244,9.109469413757324,-0.023696294054389,-3.7912511825561523
1403638519267829500,-0.004212498664855957,0.021281929686665535,0.07910337299108505,8.929994583129883,-0.04817378148436546,-3.7829935550689697
1403638519272829500,-0.0042110830545425415,0.020592914894223213,0.07980401068925858,9.011528015136719,0.0008821025840006769,-3.832023859024048
1403638519277829500,-0.002818271517753601,0.023373354226350784,0.08259349316358566,8.930006980895996,-0.04819145053625107,-3.7748093605041504
1403638519282829500,0.0013814419507980347,0.02060173824429512,0.07981418818235397,9.109522819519043,0.00084347726078704,-3.823892831802368
1403638519287829500,-0.0007199198007583618,0.019192097708582878,0.0818997398018837,8.962700843811035,-0.04003085196018219,-3.774848461151123
1403638519292829500,-0.0021110326051712036,0.024083392694592476,0.07841416448354721,9.036077499389648,-0.04002165421843529,-3.783031940460205
1403638519297829500,-0.004216790199279785,0.022675763815641403,0.08049332350492477,8.921895027160645,-0.09719549119472504,-3.7829368114471436
1403638519302829500,-0.0014160722494125366,0.01850258558988571,0.07492143660783768,9.01158618927002,-0.0236271470785141,-3.815702199935913
1403638519307829500,-0.0007207989692687988,0.024079136550426483,0.07841279357671738,8.987055778503418,-0.007307702675461769,-3.799348831176758
1403638519312829500,-0.0007182508707046509,0.019899778068065643,0.07910997420549393,9.052380561828613,-0.007296822965145111,-3.8320279121398926
1403638519317829500,-0.0028153806924819946,0.026173656806349754,0.07910668104887009,9.011550903320312,-0.03998704254627228,-3.807483196258545
1403638519322829500,-0.0028057843446731567,0.01920032687485218,0.08051065355539322,9.044230461120605,0.0008189440122805536,-3.7912538051605225
1403638519327829500,-0.0014135390520095825,0.021286170929670334,0.07981083542108536,8.970839500427246,-0.04004910588264465,-3.7503774166107178
1403638519332829500,0.0013860315084457397,0.01222635805606842,0.07562839239835739,9.03618335723877,-0.015520069748163223,-3.774955987930298
1403638519337829500,-0.003499731421470642,0.01571665331721306,0.07213412970304489,9.052454948425293,-0.05635321885347366,-3.7830934524536133
1403638519342829500,-0.0035052895545959473,0.019898831844329834,0.07561946660280228,9.036138534545898,-0.0726977065205574,-3.783038377761841
1403638519347829500,-0.003502756357192993,0.02199297398328781,0.07562539726495743,9.052350044250488,-0.015501742251217365,-3.7912425994873047
1403638519352829500,-0.001409769058227539,0.0171072818338871,0.08120805770158768,9.044273376464844,0.0008124455926008523,-3.791257381439209
1403638519357829500,-0.004206493496894836,0.02338375523686409,0.07701710611581802,9.011513710021973,-0.007310915272682905,-3.7993788719177246
1403638519362829500,-0.001414865255355835,0.021286163479089737,0.07911165803670883,8.970808029174805,-0.023683151230216026,-3.7667086124420166
1403638519367829500,-0.0021093934774398804,0.020594699308276176,0.07632135599851608,9.019752502441406,-0.023669933900237083,-3.7830617427825928
1403638519372829500,-0.004207059741020203,0.01709788292646408,0.08189854770898819,8.954536437988281,-0.04004231467843056,-3.7667078971862793
1403638519377829500,-0.0035005509853363037,0.01990273967385292,0.07702331990003586,9.084980010986328,0.009008894674479961,-3.8076014518737793
1403638519382829500,-0.0021179765462875366,0.02197962999343872,0.07701428979635239,8.921771049499512,-0.0073020802810788155,-3.7830209732055664
1403638519387829500,0.0013824105262756348,0.021993815898895264,0.07493055611848831,9.05239486694336,-0.015496266074478626,-3.7830703258514404
1403638519392829500,-2.3156404495239258e-05,0.024077430367469788,0.0798061415553093,8.978995323181152,-0.05635453388094902,-3.7748196125030518
1403638519397829500,-0.004202291369438171,0.021990133449435234,0.07911335676908493,9.036048889160156,-0.015518682077527046,-3.7830700874328613
1403638519402829500,-0.0021156370639801025,0.020588785409927368,0.07980672270059586,8.970780372619629,-0.015491154976189137,-3.7911927700042725
1403638519407829500,-1.640617847442627e-05,0.021993398666381836,0.07562930136919022,9.052260398864746,0.04990936443209648,-3.8239190578460693
1403638519412829500,-0.002811416983604431,0.01919388398528099,0.07631637901067734,8.962661743164062,-0.04817422106862068,-3.7748653888702393
1403638519417829500,-0.004895657300949097,0.019902613013982773,0.07702135294675827,9.085009574890137,-0.015509920194745064,-3.7994296550750732
1403638519422829500,-0.004211246967315674,0.023380862548947334,0.07910449057817459,8.987099647521973,-0.048162683844566345,-3.7993245124816895
1403638519427829500,-0.000711783766746521,0.02269500494003296,0.07632405310869217,9.101327896118164,-0.015485532581806183,-3.8157217502593994
1403638519432829500,-0.0035112500190734863,0.022679537534713745,0.07910747081041336,8.954482078552246,-0.04819174483418465,-3.766679525375366
1403638519437829500,-0.0007164031267166138,0.01849917508661747,0.0791141465306282,8.99523639678955,0.02536674588918686,-3.799410820007324
1403638519442829500,-0.006299600005149841,0.019192034378647804,0.07561973482370377,8.946252822875977,-0.01549173891544342,-3.7749009132385254
1403638519447829500,-0.0028006434440612793,0.01781081035733223,0.07702282816171646,9.093231201171875,-0.02369600161910057,-3.7912724018096924
1403638519452829500,-0.002819940447807312,0.020589113235473633,0.07979593425989151,8.97087287902832,-0.08900773525238037,-3.80745005607605
1403638519457829500,-0.0021166205406188965,0.02199430949985981,0.07840604335069656,9.06873607635498,-0.05631021037697792,-3.840148448944092
1403638519462829500,-2.6494264602661133e-05,0.02059127949178219,0.07700879126787186,8.979022026062012,-0.07265550643205643,-3.8074657917022705
1403638519467829500,-2.1725893020629883e-05,0.02059609442949295,0.0770130380988121,9.027983665466309,-0.06450067460536957,-3.807497024536133
1403638519472829500,-0.0007207542657852173,0.023384133353829384,0.07980542629957199,9.019765853881836,-0.03999719396233559,-3.807493209838867
1403638519477829500,-2.3230910301208496e-05,0.018500961363315582,0.07910516113042831,9.011663436889648,-0.048157937824726105,-3.8156659603118896
1403638519482829500,-0.0014140158891677856,0.023387189954519272,0.07911249250173569,9.0523681640625,-0.015496193431317806,-3.8075337409973145
1403638519487829500,-0.0021138787269592285,0.019197240471839905,0.08329475671052933,9.019840240478516,-0.04821116477251053,-3.7911882400512695
1403638519492829500,-0.006305515766143799,0.020590931177139282,0.07840289920568466,8.987109184265137,-0.056322917342185974,-3.8156611919403076
1403638519497829500,-0.0014106333255767822,0.01919797994196415,0.08260456472635269,9.027956008911133,-0.007375607267022133,-3.7749125957489014
1403638519502829500,-0.005602478981018066,0.021988360211253166,0.07980527728796005,9.019755363464355,-0.048192765563726425,-3.791193962097168
1403638519507829500,0.0006784200668334961,0.01850263588130474,0.08050487190485,9.036173820495605,-0.048187799751758575,-3.7993555068969727
1403638519512829500,-0.002110719680786133,0.02338421531021595,0.07841519266366959,9.019753456115723,-0.031858205795288086,-3.7748780250549316
1403638519517829500,-0.0007194876670837402,0.019897911697626114,0.076315738260746,9.019776344299316,-0.039974045008420944,-3.815678119659424
1403638519522829500,-0.0021027177572250366,0.02339542657136917,0.07493200153112411,9.133927345275879,-0.007329680025577545,-3.8157498836517334
1403638519527829500,-0.002813279628753662,0.021290350705385208,0.07980429381132126,9.011624336242676,-0.04817655682563782,-3.799341917037964
1403638519532829500,-0.004899084568023682,0.021992336958646774,0.07562433928251266,9.044178009033203,-0.01549947913736105,-3.7912445068359375
1403638519537829500,0.003464832901954651,0.01988677866756916,0.07422218471765518,8.905584335327148,-0.056324303150177,-3.766653060913086
1403638519542829500,-0.0007126927375793457,0.019200840964913368,0.07422908395528793,9.01976490020752,-0.023663071915507317,-3.7830705642700195
1403638519547829500,-0.0028136372566223145,0.020593293011188507,0.07701083272695541,9.003486633300781,-0.07267682254314423,-3.7993288040161133
1403638519552829500,-0.006986379623413086,0.022695979103446007,0.07632588595151901,9.125746726989746,-0.00734720379114151,-3.807605504989624
1403638519557829500,-0.0035112202167510986,0.022681565955281258,0.0784076675772667,8.970849990844727,-0.08087801933288574,-3.766660690307617
1403638519562829500,0.0027761757373809814,0.02269526943564415,0.07353339344263077,9.085018157958984,-0.015465453267097473,-3.8157098293304443
1403638519567829500,0.0013717114925384521,0.02058766596019268,0.08120126277208328,8.962700843811035,-0.040013767778873444,-3.782992362976074
1403638519572829500,-0.0007095485925674438,0.017805349081754684,0.08051352947950363,9.044280052185059,0.0007997408392839134,-3.774937629699707
1403638519577829500,-2.442300319671631e-05,0.01918966695666313,0.07910538464784622,8.930069923400879,-0.05634832754731178,-3.7748236656188965
1403638519582829500,-0.0014090687036514282,0.0199019405990839,0.07911662012338638,9.085000038146973,0.017183877527713776,-3.815753936767578
1403638519587829500,-0.0014176219701766968,0.021285606548190117,0.07980991154909134,8.96257209777832,0.017192421481013298,-3.7912144660949707
1403638519592829500,-0.004893466830253601,0.018508415669202805,0.077721007168293,9.101343154907227,-0.0073533374816179276,-3.7994496822357178
1403638519597829500,-0.002113357186317444,0.021985448896884918,0.07701491564512253,8.978999137878418,-0.06452688574790955,-3.76668119430542
1403638519602829500,-0.0021065622568130493,0.016411038115620613,0.0763215646147728,9.036131858825684,-0.03185010328888893,-3.7830862998962402
1403638519607829500,-0.001421511173248291,0.019893789663910866,0.08049779385328293,8.99533462524414,-0.05632510781288147,-3.8156421184539795
1403638519612829500,-0.0028089433908462524,0.020597150549292564,0.07422638684511185,9.0360107421875,-0.007289886474609375,-3.815722703933716
1403638519617829500,-0.0028146952390670776,0.024080915376544,0.07701423019170761,9.00335693359375,-0.015456181019544601,-3.8156752586364746
1403638519622829500,-0.00211392343044281,0.022688452154397964,0.07980751246213913,9.044207572937012,-0.015482758171856403,-3.815692186355591
1403638519627829500,-0.004213854670524597,0.02476803958415985,0.07910554856061935,8.913589477539062,-0.015480860136449337,-3.7829999923706055
1403638519632829500,-0.0007250308990478516,0.0184903796762228,0.07910167425870895,8.913753509521484,-0.06450513005256653,-3.782973527908325
1403638519637829500,-0.0007177740335464478,0.018498433753848076,0.07631731778383255,8.97900390625,-0.04817071557044983,-3.7830286026000977
1403638519642829500,-0.0007137209177017212,0.01362021267414093,0.07492164522409439,9.019877433776855,-0.06451856344938278,-3.7912237644195557
1403638519647829500,-0.004898235201835632,0.018505912274122238,0.0777149572968483,9.068764686584473,-0.056376729160547256,-3.7912330627441406
1403638519652829500,-0.0014196187257766724,0.016405999660491943,0.07840532809495926,8.9871826171875,-0.0481509268283844,-3.8156702518463135
1403638519657829500,-1.8551945686340332e-05,0.018505411222577095,0.0784137174487114,9.060545921325684,0.0008726835367269814,-3.832045793533325
1403638519662829500,-0.0021161437034606934,0.020592454820871353,0.0805005207657814,9.011663436889648,-0.06452396512031555,-3.799328088760376
1403638519667829500,-0.0014125555753707886,0.02478119544684887,0.07353206723928452,9.019664764404297,-0.007304927799850702,-3.7912204265594482
1403638519672829500,-0.0028129667043685913,0.02128399722278118,0.07980426400899887,8.954547882080078,-0.07271961122751236,-3.758502960205078
1403638519677829500,-0.00490279495716095,0.01919984258711338,0.07561757415533066,9.019789695739746,-0.06451775878667831,-3.7912039756774902
1403638519682829500,-0.0014133602380752563,0.015006575733423233,0.07631707936525345,8.946439743041992,-0.07271837443113327,-3.7503764629364014
1403638519687829500,0.0006834119558334351,0.021299419924616814,0.0777188166975975,9.101375579833984,-0.02366716042160988,-3.81571364402771
1403638519692829500,0.0034670084714889526,0.021985389292240143,0.0812041237950325,8.987212181091309,-0.048198096454143524,-3.7748262882232666
1403638519697829500,0.0020813941955566406,0.021299807354807854,0.07562822848558426,9.093228340148926,-0.023672781884670258,-3.799396514892578
1403638519702829500,-2.35140323638916e-05,0.019888926297426224,0.07561939209699631,8.929959297180176,-0.007292661350220442,-3.791189432144165
1403638519707829500,-0.0035020411014556885,0.01362256333231926,0.07562220841646194,9.05243968963623,-0.02366584539413452,-3.807596206665039
1403638519712829500,-0.0021191686391830444,0.022683098912239075,0.0777057483792305,8.97903060913086,-0.0971885547041893,-3.7911224365234375
1403638519717829500,-0.005599081516265869,0.018505843356251717,0.0763140395283699,9.060635566711426,-0.0890405923128128,-3.799368381500244
1403638519722829500,-0.0014243274927139282,0.02407686598598957,0.07979937642812729,8.970819473266602,-0.0644935891032219,-3.807446241378784
1403638519727829500,-1.677870750427246e-05,0.024086616933345795,0.0784154161810875,9.06872272491455,-0.03184718266129494,-3.7993624210357666
1403638519732829500,-0.0007193386554718018,0.02128049172461033,0.07771290093660355,8.913738250732422,-0.06454550474882126,-3.7421722412109375
1403638519737829500,-0.0014047771692276,0.017114954069256783,0.07562591880559921,9.101442337036133,-0.0482097789645195,-3.791257619857788
1403638519742829500,-0.0007242858409881592,0.021980801597237587,0.07910364121198654,8.93820571899414,-0.06451206654310226,-3.7829668521881104
1403638519747829500,0.0013789087533950806,0.018502073362469673,0.0777202919125557,9.019744873046875,0.017190376296639442,-3.799409866333008
1403638519752829500,-0.004906222224235535,0.021988190710544586,0.0784088745713234,9.011558532714844,-0.03182673826813698,-3.8075191974639893
1403638519757829500,-0.001413881778717041,0.016409479081630707,0.08120162039995193,9.036182403564453,-0.048196855932474136,-3.7993712425231934
1403638519762829500,-0.00211237370967865,0.01989504136145115,0.07980497926473618,9.011743545532227,-0.1054200530052185,-3.7585062980651855
1403638519767829500,-0.003508061170578003,0.018501516431570053,0.08329545706510544,9.044276237487793,-0.023688992485404015,-3.8075430393218994
1403638519772829500,-0.0014259666204452515,0.023379897698760033,0.07910101860761642,8.970759391784668,-0.03178110346198082,-3.8319509029388428
1403638519777829500,-0.001417413353919983,0.024084724485874176,0.08050539344549179,9.060502052307129,-0.007301131263375282,-3.832007646560669
1403638519782829500,-0.007002964615821838,0.0261683352291584,0.0784071609377861,8.96253776550293,-0.03182454779744148,-3.791170358657837
1403638519787829500,-0.000719025731086731,0.015007901936769485,0.08120029419660568,8.970911979675293,-0.04819415137171745,-3.783029794692993
1403638519792829500,-0.002806529402732849,0.021991699934005737,0.07771793752908707,9.044234275817871,-0.031858280301094055,-3.7830588817596436
1403638519797829500,-0.0021136850118637085,0.014313369989395142,0.07980301231145859,8.995403289794922,-0.06453214585781097,-3.7911980152130127
1403638519802829500,-0.002111494541168213,0.018504368141293526,0.075618676841259,9.036140441894531,-0.06451214104890823,-3.7993648052215576
1403638519807829500,-0.0021163076162338257,0.019199620932340622,0.07770799845457077,9.019814491271973,-0.06449702382087708,-3.8156635761260986
1403638519812829500,-0.004207029938697815,0.024783678352832794,0.07771169394254684,9.060522079467773,-0.04816560447216034,-3.815671920776367
1403638519817829500,-0.003514587879180908,0.02547322027385235,0.07980240136384964,8.987089157104492,-0.048168305307626724,-3.7993104457855225
1403638519822829500,-0.004905521869659424,0.021289868280291557,0.07840932160615921,9.003410339355469,-0.031833525747060776,-3.7993640899658203
1403638519827829500,-0.0028124451637268066,0.01640333980321884,0.07770969718694687,8.96270751953125,-0.056352853775024414,-3.7830278873443604
1403638519832829500,-0.006299436092376709,0.021296342834830284,0.07561693340539932,9.060517311096191,-0.0481547974050045,-3.823861837387085
1403638519837829500,-0.0056058913469314575,0.019886448979377747,0.0791046991944313,8.929986000061035,-0.04001705348491669,-3.7748560905456543
1403638519842829500,-0.004204496741294861,0.018509961664676666,0.08119886368513107,9.125909805297852,-0.0645313411951065,-3.8401880264282227
1403638519847829500,0.0006715506315231323,0.022685110569000244,0.08049983531236649,9.003499984741211,-0.0645052045583725,-3.8074607849121094
1403638519852829500,0.0006811767816543579,0.021993180736899376,0.07701963931322098,9.052433967590332,-0.04001566395163536,-3.7912039756774902
1403638519857829500,0.000675499439239502,0.01709822751581669,0.07421904057264328,8.930171966552734,-0.12172263115644455,-3.750316858291626
1403638519862829500,-0.0007116049528121948,0.015711987391114235,0.07632001489400864,9.019911766052246,-0.0809030681848526,-3.758561611175537
1403638519867829500,-0.00211314857006073,0.019190533086657524,0.08050728589296341,8.94631576538086,-0.007355016656219959,-3.76672101020813
1403638519872829500,0.0006876587867736816,0.014323350042104721,0.07841891795396805,9.101420402526855,0.0008274138090200722,-3.8157713413238525
1403638519877829500,-0.0056029558181762695,0.02059202268719673,0.08050123602151871,9.011624336242676,-0.05636840686202049,-3.791187047958374
1403638519882829500,-0.0028033852577209473,0.02478882670402527,0.08120878785848618,9.150280952453613,-0.015522990375757217,-3.8238813877105713
1403638519887829500,-0.004216402769088745,0.028954017907381058,0.08119481056928635,8.929972648620605,-0.07269259542226791,-3.7747678756713867
1403638519892829500,-1.4722347259521484e-05,0.01989305578172207,0.080511175096035,8.995368003845215,-0.04006911441683769,-3.742229700088501
1403638519897829500,-0.0028073489665985107,0.022685198113322258,0.0777178630232811,9.003443717956543,-0.04004216939210892,-3.758552312850952
1403638519902829500,-0.002804696559906006,0.015714185312390327,0.07841254025697708,9.052531242370605,-0.07273246347904205,-3.7749013900756836
1403638519907829500,-0.0007185041904449463,0.02059902623295784,0.07701458781957626,9.060558319091797,-0.03180242329835892,-3.8320112228393555
1403638519912829500,-0.0021040737628936768,0.019201911985874176,0.07981953769922256,9.0604887008667,0.04983634874224663,-3.7913084030151367
1403638519917829500,-0.004207506775856018,0.025477059185504913,0.074223093688488,9.003376007080078,-0.04815618321299553,-3.791177988052368
1403638519922829500,-0.0028113871812820435,0.02198690176010132,0.0798068568110466,9.00345230102539,-0.04001960903406143,-3.7830238342285156
1403638519927829500,-0.002114206552505493,0.023371689021587372,0.08120527118444443,8.91368579864502,-0.03188405558466911,-3.7340281009674072
1403638519932829500,-0.0014137476682662964,0.014314347878098488,0.07910832017660141,9.003532409667969,-0.04001902416348457,-3.791219711303711
1403638519937829500,-0.0014118701219558716,0.017106475308537483,0.07631977647542953,9.011651992797852,-0.0400150828063488,-3.7830588817596436
1403638519942829500,-0.0028112828731536865,0.01780279353260994,0.07491932064294815,8.9953031539917,-0.048153191804885864,-3.799365758895874
1403638519947829500,0.0006771087646484375,0.020598243921995163,0.07701470702886581,9.052427291870117,-0.03997601941227913,-3.823838949203491
1403638519952829500,0.0006774812936782837,0.015010328963398933,0.07910584658384323,8.987300872802734,-0.0890534445643425,-3.7748451232910156
1403638519957829500,-0.0021075159311294556,0.024786096066236496,0.07632278650999069,9.085029602050781,-0.04819517582654953,-3.791205644607544
1403638519962829500,0.0006725192070007324,0.021984264254570007,0.07701129466295242,8.962686538696289,-0.06449775397777557,-3.791137933731079
1403638519967829500,-0.0035057663917541504,0.0240788497030735,0.07632187753915787,8.987083435058594,-0.031859446316957474,-3.7585525512695312
1403638519972829500,0.000670894980430603,0.01988944038748741,0.07910511642694473,8.946328163146973,-0.023634521290659904,-3.807485342025757
1403638519977829500,-1.615285873413086e-05,0.020601904019713402,0.08050618320703506,9.109604835510254,-0.05636869743466377,-3.815687656402588
1403638519982829500,-0.0014267265796661377,0.020588316023349762,0.08049262315034866,8.962708473205566,-0.08082158118486404,-3.8237619400024414
1403638519987829500,0.0006773918867111206,0.019904442131519318,0.07771066576242447,9.093276977539062,-0.06449176371097565,-3.8401565551757812
1403638519992829500,-0.002118825912475586,0.019884398207068443,0.07840526849031448,8.905580520629883,-0.07269442081451416,-3.7666473388671875
1403638519997829500,0.0006776303052902222,0.02268696017563343,0.07911380380392075,9.0197114944458,0.009028682485222816,-3.8075385093688965
1403638520002829500,-0.0021132081747055054,0.018501391634345055,0.07701484113931656,9.011609077453613,-0.0318218432366848,-3.807535409927368
1403638520007829500,-0.0028092116117477417,0.024784516543149948,0.07911502569913864,9.084890365600586,0.03355677053332329,-3.8402185440063477
1403638520012829500,-0.0021238774061203003,0.02546701394021511,0.08328922837972641,8.938140869140625,-0.0399944894015789,-3.799281358718872
1403638520017829500,-0.00350305438041687,0.01920311152935028,0.07911307364702225,9.068733215332031,-0.02368592470884323,-3.7994086742401123
1403638520022829500,-0.004906177520751953,0.01779337041079998,0.08050284534692764,8.930012702941895,-0.0318601056933403,-3.766709804534912
1403638520027829500,-1.4379620552062988e-05,0.017112459987401962,0.07911213487386703,9.085128784179688,-0.04002150520682335,-3.807558298110962
1403638520032829500,-0.004204481840133667,0.02058931067585945,0.07631766051054001,8.970845222473145,-0.07271632552146912,-3.750370740890503
1403638520037829500,-0.002106115221977234,0.017813099548220634,0.07422760874032974,9.101371765136719,-0.031818851828575134,-3.8239057064056396
1403638520042829500,-2.276897430419922e-05,0.02478559873998165,0.07422208040952682,9.060538291931152,-0.056292321532964706,-3.8319742679595947
1403638520047829500,-0.0014101117849349976,0.024087484925985336,0.07493006438016891,9.068619728088379,0.009030872955918312,-3.8075716495513916
1403638520052829500,-0.0014185160398483276,0.02407403476536274,0.08120308071374893,8.95447826385498,-0.031858645379543304,-3.766674280166626
1403638520057829500,-0.003507658839225769,0.019893862307071686,0.08050451427698135,9.00349235534668,-0.048207808285951614,-3.7748730182647705
1403638520062829500,-0.007002890110015869,0.024076253175735474,0.07701034098863602,8.962543487548828,-0.03181235119700432,-3.7993392944335938
1403638520067829500,-0.004906460642814636,0.015013597905635834,0.07910125702619553,9.019850730895996,-0.07268296182155609,-3.815685272216797
1403638520072829500,-0.004204913973808289,0.02199690043926239,0.08120115846395493,9.117673873901367,-0.040008582174777985,-3.8401825428009033
1403638520077829500,-2.0459294319152832e-05,0.02338491752743721,0.0832996740937233,9.04422378540039,0.0008345693349838257,-3.8075292110443115
1403638520082829500,-0.002119794487953186,0.026866968721151352,0.08189747482538223,8.978931427001953,-0.04000668600201607,-3.7911391258239746
1403638520087829500,-1.5974044799804688e-05,0.021288253366947174,0.07702303677797318,8.978948593139648,-0.007346108555793762,-3.7585744857788086
1403638520092829500,-0.002112269401550293,0.019192403182387352,0.07422662526369095,8.938126564025879,-0.015488673001527786,-3.766728401184082
1403638520097829500,-0.0028066039085388184,0.012224551290273666,0.07771461457014084,9.027972221374512,-0.015495463274419308,-3.8075904846191406
1403638520102829500,-0.004889100790023804,0.018513718619942665,0.07632652670145035,9.158509254455566,-0.040057647973299026,-3.799452066421509
1403638520107829500,-0.0021140724420547485,0.018506495282053947,0.07840586453676224,9.068817138671875,-0.08084575086832047,-3.8238344192504883
1403638520112829500,-0.002807989716529846,0.025482479482889175,0.07771510630846024,9.07689094543457,-0.06453652679920197,-3.7911834716796875
1403638520117829500,-0.0021210908889770508,0.021972430869936943,0.07980091124773026,8.872902870178223,-0.05635511502623558,-3.7584712505340576
1403638520122829500,0.0034715086221694946,0.024081416428089142,0.07911757379770279,9.01159381866455,0.0008293852442875504,-3.7748799324035645
1403638520127829500,-0.0007247775793075562,0.021981891244649887,0.08119849115610123,8.954485893249512,-0.03182177245616913,-3.7993133068084717
1403638520132829500,-1.3887882232666016e-05,0.0178134273737669,0.07422664016485214,9.101415634155273,-0.04815976321697235,-3.823882818222046
1403638520137829500,-0.002119496464729309,0.018498212099075317,0.08189380913972855,8.995321273803711,-0.03998580202460289,-3.823820114135742
1403638520142829500,-0.0035047978162765503,0.01850513555109501,0.07841408997774124,9.060542106628418,-0.007324131205677986,-3.8157384395599365
1403638520147829500,-0.0014239400625228882,0.01918911747634411,0.08049514144659042,8.93011474609375,-0.09719965606927872,-3.7829501628875732
1403638520152829500,-0.002107575535774231,0.02199748530983925,0.07632104307413101,9.101358413696289,-0.040003105998039246,-3.815711259841919
1403638520157829500,0.0013612061738967896,0.02267679199576378,0.08049318939447403,8.921895027160645,-0.07264097779989243,-3.8155720233917236
1403638520162829500,-1.1429190635681152e-05,0.019902875646948814,0.07772058993577957,9.085108757019043,-0.04004450514912605,-3.783073902130127
1403638520167829500,-0.004906266927719116,0.024081634357571602,0.07840996235609055,9.019698143005371,-0.03182637318968773,-3.8075156211853027
1403638520172829500,-0.005595356225967407,0.016411500051617622,0.07632157951593399,9.044215202331543,-0.007333915214985609,-3.799441337585449
1403638520177829500,-0.007699787616729736,0.017097175121307373,0.07700779289007187,8.929985046386719,-0.0481647290289402,-3.7911927700042725
1403638520182829500,-0.00629231333732605,0.017108717933297157,0.08190486580133438,9.068727493286133,-0.00737714022397995,-3.7912776470184326
1403638520187829500,-0.004211843013763428,0.022682588547468185,0.0784037634730339,8.979016304016113,-0.09720418602228165,-3.7829718589782715
1403638520192829500,-0.002108663320541382,0.01920509897172451,0.07631925493478775,9.076918601989746,-0.048178382217884064,-3.8075499534606934
1403638520197829500,0.0006674230098724365,0.025471072643995285,0.07840429991483688,8.95447826385498,-0.05630619451403618,-3.8074350357055664
1403638520202829500,0.0013785064220428467,0.021993739530444145,0.07562410086393356,9.052413940429688,-0.03182688355445862,-3.7993693351745605
1403638520207829500,-0.0014231204986572266,0.024774476885795593,0.07770907133817673,8.962586402893066,-0.031799573451280594,-3.8074729442596436
1403638520212829500,-0.002809375524520874,0.016407521441578865,0.07771275192499161,9.003491401672363,-0.04001245275139809,-3.7912204265594482
1403638520217829500,-0.0007078051567077637,0.021296648308634758,0.0756308063864708,9.060542106628418,-0.007352899294346571,-3.7749342918395996
1403638520222829500,-0.002109438180923462,0.017107822000980377,0.07841276377439499,9.036145210266113,-0.04002530500292778,-3.791226625442505
1403638520227829500,-0.003505602478981018,0.01920287311077118,0.0763181820511818,9.052408218383789,-0.04000120982527733,-3.8075501918792725
1403638520232829500,-0.0028111785650253296,0.01710992120206356,0.076312355697155,9.044332504272461,-0.0808442160487175,-3.815680503845215
1403638520237829500,-0.005596965551376343,0.023388033732771873,0.07562459260225296,9.052298545837402,-0.007322743535041809,-3.799407958984375
1403638520242829500,-0.003507271409034729,0.021290645003318787,0.08190249651670456,9.027914047241211,-0.015523646958172321,-3.7912180423736572
1403638520247829500,0.0013735592365264893,0.0268697552382946,0.07911274582147598,8.99524211883545,-0.015493272803723812,-3.7830076217651367
1403638520252829500,0.002069830894470215,0.017794445157051086,0.08050384372472763,8.93007755279541,-0.03183944150805473,-3.7748425006866455
1403638520257829500,-0.0007056444883346558,0.018507489934563637,0.0763307437300682,9.076862335205078,0.017158979550004005,-3.783134937286377
1403638520262829500,-0.002804875373840332,0.019900977611541748,0.0763215497136116,9.060579299926758,-0.04002092406153679,-3.791232109069824
1403638520267829500,-0.0034963637590408325,0.019209738820791245,0.07493273168802261,9.13392162322998,0.017188915982842445,-3.8239564895629883
1403638520272829500,-0.004209756851196289,0.021987823769450188,0.07980302721261978,9.011587142944336,-0.03999529406428337,-3.8075063228607178
1403638520277829500,-0.0035092830657958984,0.021291110664606094,0.07771372050046921,9.011543273925781,-0.0073041245341300964,-3.8075437545776367
1403638520282829500,-2.4139881134033203e-05,0.024769743904471397,0.08190210908651352,8.938141822814941,-0.015510722994804382,-3.7666735649108887
1403638520287829500,-0.0007154196500778198,0.02408386394381523,0.07562624663114548,9.027828216552734,0.009039634838700294,-3.799391746520996
1403638520292829500,0.0006737411022186279,0.017100438475608826,0.07422062009572983,8.938178062438965,-0.03178796544671059,-3.799344301223755
1403638520297829500,-0.0014078319072723389,0.016418516635894775,0.07422811537981033,9.109537124633789,-0.023640217259526253,-3.832078456878662
1403638520302829500,-0.002821013331413269,0.024768909439444542,0.07700558751821518,8.91369915008545,-0.08900028467178345,-3.7829365730285645
1403638520307829500,-0.0035029947757720947,0.0185053963214159,0.07352844625711441,9.044258117675781,-0.04817363619804382,-3.791236639022827
1403638520312829500,-0.0007246583700180054,0.02198752947151661,0.07631050795316696,8.987152099609375,-0.07264462858438492,-3.8156239986419678
1403638520317829500,-1.6987323760986328e-05,0.0233866386115551,0.0770210549235344,9.036052703857422,-0.01549444068223238,-3.7912116050720215
1403638520322829500,-0.0007216781377792358,0.023377761244773865,0.07840793579816818,8.954544067382812,-0.08087100833654404,-3.7666409015655518
1403638520327829500,-0.0014080852270126343,0.02408849634230137,0.0749296173453331,9.076842308044434,-0.023673512041568756,-3.791231393814087
1403638520332829500,-0.003508448600769043,0.025473548099398613,0.07841312140226364,8.987086296081543,-0.04003136232495308,-3.766690254211426
1403638520337829500,-0.0028089582920074463,0.019899504259228706,0.08469083160161972,9.076973915100098,-0.05639877915382385,-3.7993574142456055
1403638520342829500,-0.000716671347618103,0.02338385581970215,0.08399742096662521,9.036108016967773,-0.02371053211390972,-3.7830283641815186
1403638520347829500,-0.002115994691848755,0.021987587213516235,0.08538731187582016,9.027970314025879,-0.04003581777215004,-3.799332618713379
1403638520352829500,-2.35140323638916e-05,0.022681448608636856,0.0825968012213707,8.979026794433594,-0.05637329816818237,-3.7748184204101562
1403638520357829500,0.0027754008769989014,0.02059941180050373,0.07632475346326828,9.060566902160645,-0.007310842163860798,-3.807551860809326
1403638520362829500,-0.002111494541168213,0.020595496520400047,0.07562322169542313,9.019695281982422,0.0008696168661117554,-3.80755877494812
1403638520367829500,-0.001414567232131958,0.01710524410009384,0.07980617135763168,9.01168441772461,-0.04819035530090332,-3.791201114654541
1403638520372829500,-0.002115800976753235,0.018497273325920105,0.0791051909327507,8.979022979736328,-0.05634445697069168,-3.7911758422851562
1403638520377829500,-0.0021122395992279053,0.017801618203520775,0.08190005272626877,9.011686325073242,-0.04820933938026428,-3.783036231994629
1403638520382829500,-0.0035099536180496216,0.024083027616143227,0.0735257938504219,9.011517524719238,-0.03179650753736496,-3.8075191974639893
1403638520387829500,-0.0014114081859588623,0.01710696518421173,0.07492495328187943,9.011615753173828,-0.023658325895667076,-3.7912368774414062
1403638520392829500,-0.0014065206050872803,0.02478804439306259,0.07423689216375351,9.101205825805664,0.03354523330926895,-3.8157644271850586
1403638520397829500,-0.0021120458841323853,0.022682901471853256,0.07771722227334976,8.978910446166992,-0.007331067696213722,-3.7748875617980957
1403638520402829500,-0.004196435213088989,0.020597726106643677,0.07353154569864273,9.044334411621094,-0.0972573384642601,-3.734076499938965
1403638520407829500,-0.004210725426673889,0.02198447659611702,0.07770823687314987,8.970797538757324,-0.05633430555462837,-3.7911629676818848
1403638520412829500,-0.0014183372259140015,0.02338622324168682,0.07491982728242874,9.019723892211914,-0.03996440768241882,-3.8156635761260986
1403638520417829500,-0.002116084098815918,0.01919706165790558,0.07980040460824966,9.003578186035156,-0.10539209097623825,-3.7829818725585938
1403638520422829500,-0.0007142573595046997,0.024091675877571106,0.07911016792058945,9.125900268554688,-0.07270698249340057,-3.8156683444976807
1403638520427829500,-0.0021182894706726074,0.02128327451646328,0.07979962974786758,8.9464750289917,-0.12992069125175476,-3.7502894401550293
1403638520432829500,-1.8194317817687988e-05,0.020596103742718697,0.07841277867555618,9.036142349243164,-0.048192985355854034,-3.7911925315856934
1403638520437829500,0.000669136643409729,0.016394684091210365,0.07770421355962753,8.88113784790039,-0.07267434149980545,-3.7829575538635254
1403638520442829500,-0.0007123649120330811,0.017812442034482956,0.079111747443676,9.1177339553833,-0.031843457370996475,-3.832049608230591
1403638520447829500,-0.0028188377618789673,0.024076947942376137,0.08538385480642319,8.995268821716309,-0.031839367002248764,-3.8156299591064453
1403638520452829500,-0.004198282957077026,0.024089127779006958,0.08400266617536545,9.142075538635254,0.025313517078757286,-3.8239176273345947
1403638520457829500,-0.004207059741020203,0.024078577756881714,0.08190079778432846,9.003435134887695,-0.04004530981183052,-3.7748560905456543
1403638520462829500,-0.0028122663497924805,0.022683046758174896,0.07980764657258987,8.987102508544922,-0.023674461990594864,-3.7830309867858887
1403638520467829500,-0.001421421766281128,0.019184717908501625,0.0818968340754509,8.8974027633667,-0.04002157971262932,-3.7666614055633545
1403638520472829500,-0.0021097958087921143,0.017810147255659103,0.07980728894472122,9.093256950378418,-0.04001208767294884,-3.823878288269043
1403638520477829500,-2.63899564743042e-05,0.023385122418403625,0.07980421930551529,9.027875900268555,-0.015444936230778694,-3.8401429653167725
1403638520482829500,-0.00489555299282074,0.018512072041630745,0.07352913171052933,9.117696762084961,-0.056347232311964035,-3.815744161605835
1403638520487829500,-0.003510013222694397,0.01919103041291237,0.07631587237119675,8.938175201416016,-0.04817984253168106,-3.7666988372802734
1403638520492829500,-0.0028075873851776123,0.01780109480023384,0.07701889425516129,8.987125396728516,-0.015509190037846565,-3.7749133110046387
1403638520497829500,-0.004906490445137024,0.024074867367744446,0.07841289788484573,8.954357147216797,0.009018386714160442,-3.7830495834350586
1403638520502829500,-0.00490415096282959,0.015010034665465355,0.07840750366449356,8.987175941467285,-0.04818400368094444,-3.7912161350250244
1403638520507829500,-0.005602329969406128,0.02059229277074337,0.07770908623933792,9.003500938415527,-0.0890488401055336,-3.7748501300811768
1403638520512829500,-0.0035103708505630493,0.020593777298927307,0.0770123228430748,9.011617660522461,-0.056338176131248474,-3.799349069595337
1403638520517829500,-0.0007251203060150146,0.02338400110602379,0.07910143584012985,9.011652946472168,-0.08083552867174149,-3.81561279296875
1403638520522829500,-0.002810955047607422,0.02338542230427265,0.08120190352201462,9.044272422790527,-0.05637555941939354,-3.7911758422851562
1403638520527829500,-0.0035129189491271973,0.024775102734565735,0.08120083063840866,8.98708438873291,-0.031843457370996475,-3.7911672592163086
1403638520532829500,0.002769961953163147,0.016405366361141205,0.08259759098291397,8.995436668395996,-0.0563746839761734,-3.7830092906951904
1403638520537829500,-1.4513731002807617e-05,0.02059813402593136,0.07841876894235611,9.06054401397705,0.0008327439427375793,-3.799406051635742
1403638520542829500,-0.004909440875053406,0.018498439341783524,0.07840471714735031,8.987100601196289,-0.03180307894945145,-3.8238425254821777
1403638520547829500,-0.004204511642456055,0.024085335433483124,0.0805068239569664,9.068675994873047,-0.023679353296756744,-3.807535171508789
1403638520552829500,-2.2813677787780762e-05,0.020579868927598,0.08329581469297409,8.905624389648438,-0.06457442045211792,-3.7339940071105957
1403638520557829500,-0.002807110548019409,0.02408849075436592,0.08190403133630753,9.109501838684082,-0.023689357563853264,-3.815702199935913
1403638520562829500,-0.0028113573789596558,0.021290531381964684,0.07701276987791061,9.003514289855957,-0.08904445916414261,-3.7748360633850098
1403638520567829500,-0.001413196325302124,0.0226897019892931,0.07352828234434128,9.027914047241211,-0.04816034808754921,-3.7911975383758545
1403638520572829500,-0.004906356334686279,0.014304311946034431,0.08189799636602402,8.921865463256836,-0.015520872548222542,-3.774888753890991
1403638520577829500,-0.004894286394119263,0.019903497770428658,0.07632959634065628,9.093057632446289,0.0498654805123806,-3.815809488296509
1403638520582829500,-0.004903614521026611,0.020592650398612022,0.07910867780447006,9.01158332824707,-0.03184732794761658,-3.7912092208862305
1403638520587829500,-0.003507271409034729,0.021998180076479912,0.07771206647157669,9.117654800415039,-0.03997572511434555,-3.8483471870422363
1403638520592829500,-0.002817809581756592,0.023379318416118622,0.08119455724954605,8.979042053222656,-0.09721148759126663,-3.782954454421997
1403638520597829500,-0.004208400845527649,0.021988002583384514,0.07910548895597458,9.011630058288574,-0.06452608108520508,-3.7911746501922607
1403638520602829500,0.0006733834743499756,0.01918654330074787,0.07770790904760361,8.905702590942383,-0.12991739809513092,-3.7339582443237305
1403638520607829500,-0.002104714512825012,0.01850752905011177,0.07422950118780136,9.068767547607422,-0.04819692671298981,-3.783083915710449
1403638520612829500,-0.0014167875051498413,0.018499009311199188,0.07701285928487778,8.987175941467285,-0.05634401738643646,-3.7911815643310547
1403638520617829500,-0.0014027208089828491,0.01781228370964527,0.07772747427225113,9.1176118850708,0.049848251044750214,-3.815814256668091
1403638520622829500,-0.004906579852104187,0.02547035925090313,0.07701616734266281,8.954377174377441,-0.015497580170631409,-3.7748632431030273
1403638520627829500,-0.0028090626001358032,0.021290555596351624,0.08050870150327682,9.01972484588623,0.0008301883935928345,-3.7912309169769287
1403638520632829500,-0.0035156309604644775,0.01918882317841053,0.08049630373716354,8.930062294006348,-0.07269033044576645,-3.7829742431640625
1403638520637829500,-0.004209995269775391,0.015008199959993362,0.07561176270246506,8.954537391662598,-0.06449176371097565,-3.799349308013916
1403638520642829500,-0.00072498619556427,0.01849490776658058,0.08119355887174606,8.962776184082031,-0.09720403701066971,-3.791121482849121
1403638520647829500,0.004167646169662476,0.01990113966166973,0.0763205960392952,9.052454948425293,-0.0318073146045208,-3.815683603286743
1403638520652829500,-1.901388168334961e-05,0.019898002967238426,0.07561954110860825,9.019824028015137,-0.06451352685689926,-3.7911837100982666
1403638520657829500,-0.0021086931228637695,0.017107199877500534,0.07980813831090927,9.036195755004883,-0.06456229835748672,-3.7748851776123047
1403638520662829500,-0.0014099478721618652,0.020594032481312752,0.07771923393011093,9.019786834716797,-0.03187105804681778,-3.7667341232299805
1403638520667829500,-0.0007201731204986572,0.019888607785105705,0.07701405137777328,8.938182830810547,-0.040002740919589996,-3.7748472690582275
1403638520672829500,-0.005607113242149353,0.024080125615000725,0.0763121172785759,8.99520206451416,-0.03997054323554039,-3.815659523010254
1403638520677829500,-0.006298616528511047,0.01710123009979725,0.07771237939596176,8.970784187316895,-0.02367562986910343,-3.7830677032470703
1403638520682829500,-0.00211276113986969,0.019204817712306976,0.0763154998421669,9.068741798400879,-0.048148151487112045,-3.8320188522338867
1403638520687829500,-0.0007251054048538208,0.02268625982105732,0.0791032537817955,9.011591911315918,-0.03996148705482483,-3.831965208053589
1403638520692829500,-0.0007185488939285278,0.022689156234264374,0.07910952717065811,9.04422664642334,-0.02365204505622387,-3.815681219100952
1403638520697829500,0.0020699799060821533,0.019888486713171005,0.0832965150475502,8.954557418823242,-0.03185718506574631,-3.7748360633850098
1403638520702829500,0.001378864049911499,0.019195303320884705,0.07841784507036209,8.978985786437988,-0.007344283163547516,-3.7667338848114014
1403638520707829500,-0.0035042166709899902,0.016400549560785294,0.07911505550146103,8.946319580078125,0.0008052170160226524,-3.7504377365112305
1403638520712829500,-0.003501713275909424,0.01850469596683979,0.0770208016037941,9.05239486694336,-0.015510212630033493,-3.7912580966949463
1403638520717829500,-0.002119719982147217,0.0184944961220026,0.07979906350374222,8.954545974731445,-0.06450147926807404,-3.799311876296997
1403638520722829500,-0.003497704863548279,0.020605100318789482,0.07841949909925461,9.158432006835938,0.0008320137858390808,-3.8320930004119873
1403638520727829500,-0.004206806421279907,0.021288108080625534,0.07980398088693619,8.995376586914062,-0.09724127501249313,-3.7585055828094482
1403638520732829500,-0.002802938222885132,0.021995162591338158,0.07771927863359451,9.085060119628906,-0.04004129394888878,-3.7830708026885986
1403638520737829500,0.0027786046266555786,0.017799343913793564,0.07772376388311386,8.970876693725586,-0.015545844100415707,-3.73409104347229
1403638520742829500,-0.0007084459066390991,0.017111975699663162,0.07702607661485672,9.076842308044434,0.033523328602313995,-3.8076272010803223
1403638520747829500,-2.7671456336975098e-05,0.023381821811199188,0.07980116456747055,8.995279312133789,-0.03996528312563896,-3.823791742324829
1403638520752829500,-0.004203423857688904,0.024787941947579384,0.07771582156419754,9.11759090423584,-0.015470419079065323,-3.8401968479156494
1403638520757829500,-0.006309866905212402,0.021282101050019264,0.07909779995679855,8.929977416992188,-0.05631422623991966,-3.807467460632324
1403638520762829500,-0.004904121160507202,0.017807429656386375,0.07561614364385605,9.0442476272583,-0.04814881086349487,-3.8238704204559326
1403638520767829500,-0.004211589694023132,0.021977052092552185,0.07421756535768509,8.897369384765625,-0.08084946870803833,-3.7584850788116455
1403638520772829500,-0.0035073161125183105,0.0150119848549366,0.07840920239686966,9.00351619720459,-0.04818648472428322,-3.7912204265594482
1403638520777829500,-0.0007169246673583984,0.018505174666643143,0.07771263271570206,9.052453994750977,-0.048167064785957336,-3.815690755844116
1403638520782829500,0.002071276307106018,0.020600700750947,0.07701445370912552,9.076898574829102,-0.0317845344543457,-3.8483262062072754
1403638520787829500,-0.0014161169528961182,0.02477884478867054,0.07981059700250626,9.019688606262207,0.0008448645821772516,-3.7993671894073486
1403638520792829500,-0.0035107582807540894,0.022684192284941673,0.08050321787595749,9.003438949584961,-0.04001719877123833,-3.791182041168213
1403638520797829500,-0.0028188228607177734,0.02127441018819809,0.08119646459817886,8.872906684875488,-0.056362416595220566,-3.7584738731384277
1403638520802829500,-0.0007178932428359985,0.01640167087316513,0.08399289101362228,8.970948219299316,-0.06457515060901642,-3.7585225105285645
1403638520807829500,-0.0021180659532546997,0.02268509939312935,0.0811992958188057,9.011587142944336,-0.03182169795036316,-3.815657138824463
1403638520812829500,-0.0014173686504364014,0.019200753420591354,0.07910612970590591,9.036110877990723,-0.03998616710305214,-3.823841094970703
1403638520817829500,-0.0035018622875213623,0.02060447633266449,0.07562381774187088,9.125814437866211,-0.0318257138133049,-3.832058906555176
1403638520822829500,-2.314150333404541e-05,0.01640327088534832,0.08329292386770248,8.979073524475098,-0.04819459095597267,-3.7911736965179443
1403638520827829500,-0.0007175356149673462,0.023383749648928642,0.07841449230909348,9.01156997680664,-0.015494659543037415,-3.7912003993988037
1403638520832829500,-0.0007201135158538818,0.02477576769888401,0.07562220841646194,8.97071361541748,-0.007296822965145111,-3.7911882400512695
1403638520837829500,-0.0035036206245422363,0.019198376685380936,0.07562617212533951,9.003376007080078,0.009013568051159382,-3.7831010818481445
1403638520842829500,-0.0035018473863601685,0.01361982710659504,0.07492563873529434,9.019781112670898,-0.015497580170631409,-3.7912752628326416
1403638520847829500,-0.0041937679052352905,0.019904404878616333,0.07423556596040726,9.09312915802002,0.008999183773994446,-3.7913031578063965
1403638520852829500,-0.002810165286064148,0.022685788571834564,0.07352445274591446,8.995326042175293,-0.08902876079082489,-3.7666776180267334
1403638520857829500,-2.5823712348937988e-05,0.027573473751544952,0.07421954721212387,9.03605842590332,-0.07262644171714783,-3.823777198791504
1403638520862829500,0.0013663768768310547,0.02964717522263527,0.07980538159608841,8.880985260009766,-0.031833380460739136,-3.7584502696990967
1403638520867829500,0.001374751329421997,0.023384204134345055,0.07632004469633102,9.003437995910645,-0.03181958198547363,-3.791177988052368
1403638520872829500,-0.0021157562732696533,0.022674789652228355,0.0735267922282219,8.889114379882812,-0.015480641275644302,-3.7585296630859375
1403638520877829500,-0.002111285924911499,0.019901633262634277,0.07353325933218002,9.052214622497559,0.05810975655913353,-3.848418951034546
1403638520882829500,0.0006686896085739136,0.021987225860357285,0.07421661168336868,8.970780372619629,-0.04809536412358284,-3.8319504261016846
1403638520887829500,-0.0007134824991226196,0.02478819712996483,0.07562495023012161,9.101306915283203,-0.0236420426517725,-3.823863983154297
1403638520892829500,-0.0007249712944030762,0.026867130771279335,0.07980263978242874,8.970802307128906,-0.06450388580560684,-3.791114330291748
1403638520897829500,-0.0014152377843856812,0.022689780220389366,0.0777127668261528,9.044281959533691,-0.06451476365327835,-3.799337863922119
1403638520902829500,0.000667870044708252,0.02057981677353382,0.07630936056375504,8.872915267944336,-0.06448198109865189,-3.782947301864624
1403638520907829500,-0.001406162977218628,0.015019236132502556,0.07632482796907425,9.06875228881836,-0.007338369265198708,-3.799445867538452
1403638520912829500,-1.8164515495300293e-05,0.019898049533367157,0.07562225311994553,9.019773483276367,-0.03182060271501541,-3.7993714809417725
1403638520917829500,-0.0007131993770599365,0.022696735337376595,0.07213517278432846,9.101283073425293,-0.015440262854099274,-3.840205192565918
1403638520922829500,-0.0021079033613204956,0.024782471358776093,0.07632467895746231,9.044182777404785,-0.015506853349506855,-3.7830605506896973
1403638520927829500,-0.0021056383848190308,0.022693507373332977,0.07632484287023544,9.085006713867188,-0.015505246818065643,-3.7994072437286377
1403638520932829500,-0.0021094530820846558,0.025479312986135483,0.07632080465555191,9.036124229431152,-0.08089211583137512,-3.7585201263427734
1403638520937829500,-0.004187524318695068,0.015024323016405106,0.07563219219446182,9.134062767028809,-0.023734772577881813,-3.7750024795532227
1403638520942829500,-0.0014181286096572876,0.020596232265233994,0.0763130858540535,9.02796459197998,-0.06448841094970703,-3.815659284591675
1403638520947829500,-0.0014102309942245483,0.018503528088331223,0.07911286503076553,9.04430103302002,-0.03186507150530815,-3.7830681800842285
1403638520952829500,0.002079516649246216,0.02687748707830906,0.08051516860723495,9.085029602050781,-0.007362318225204945,-3.783048391342163
1403638520957829500,0.0041637420654296875,0.021988533437252045,0.0839969739317894,9.027945518493652,0.009024739265441895,-3.815674066543579
1403638520962829500,0.0027763694524765015,0.01850069873034954,0.07981600612401962,9.011640548706055,0.008991005830466747,-3.774916172027588
1403638520967829500,0.002772420644760132,0.01780111901462078,0.0826021209359169,9.003533363342285,-0.015517659485340118,-3.783041477203369
1403638520972829500,-0.003501027822494507,0.01989694871008396,0.07632455974817276,9.01974868774414,-0.015520361252129078,-3.7667644023895264
1403638520977829500,-0.00211411714553833,0.02198382280766964,0.07910976558923721,8.97080135345459,-0.031842947006225586,-3.7748589515686035
1403638520982829500,-0.002116098999977112,0.021989673376083374,0.07771038264036179,9.019752502441406,-0.039974410086870193,-3.8156659603118896
1403638520987829500,-0.0021125078201293945,0.021292028948664665,0.07771184295415878,9.019851684570312,-0.08904687315225601,-3.7748403549194336
1403638520992829500,-0.002109244465827942,0.023389361798763275,0.07352904230356216,9.05239486694336,-0.056338321417570114,-3.7912003993988037
1403638520997829500,0.0006732344627380371,0.021984107792377472,0.07561696320772171,8.954492568969727,-0.04814625531435013,-3.791152000427246
1403638521002829500,-0.0014090389013290405,0.021995550021529198,0.07213801890611649,9.060470581054688,0.0008720263722352684,-3.80757737159729
1403638521007829500,-0.004905626177787781,0.024071231484413147,0.07562004774808884,8.91360855102539,-0.03184739872813225,-3.750365972518921
1403638521012829500,-0.006997331976890564,0.02199190855026245,0.07631824165582657,9.044096946716309,0.009052558802068233,-3.8320579528808594
1403638521017829500,-0.004217207431793213,0.023377694189548492,0.07700236886739731,8.946371078491211,-0.11350975185632706,-3.7992584705352783
1403638521022829500,-0.00421006977558136,0.0226889681071043,0.0756126120686531,9.027958869934082,-0.09717869758605957,-3.80747652053833
1403638521027829500,-0.0028174668550491333,0.02337803691625595,0.0777057632803917,8.954549789428711,-0.10537470877170563,-3.774787664413452
1403638521032829500,-0.0028106272220611572,0.01989942416548729,0.0798032209277153,9.052518844604492,-0.09723251312971115,-3.791171073913574
1403638521037829500,0.0020614415407180786,0.018492555245757103,0.07839903980493546,8.921968460083008,-0.0971648246049881,-3.807417154312134
1403638521042829500,0.004168674349784851,0.019207438454031944,0.0770212933421135,9.101334571838379,0.01723717898130417,-3.856534004211426
1403638521047829500,0.002756163477897644,0.019193490967154503,0.08049312978982925,8.954519271850586,-0.03992731496691704,-3.8564140796661377
1403638521052829500,0.0034694522619247437,0.024087833240628242,0.0846974179148674,9.11766242980957,0.017194319516420364,-3.8483409881591797
1403638521057829500,-0.0021178722381591797,0.026171686127781868,0.07980654388666153,8.99520492553711,-0.015478596091270447,-3.8074963092803955
1403638521062829500,-0.0007143616676330566,0.019206058233976364,0.08260055631399155,9.117715835571289,-0.015499844215810299,-3.840205669403076
1403638521067829500,-0.002805948257446289,0.02059769071638584,0.07702065259218216,9.052374839782715,-0.015500209294259548,-3.799405574798584
1403638521072829500,-0.0021058320999145508,0.0143167395144701,0.07841599732637405,9.028014183044434,-0.03186974301934242,-3.7749342918395996
1403638521077829500,-0.0014016181230545044,0.01920739933848381,0.07563143223524094,9.101397514343262,-0.023709144443273544,-3.7749552726745605
1403638521082829500,-0.0014011114835739136,0.01572064496576786,0.07772260159254074,9.125954627990723,-0.04006516933441162,-3.783123731613159
1403638521087829500,0.0006881505250930786,0.02269790694117546,0.07702600210905075,9.142146110534668,-0.007334645371884108,-3.815741539001465
1403638521092829500,-0.0021111220121383667,0.021990898996591568,0.07771622389554977,9.036055564880371,-0.015490352176129818,-3.7993829250335693
1403638521097829500,-0.003503844141960144,0.023383984342217445,0.07632517069578171,9.011513710021973,0.009005608968436718,-3.7749249935150146
1403638521102829500,-0.004191339015960693,0.018502824008464813,0.07773219794034958,9.035985946655273,0.0661456435918808,-3.7505459785461426
1403638521107829500,-0.006292715668678284,0.0226852148771286,0.07632599025964737,9.003337860107422,0.00898750126361847,-3.7586162090301514
1403638521112829500,-0.009084418416023254,0.014316821470856667,0.08538738638162613,9.068840026855469,-0.06460370123386383,-3.7749226093292236
1403638521117829500,-0.014661252498626709,0.02130231447517872,0.08817917853593826,9.215608596801758,-0.06463713943958282,-3.8157505989074707
1403638521122829500,-0.016085341572761536,0.024768387898802757,0.09234196692705154,8.9710054397583,-0.2607322335243225,-3.742032527923584
1403638521127829500,-0.010511085391044617,0.021961750462651253,0.09862042218446732,8.856874465942383,-0.301628977060318,-3.709282636642456
1403638521132829500,0.005527615547180176,0.02266819216310978,0.11466649919748306,8.938612937927246,-0.2771318554878235,-3.78265643119812
1403638521137829500,0.01949678361415863,0.030364705249667168,0.11398390680551529,9.215932846069336,-0.10547065734863281,-3.8970253467559814
1403638521142829500,0.02089737355709076,0.03524792566895485,0.0951647236943245,9.158477783203125,0.04175935313105583,-3.9134714603424072
1403638521147829500,0.011836782097816467,0.03455033153295517,0.07145864516496658,9.01933765411377,0.1725362241268158,-3.8484132289886475
1403638521152829500,0.0013536959886550903,0.026134256273508072,0.06794574111700058,8.611166954040527,0.19698625802993774,-3.7831029891967773
1403638521157829500,-0.0007346868515014648,0.012901002541184425,0.08122160285711288,8.799002647399902,0.27053532004356384,-3.8403937816619873
1403638521162829500,-0.004221826791763306,0.012198932468891144,0.0972767248749733,8.831744194030762,0.2867971658706665,-3.824094295501709
1403638521167829500,-0.011170729994773865,0.010829674080014229,0.08053816109895706,9.05200481414795,0.2541224956512451,-3.824235677719116
1403638521172829500,-0.022326484322547913,0.00804617628455162,0.05538596957921982,9.044023513793945,-0.03994038701057434,-3.7832634449005127
1403638521177829500,-0.020916074514389038,0.007367169484496117,0.03793943673372269,9.191018104553223,-0.18698245286941528,-3.783264636993408
1403638521182829500,-0.0069922953844070435,0.017817752435803413,0.04420245438814163,9.044297218322754,-0.2441186159849167,-3.7911815643310547
1403638521187829500,0.00626729428768158,0.024787064641714096,0.05538969486951828,9.003312110900879,-0.031723346561193466,-3.7748870849609375
1403638521192829500,0.002070516347885132,0.025474103167653084,0.056773729622364044,8.913521766662598,-0.04805213585495949,-3.7829952239990234
1403638521197829500,-0.004896402359008789,0.023398658260703087,0.05259474366903305,9.06838607788086,0.001011705375276506,-3.8484106063842773
1403638521202829500,-0.009093031287193298,0.028264835476875305,0.05467528849840164,8.921550750732422,-0.05622222647070885,-3.7911789417266846
1403638521207829500,-0.007002189755439758,0.024083884432911873,0.06653530150651932,8.995260238647461,-0.12164866924285889,-3.8074676990509033
1403638521212829500,-0.008405625820159912,0.021271606907248497,0.0769956037402153,8.848517417907715,-0.17075806856155396,-3.75024151802063
1403638521217829500,-0.00979524850845337,0.01570536009967327,0.08886242657899857,9.00363826751709,-0.14631175994873047,-3.782968759536743
1403638521222829500,-0.010486721992492676,0.017802497372031212,0.09235841780900955,9.068914413452148,-0.13820673525333405,-3.7585039138793945
1403638521227829500,0.0013871639966964722,0.012224825099110603,0.09097953885793686,9.093572616577148,-0.1137552335858345,-3.701420307159424
1403638521232829500,0.00417385995388031,0.01362556591629982,0.07911122590303421,9.093542098999023,-0.14632892608642578,-3.750372886657715
1403638521237829500,0.01046857237815857,0.014340844005346298,0.06795788556337357,9.2567720413208,-0.15449973940849304,-3.774932861328125
1403638521242829500,0.012570291757583618,0.02480493299663067,0.06378889828920364,9.264546394348145,0.008985164575278759,-3.799471616744995
1403638521247829500,0.01185406744480133,0.03036484122276306,0.07495898753404617,9.035808563232422,0.18057583272457123,-3.7668862342834473
1403638521252829500,0.0013832151889801025,0.030358023941516876,0.07566911727190018,8.945734977722168,0.32761433720588684,-3.7507708072662354
1403638521257829500,-0.0034880489110946655,0.019901346415281296,0.08333087712526321,9.101119995117188,0.19685636460781097,-3.7751693725585938
1403638521262829500,-0.01185654103755951,0.024093475192785263,0.07424729317426682,9.15823745727539,0.06615491956472397,-3.775078535079956
1403638521267829500,-0.01674787700176239,0.019209260120987892,0.0693441703915596,9.117609024047852,-0.07271727919578552,-3.766829252243042
1403638521272829500,-0.01257370412349701,0.025490855798125267,0.061655350029468536,9.101334571838379,-0.17066943645477295,-3.799349069595337
1403638521277829500,-0.003518328070640564,0.0247800312936306,0.062342993915081024,8.962747573852539,-0.2033165693283081,-3.791072130203247
1403638521282829500,0.004155680537223816,0.026879634708166122,0.0630476102232933,9.011594772338867,-0.11338124424219131,-3.8482227325439453
1403638521287829500,0.006242662668228149,0.02268110401928425,0.06583409756422043,8.897375106811523,-0.08887462317943573,-3.8400397300720215
1403638521292829500,0.006256997585296631,0.026878492906689644,0.0665537491440773,9.019577980041504,0.025477292016148567,-3.8401682376861572
1403638521297829500,0.0006699115037918091,0.023372314870357513,0.06933634728193283,8.864564895629883,0.009083590470254421,-3.7911713123321533
1403638521302829500,-0.0063029080629348755,0.017793629318475723,0.06724103540182114,8.880878448486328,0.0009061247110366821,-3.791228771209717
1403638521307829500,-0.004213273525238037,0.012210028246045113,0.07141760736703873,8.873003959655762,-0.12168240547180176,-3.782975435256958
1403638521312829500,-0.0028119683265686035,0.012217240408062935,0.07351727038621902,8.946520805358887,-0.13806244730949402,-3.766672372817993
1403638521317829500,-0.004207134246826172,0.008730951696634293,0.07770218700170517,8.97925090789795,-0.1707884520292282,-3.766679525375366
1403638521322829500,-0.002105221152305603,0.017815472558140755,0.08050400763750076,9.158706665039062,-0.13814525306224823,-3.7911999225616455
1403638521327829500,0.003462493419647217,0.021978750824928284,0.08678021281957626,8.954760551452637,-0.16266684234142303,-3.725743055343628
1403638521332829500,0.003475204110145569,0.020598258823156357,0.08330222219228745,9.085208892822266,-0.06460552662611008,-3.766700506210327
1403638521337829500,0.002758622169494629,0.029660625383257866,0.08328630775213242,9.011706352233887,-0.12171737849712372,-3.807360887527466
1403638521342829500,-0.002128809690475464,0.030356740579009056,0.08398190885782242,9.003389358520508,-0.05630539357662201,-3.8482096195220947
1403638521347829500,-0.0021348297595977783,0.028247008100152016,0.09654026478528976,8.88918685913086,-0.03185996040701866,-3.8155205249786377
1403638521352829500,-0.0007441788911819458,0.02336658537387848,0.10281238704919815,8.921937942504883,-0.05635423958301544,-3.856300115585327
1403638521357829500,-0.0014316290616989136,0.020579591393470764,0.09723728150129318,8.938353538513184,-0.11361431330442429,-3.791033983230591
1403638521362829500,0.0034605562686920166,0.014309270307421684,0.09515345841646194,9.00362777709961,-0.03187645971775055,-3.8237931728363037
1403638521367829500,0.0006658881902694702,0.015004517510533333,0.09654354304075241,8.987296104431152,-0.048212699592113495,-3.83193039894104
1403638521372829500,0.004862114787101746,0.011526649817824364,0.09585215896368027,9.093484878540039,-0.05642053857445717,-3.8319859504699707
1403638521377829500,0.006262049078941345,0.0185010377317667,0.09446988254785538,9.085164070129395,0.025284310802817345,-3.807542562484741
1403638521382829500,0.006268218159675598,0.013614514842629433,0.09099043160676956,9.028008460998535,0.08247239142656326,-3.7749838829040527
1403638521387829500,0.0020846277475357056,0.018504764884710312,0.08749876171350479,9.101411819458008,0.04161616787314415,-3.783132553100586
1403638521392829500,0.0013919323682785034,0.015018900856375694,0.08052461594343185,9.093204498291016,0.06616010516881943,-3.7831950187683105
1403638521397829500,-0.0006904006004333496,0.02060523070394993,0.07704830914735794,9.150196075439453,0.10698062181472778,-3.7587833404541016
1403638521402829500,-0.006283998489379883,0.017804430797696114,0.07982375472784042,9.044189453125,0.04162084311246872,-3.742372751235962
1403638521407829500,-0.011164531111717224,0.023394672200083733,0.0721503272652626,9.133716583251953,0.07437027990818024,-3.7995545864105225
1403638521412829500,-0.007694736123085022,0.026172462850809097,0.07631447166204453,9.003459930419922,-0.10538771003484726,-3.750338554382324
1403638521417829500,-0.01048944890499115,0.019199857488274574,0.07211638242006302,9.011740684509277,-0.18706612288951874,-3.77482008934021
1403638521422829500,-0.0021210312843322754,0.019195931032299995,0.07630432397127151,8.979182243347168,-0.17890749871730804,-3.7747671604156494
1403638521427829500,-0.0028083324432373047,0.019204135984182358,0.07352650910615921,9.052382469177246,-0.03180716931819916,-3.81571626663208
1403638521432829500,-0.0035119950771331787,0.01640627346932888,0.075615294277668,8.978946685791016,-0.02363160066306591,-3.8156986236572266
1403638521437829500,-0.003503084182739258,0.022000854834914207,0.07562459260225296,9.150202751159668,0.009057012386620045,-3.864720582962036
1403638521442829500,-0.004917249083518982,0.026168959215283394,0.07909340411424637,8.962711334228516,-0.13803623616695404,-3.799229145050049
1403638521447829500,-2.6628375053405762e-05,0.023381615057587624,0.08259020000696182,9.00363826751709,-0.14627401530742645,-3.7665958404541016
1403638521452829500,0.002764686942100525,0.020587796345353127,0.07980214804410934,8.954601287841797,-0.08086743205785751,-3.7829549312591553
1403638521457829500,0.004176154732704163,0.017806293442845345,0.07772517949342728,9.036176681518555,-0.015548180788755417,-3.7585952281951904
1403638521462829500,0.002775043249130249,0.012208262458443642,0.08050928264856339,8.889396667480469,-0.06459720432758331,-3.7095460891723633
1403638521467829500,-0.0014083385467529297,0.008042542263865471,0.08259586244821548,9.085320472717285,-0.09727559238672256,-3.791241407394409
1403638521472829500,-0.0035201311111450195,0.02128290757536888,0.09095779806375504,8.97915267944336,-0.13812071084976196,-3.782900094985962
1403638521477829500,-2.2113323211669922e-05,0.025483209639787674,0.09166557341814041,9.150432586669922,-0.07276108860969543,-3.8319408893585205
1403638521482829500,0.0034514665603637695,0.03105352260172367,0.09723838418722153,9.036291122436523,-0.15447813272476196,-3.7991299629211426
1403638521487829500,-3.676116466522217e-05,0.0324426144361496,0.09863824397325516,8.995294570922852,-0.04005210101604462,-3.815524101257324
1403638521492829500,-0.0014362186193466187,0.027536898851394653,0.10282588750123978,8.807598114013672,-0.015579357743263245,-3.7665317058563232
1403638521497829500,0.002038821578025818,0.026852058246731758,0.11049696058034897,8.938039779663086,0.10713329166173935,-3.9216556549072266
1403638521502829500,-0.0049385130405426025,0.03033633530139923,0.10492485016584396,8.888849258422852,0.18065010011196136,-3.8972816467285156
1403638521507829500,-0.011903956532478333,0.01918262615799904,0.09795529395341873,8.937788963317871,0.21331636607646942,-3.889289140701294
1403638521512829500,-0.02235889434814453,0.015691395848989487,0.09027890115976334,8.888808250427246,0.16421973705291748,-3.8158884048461914
1403638521517829500,-0.02304902672767639,0.005924826487898827,0.08956795185804367,8.88914680480957,-0.00739714689552784,-3.766813278198242
1403638521522829500,-0.029328688979148865,0.00244295597076416,0.0993245467543602,8.995485305786133,-0.18727239966392517,-3.725929021835327
1403638521527829500,-0.019566431641578674,0.00036594457924366,0.10699427872896194,9.167158126831055,-0.3426569402217865,-3.7340471744537354
1403638521532829500,-0.008417338132858276,0.012925799936056137,0.1125749871134758,9.183536529541016,-0.4244145154953003,-3.725707769393921
1403638521537829500,0.0034457743167877197,0.018504679203033447,0.11746705323457718,9.183573722839355,-0.3590581715106964,-3.7174644470214844
1403638521542829500,0.010411858558654785,0.03454505652189255,0.12792983651161194,9.150795936584473,-0.30999499559402466,-3.758096218109131
1403638521547829500,0.020182177424430847,0.0387125089764595,0.13352370262145996,9.011957168579102,-0.15466898679733276,-3.7580676078796387
1403638521552829500,0.018099218606948853,0.03801393508911133,0.1356312334537506,9.076952934265137,0.09870253503322601,-3.831777572631836
1403638521557829500,0.010410904884338379,0.03870858997106552,0.12725025415420532,9.003326416015625,0.1315441131591797,-3.905243158340454
1403638521562829500,0.0013380944728851318,0.03731440752744675,0.11608830839395523,8.962355613708496,0.17246416211128235,-3.9216692447662354
1403638521567829500,0.0013398230075836182,0.027537107467651367,0.10911820083856583,8.79916763305664,0.19696968793869019,-3.872781753540039
1403638521572829500,-0.0014405548572540283,0.019183889031410217,0.09447973221540451,8.905116081237793,0.2787363827228546,-3.8974862098693848
1403638521577829500,-0.004922494292259216,0.01080633606761694,0.0784170851111412,8.782742500305176,0.1888677179813385,-3.848479747772217
1403638521582829500,-0.00419481098651886,0.008050104603171349,0.05889422446489334,9.051966667175293,0.17259551584720612,-3.8731112480163574
1403638521587829500,-0.006264612078666687,0.008063333109021187,0.040060855448246,9.133434295654297,0.13992537558078766,-3.8405299186706543
1403638521592829500,-0.004139170050621033,0.011565159074962139,0.019851528108119965,9.15750503540039,0.27061548829078674,-3.7509512901306152
1403638521597829500,-0.007633194327354431,0.010159971192479134,0.010762251913547516,8.99418830871582,0.27059322595596313,-3.677469491958618
1403638521602829500,-0.011791199445724487,0.011572116054594517,0.00030272454023361206,9.181854248046875,0.18892429769039154,-3.6937835216522217
1403638521607829500,-0.019495472311973572,0.01993047632277012,0.0002665594220161438,9.108449935913086,0.03379407152533531,-3.74251127243042
1403638521612829500,-0.021598070859909058,0.029698222875595093,0.0065433308482170105,9.173815727233887,-0.04788054898381233,-3.7913687229156494
1403638521617829500,-0.011878669261932373,0.03386523574590683,0.01696915179491043,9.003100395202637,-0.284782737493515,-3.807387351989746
1403638521622829500,-0.003519505262374878,0.03525417298078537,0.02813207358121872,8.970771789550781,-0.35021743178367615,-3.7991394996643066
1403638521627829500,0.0020439177751541138,0.03313558176159859,0.04068247228860855,8.807836532592773,-0.4075145125389099,-3.78271484375
1403638521632829500,0.005534037947654724,0.02477913536131382,0.05255205184221268,8.905790328979492,-0.3176354765892029,-3.8562521934509277
1403638521637829500,0.010403037071228027,0.0240617785602808,0.06580223888158798,8.77531623840332,-0.3176833987236023,-3.880641222000122
1403638521642829500,0.01598931849002838,0.018498089164495468,0.07976975291967392,8.92219066619873,-0.1950802505016327,-3.954160451889038
1403638521647829500,0.01389610767364502,0.02336091920733452,0.09233585745096207,8.807878494262695,-0.16249912977218628,-3.888803482055664
1403638521652829500,0.01322057843208313,0.010806206613779068,0.09236111491918564,8.83226203918457,0.0008601248264312744,-3.8400509357452393
1403638521657829500,0.0034725815057754517,0.009433453902602196,0.08679040521383286,9.052520751953125,0.025319870561361313,-3.8402390480041504
1403638521662829500,0.00278685986995697,0.013625923544168472,0.08679883927106857,9.150482177734375,0.000733515655156225,-3.7994613647460938
1403638521667829500,-0.0007086992263793945,0.014311686158180237,0.08051557093858719,8.98717212677002,0.008953183889389038,-3.758626699447632
1403638521672829500,4.4405460357666016e-06,0.005953546613454819,0.07912460714578629,9.12613296508789,-0.0564899779856205,-3.7342119216918945
1403638521677829500,-0.0013833194971084595,0.01851966790854931,0.07634326070547104,9.256434440612793,0.008899152278900146,-3.7832179069519043
1403638521682829500,-0.007657721638679504,0.019908295944333076,0.07984060794115067,9.182961463928223,0.0414898507297039,-3.685328245162964
1403638521687829500,-0.011856332421302795,0.02339884452521801,0.07912356406450272,9.223766326904297,-0.0564938448369503,-3.7505061626434326
1403638521692829500,-0.004898592829704285,0.03525027260184288,0.08609149605035782,9.142218589782715,-0.11367674171924591,-3.7339794635772705
1403638521697829500,-0.00561194121837616,0.03593244403600693,0.090964175760746,8.995400428771973,-0.17086336016654968,-3.7093684673309326
1403638521702829500,-0.0007374733686447144,0.03034343011677265,0.09304847568273544,8.913904190063477,-0.19533537328243256,-3.7419583797454834
1403638521707829500,0.004145294427871704,0.02687080018222332,0.09862708300352097,9.05268383026123,-0.17079706490039825,-3.8317744731903076
1403638521712829500,0.006927967071533203,0.02337164245545864,0.11118107289075851,8.979300498962402,-0.16264493763446808,-3.8398642539978027
1403638521717829500,0.012515634298324585,0.025463635101914406,0.11677571386098862,9.011866569519043,-0.05643944814801216,-3.839909553527832
1403638521722829500,0.011123448610305786,0.018478145822882652,0.11748122423887253,8.922053337097168,0.017098521813750267,-3.823662757873535
1403638521727829500,0.006962209939956665,0.017100362107157707,0.10704482346773148,9.093213081359863,0.18047843873500824,-3.8158299922943115
1403638521732829500,0.001383766531944275,0.017095081508159637,0.10147850960493088,8.986967086791992,0.2539803385734558,-3.7506721019744873
1403638521737829500,-0.004878342151641846,0.015020683407783508,0.08892425149679184,9.182665824890137,0.2785547971725464,-3.8161017894744873
1403638521742829500,-0.011153936386108398,0.01502390205860138,0.07636582106351852,9.141717910766602,0.27041390538215637,-3.79166579246521
1403638521747829500,-0.016016080975532532,0.020618699491024017,0.056836046278476715,9.255721092224121,0.23779384791851044,-3.7998571395874023
1403638521752829500,-0.02162112295627594,0.022699736058712006,0.04912511259317398,9.068109512329102,0.09080369770526886,-3.767009973526001
1403638521757829500,-0.023002684116363525,0.01992461271584034,0.03237137943506241,9.182385444641113,-0.031674645841121674,-3.7914586067199707
1403638521762829500,-0.018847480416297913,0.028973974287509918,0.037227563560009,8.99496078491211,-0.17054523527622223,-3.7503888607025146
1403638521767829500,-0.011880874633789062,0.021991636604070663,0.044895462691783905,8.946242332458496,-0.1950816512107849,-3.7666711807250977
1403638521772829500,-0.00560837984085083,0.019198276102542877,0.050474606454372406,8.938360214233398,-0.2931947410106659,-3.750272750854492
1403638521777829500,-2.5957822799682617e-05,0.020605064928531647,0.05815687030553818,9.044495582580566,-0.2687177360057831,-3.7910959720611572
1403638521782829500,0.004852920770645142,0.023382171988487244,0.06653276830911636,8.954790115356445,-0.26060760021209717,-3.7501988410949707
1403638521787829500,0.009036555886268616,0.017810991033911705,0.07211209088563919,9.036466598510742,-0.2360764443874359,-3.8318591117858887
1403638521792829500,0.014611676335334778,0.02896597795188427,0.07630256563425064,8.987346649169922,-0.16249415278434753,-3.8480966091156006
1403638521797829500,0.01949867606163025,0.028965920209884644,0.07771017402410507,8.99532413482666,-0.0235374104231596,-3.8808116912841797
1403638521802829500,0.020903676748275757,0.028960978612303734,0.07703269273042679,8.938007354736328,0.11532456427812576,-3.831986427307129
1403638521807829500,0.016727715730667114,0.01919522136449814,0.07704096287488937,8.938018798828125,0.16430604457855225,-3.807633638381958
1403638521812829500,0.00975722074508667,0.01780461147427559,0.07774873822927475,8.99502182006836,0.22964683175086975,-3.8077661991119385
1403638521817829500,0.0013885647058486938,0.01361784990876913,0.07913864403963089,9.003238677978516,0.18875643610954285,-3.7914540767669678
1403638521822829500,-0.004195600748062134,0.01361839473247528,0.07772555202245712,9.019693374633789,0.05803491547703743,-3.7913432121276855
1403638521827829500,-0.004893779754638672,0.01082981750369072,0.07841333001852036,9.04440689086914,-0.07273129373788834,-3.7667784690856934
1403638521832829500,-0.0007044970989227295,0.01711622253060341,0.08120989054441452,9.150468826293945,-0.05640498548746109,-3.791259527206421
1403638521837829500,-0.002110406756401062,0.01640501618385315,0.08399301022291183,9.011774063110352,-0.08091577142477036,-3.7585349082946777
1403638521842829500,-0.0014034509658813477,0.021297438070178032,0.08609626442193985,9.125988006591797,-0.05646500363945961,-3.750417470932007
1403638521847829500,-0.004210576415061951,0.023379424586892128,0.09305962175130844,9.036219596862793,-0.08912652730941772,-3.7666327953338623
1403638521852829500,-0.004902780055999756,0.02618258260190487,0.08747962862253189,9.158526420593262,-0.07274706661701202,-3.8238139152526855
1403638521857829500,-3.9458274841308594e-05,0.03454359248280525,0.09095504134893417,9.036185264587402,-0.14623919129371643,-3.8236258029937744
1403638521862829500,0.007629916071891785,0.03175261989235878,0.08955612033605576,9.00372314453125,-0.2115926891565323,-3.823568105697632
1403638521867829500,0.013202190399169922,0.02616146393120289,0.08605948835611343,8.889669418334961,-0.3096400499343872,-3.8153371810913086
1403638521872829500,0.016700148582458496,0.028265224769711494,0.08467534929513931,8.979336738586426,-0.21973341703414917,-3.8317205905914307
1403638521877829500,0.02507266402244568,0.0177724938839674,0.09026192873716354,8.767341613769531,-0.24433591961860657,-3.7581868171691895
1403638521882829500,0.02229619026184082,0.00663549080491066,0.09445495158433914,8.979652404785156,-0.22806304693222046,-3.7665164470672607
1403638521887829500,0.02230072021484375,0.009420987218618393,0.09516013413667679,8.9469633102417,-0.20358140766620636,-3.7256925106048584
1403638521892829500,0.024409949779510498,0.008042128756642342,0.09726614505052567,9.126583099365234,-0.1710042804479599,-3.7013280391693115
1403638521897829500,0.026501625776290894,0.012918977066874504,0.10355225950479507,9.093964576721191,-0.1874251514673233,-3.635951519012451
1403638521902829500,0.029999718070030212,0.01990245282649994,0.10356198996305466,9.175493240356445,-0.10572825372219086,-3.644179344177246
1403638521907829500,0.03279535472393036,0.022687364369630814,0.1035739853978157,9.11003303527832,0.025065483525395393,-3.652425765991211
1403638521912829500,0.025829344987869263,0.024090100079774857,0.09521356970071793,9.183136940002441,0.1885647028684616,-3.717959403991699
1403638521917829500,0.01256503164768219,0.028968175873160362,0.0861561968922615,9.035780906677246,0.33569133281707764,-3.7018353939056396
1403638521922829500,0.009096607565879822,0.019215822219848633,0.07080819457769394,9.109224319458008,0.3193832039833069,-3.693767786026001
1403638521927829500,0.0035134106874465942,0.02270812913775444,0.058926768600940704,9.149942398071289,0.20509210228919983,-3.7344322204589844
1403638521932829500,0.0007454901933670044,0.015051580965518951,0.037283264100551605,9.297085762023926,-0.02367073856294155,-3.7098639011383057
1403638521937829500,0.011923477053642273,0.018559280782938004,0.019140534102916718,9.566679954528809,-0.2852332293987274,-3.701566696166992
1403638521942829500,0.03144717216491699,0.04159090667963028,0.008679516613483429,9.705410957336426,-0.44868236780166626,-3.701256275177002
1403638521947829500,0.04955069720745087,0.07646140456199646,0.0023966357111930847,9.452028274536133,-0.36671531200408936,-3.6927430629730225
1403638521952829500,0.06278400123119354,0.100861556828022,0.012166567146778107,9.223264694213867,-0.1950685679912567,-3.6926889419555664
1403638521957829500,0.0655524879693985,0.11127199232578278,0.035180650651454926,8.766510009765625,-0.16253365576267242,-3.5865697860717773
1403638521962829500,0.06556373834609985,0.08332053571939468,0.05612260848283768,8.505875587463379,-0.21181224286556244,-3.4641005992889404
1403638521967829500,0.06834499537944794,0.05401540547609329,0.06239115446805954,8.506265640258789,-0.309860497713089,-3.5293445587158203
1403638521972829500,0.07112991809844971,0.028907809406518936,0.05888628214597702,8.555505752563477,-0.3915257751941681,-3.611006021499634
1403638521977829500,0.07882429659366608,0.00444919615983963,0.049130238592624664,8.343488693237305,-0.465320885181427,-3.44771409034729
1403638521982829500,0.08718492090702057,-0.035976652055978775,0.0344429686665535,8.670432090759277,-0.6941168308258057,-3.586850643157959
1403638521987829500,0.09556607902050018,-0.028925202786922455,0.03304406255483627,9.021407127380371,-0.5549294948577881,-3.7747929096221924
1403638521992829500,0.10815680027008057,-0.022703897207975388,0.06590988487005234,8.580446243286133,-0.22818981111049652,-3.5295653343200684
1403638521997829500,0.10328572988510132,-0.032443568110466,0.08126092702150345,8.767805099487305,0.09085451811552048,-3.791109561920166
1403638522002829500,0.08586081862449646,-0.03592679277062416,0.08618126064538956,8.87354564666748,0.41774627566337585,-3.7997801303863525
1403638522007829500,0.06211423873901367,-0.04568669945001602,0.08057036250829697,9.338558197021484,0.49990856647491455,-4.183544158935547
1403638522012829500,0.03069886565208435,-0.053361549973487854,0.06592591851949692,9.362504959106445,0.6225705742835999,-4.265353202819824
1403638522017829500,0.008482158184051514,-0.057596221566200256,0.052706100046634674,10.031257629394531,0.5734777450561523,-4.485665321350098
1403638522022829500,0.0015140324831008911,-0.04218278080224991,0.034532032907009125,9.876320838928223,0.24615918099880219,-4.208205223083496
1403638522027829500,-0.0019937753677368164,-0.0456480011343956,0.01007794588804245,9.745648384094238,0.10731984674930573,-4.191888332366943
1403638522032829500,-0.009700417518615723,-0.04423929750919342,-0.0067161694169044495,9.410948753356934,0.01747024618089199,-4.020416259765625
1403638522037829500,-0.018778637051582336,-0.0561046302318573,-0.00950593501329422,9.410632133483887,0.1237301304936409,-4.110300540924072
1403638522042829500,-0.02995014190673828,-0.050528064370155334,0.001663707196712494,9.573952674865723,0.03384854272007942,-4.273502349853516
1403638522047829500,-0.034152403473854065,-0.04703144729137421,0.014900244772434235,9.615276336669922,-0.1705789715051651,-4.322494983673096
1403638522052829500,-0.033504635095596313,-0.04493432492017746,0.030204810202121735,9.338353157043457,-0.32586434483528137,-4.240756988525391
1403638522057829500,-0.01954248547554016,-0.06376631557941437,0.04206787794828415,9.4286470413208,-0.40788260102272034,-4.2328267097473145
1403638522062829500,-0.004879996180534363,-0.08399747312068939,0.0406767800450325,9.477828979492188,-0.3589618504047394,-4.257448673248291
1403638522067829500,0.004926204681396484,-0.1084238588809967,0.034417785704135895,9.616582870483398,-0.18746690452098846,-4.2413330078125
1403638522072829500,0.007743313908576965,-0.11401385068893433,0.028158746659755707,9.771477699279785,-0.06488057225942612,-4.306728839874268
1403638522077829500,0.011952221393585205,-0.11960151791572571,0.026078544557094574,10.000062942504883,-0.08956710994243622,-4.396678447723389
1403638522082829500,0.015453457832336426,-0.10843242704868317,0.023303590714931488,10.244891166687012,-0.2532528042793274,-4.486547470092773
1403638522087829500,0.026608482003211975,-0.10423816740512848,0.02538587898015976,10.130853652954102,-0.2531545162200928,-4.331341743469238
1403638522092829500,0.03146350383758545,-0.09864211082458496,0.02885354310274124,10.000495910644531,-0.3839101493358612,-4.266017913818359
1403638522097829500,0.043997034430503845,-0.09724097698926926,0.040004663169384,9.894713401794434,-0.46562689542770386,-4.208845138549805
1403638522102829500,0.050963521003723145,-0.09096784144639969,0.05675867944955826,9.862277030944824,-0.47382986545562744,-4.110775470733643
1403638522107829500,0.06419999897480011,-0.08748146146535873,0.08537080138921738,9.854283332824707,-0.49839985370635986,-4.118844509124756
1403638522112829500,0.06699851155281067,-0.08470389991998672,0.10979888588190079,9.93582820892334,-0.35126206278800964,-4.183987617492676
1403638522117829500,0.07259143888950348,-0.0700773224234581,0.13213306665420532,10.02544116973877,-0.19592490792274475,-4.200021266937256
1403638522122829500,0.0739864706993103,-0.05124709755182266,0.13911932706832886,10.1232271194458,-0.20419859886169434,-4.175340175628662
1403638522127829500,0.07746802270412445,-0.036609478294849396,0.14469581842422485,10.204453468322754,-0.19587606191635132,-4.330265522003174
1403638522132829500,0.08304734528064728,-0.017770688980817795,0.14400741457939148,10.122843742370605,-0.17951367795467377,-4.215782165527344
1403638522137829500,0.0900188684463501,-0.005928393453359604,0.14400389790534973,9.967574119567871,-0.04838560149073601,-4.248241424560547
1403638522142829500,0.09004414081573486,0.007292276248335838,0.13774648308753967,10.220144271850586,0.04964723810553551,-4.329730033874512
1403638522147829500,0.09072627127170563,0.02406555414199829,0.12938207387924194,10.008035659790039,0.0006328269955702126,-4.182759761810303
1403638522152829500,0.09840379655361176,0.03869256377220154,0.12799891829490662,10.040326118469238,0.11522628366947174,-4.239748477935791
1403638522157829500,0.1032738983631134,0.044989265501499176,0.12799480557441711,10.04041576385498,-0.01556920912116766,-4.247845649719238
1403638522162829500,0.10050483047962189,0.06378230452537537,0.12104248255491257,10.162148475646973,0.17250359058380127,-4.304778099060059
1403638522167829500,0.09980002045631409,0.07982498407363892,0.12732675671577454,10.072123527526855,0.26243314146995544,-4.263924598693848
1403638522172829500,0.0928402990102768,0.09723962098360062,0.12454662472009659,10.251168251037598,0.25417354702949524,-4.320803165435791
1403638522177829500,0.08304132521152496,0.1091434583067894,0.12453221529722214,10.022741317749023,0.16429662704467773,-4.23106575012207
1403638522182829500,0.0830581933259964,0.11890266090631485,0.12175232917070389,10.17765998840332,0.10695170611143112,-4.255415916442871
1403638522187829500,0.08095027506351471,0.13078588247299194,0.12523522973060608,10.079761505126953,0.057858362793922424,-4.198270320892334
1403638522192829500,0.07887952029705048,0.1349288821220398,0.11897090822458267,10.250590324401855,0.1478850245475769,-4.320512294769287
1403638522197829500,0.07819297909736633,0.1502903401851654,0.11758793145418167,10.291366577148438,0.11498496681451797,-4.263340473175049
1403638522202829500,0.08027935028076172,0.15519441664218903,0.11549457162618637,10.291546821594238,0.008684997446835041,-4.2470011711120605
1403638522207829500,0.08306172490119934,0.16360031068325043,0.10085050016641617,10.275388717651367,-0.15473324060440063,-4.230659484863281
1403638522212829500,0.09212726354598999,0.1699201762676239,0.09807129949331284,10.267802238464355,-0.26136237382888794,-4.0674662590026855
1403638522217829500,0.100478395819664,0.18040475249290466,0.0980643704533577,10.096456527709961,-0.2694598138332367,-4.018495559692383
1403638522222829500,0.11236615478992462,0.18039171397686005,0.10296890884637833,10.308775901794434,-0.22891367971897125,-4.034766674041748
1403638522227829500,0.11726631224155426,0.1936565786600113,0.10368131846189499,10.365975379943848,-0.1883760243654251,-3.9530768394470215
1403638522232829500,0.11937132477760315,0.1971299797296524,0.10856778174638748,10.406588554382324,-0.11481980234384537,-4.002016544342041
1403638522237829500,0.1179780662059784,0.20829753577709198,0.1036914512515068,10.488137245178223,-0.19660380482673645,-4.026345729827881
1403638522242829500,0.1207592636346817,0.21669064462184906,0.10229518264532089,10.4310941696167,-0.23753778636455536,-3.969182014465332
1403638522247829500,0.13192695379257202,0.22366772592067719,0.10299687832593918,10.39834213256836,-0.1803075075149536,-3.9855196475982666
1403638522252829500,0.13612009584903717,0.23133991658687592,0.11346066743135452,10.34913444519043,-0.06588476151227951,-4.001885414123535
1403638522257829500,0.13124459981918335,0.23480987548828125,0.11624971777200699,10.389593124389648,-0.01673862896859646,-4.075270175933838
1403638522262829500,0.12982872128486633,0.24041612446308136,0.1239144429564476,10.242706298828125,-0.04117661342024803,-4.042689323425293
1403638522267829500,0.1340186446905136,0.24321037530899048,0.12740659713745117,10.27542495727539,-0.04130095988512039,-4.0263471603393555
1403638522272829500,0.13331572711467743,0.2453044354915619,0.13158854842185974,10.234492301940918,-0.033035147935152054,-4.0508341789245605
1403638522277829500,0.13472726941108704,0.24459736049175262,0.1308988630771637,10.299732208251953,0.04041046276688576,-4.042692184448242
1403638522282829500,0.14170756936073303,0.24320784211158752,0.13648590445518494,10.20987606048584,0.17125406861305237,-4.026585102081299
1403638522287829500,0.13684731721878052,0.24317800998687744,0.12742272019386292,10.372859001159668,0.21207056939601898,-4.075395584106445
1403638522292829500,0.13405287265777588,0.24317742884159088,0.1253286600112915,10.340099334716797,0.22036142647266388,-4.091733455657959
1403638522297829500,0.13057544827461243,0.24246864020824432,0.12045011669397354,10.372557640075684,0.28578802943229675,-4.108057498931885
1403638522302829500,0.12775614857673645,0.23899193108081818,0.11346005648374557,10.27477741241455,0.11441756039857864,-4.13249397277832
1403638522307829500,0.12914924323558807,0.23898887634277344,0.10648282617330551,10.274711608886719,0.08185993880033493,-4.165095806121826
1403638522312829500,0.12980811297893524,0.2397235780954361,0.11065319925546646,9.989250183105469,0.04126861318945885,-4.124484539031982
1403638522317829500,0.13119708001613617,0.2257581502199173,0.10785601288080215,10.038482666015625,-0.048591721802949905,-4.140769004821777
1403638522322829500,0.13187965750694275,0.21389777958393097,0.10645280033349991,9.940705299377441,-0.05659285560250282,-4.140860557556152
1403638522327829500,0.13118818402290344,0.19924107193946838,0.10296957939863205,9.932737350463867,0.0005544081213884056,-4.092041492462158
1403638522332829500,0.1276794821023941,0.18947653472423553,0.10225705057382584,9.826844215393066,-0.07284081727266312,-4.092064380645752
1403638522337829500,0.12001071870326996,0.17691317200660706,0.09179062396287918,9.916769027709961,-0.1383029669523239,-4.075742721557617
1403638522342829500,0.11930248141288757,0.17204326391220093,0.08969510346651077,9.794692039489746,-0.1874190866947174,-3.9697396755218506
1403638522347829500,0.12000423669815063,0.15809358656406403,0.09318471699953079,9.844093322753906,-0.23669707775115967,-3.888185739517212
1403638522352829500,0.12138223648071289,0.14344735443592072,0.1022416427731514,9.787381172180176,-0.342974990606308,-3.855558156967163
