#timestamp [ns],w_RS_S_x [rad s^-1],w_RS_S_y [rad s^-1],w_RS_S_z [rad s^-1],a_RS_S_x [m s^-2],a_RS_S_y [m s^-2],a_RS_S_z [m s^-2]
1403638518097829500,0.0006981317007977319,0.01884955592153876,0.07819075048934597,9.087495666666666,-0.057205458333333334,-3.8245934999999998
1403638518102829500,-0.0041887902047863905,0.02234021442552742,0.07609635538695278,9.013945791666666,-0.057205458333333334,-3.800076875
1403638518107829500,-0.0020943951023931952,0.020943951023931952,0.07819075048934597,9.013945791666666,-0.032688833333333334,-3.800076875
1403638518112829500,-0.0041887902047863905,0.020943951023931952,0.07888888219014369,8.932223708333334,-0.024516625,-3.800076875
1403638518117829500,-0.0013962634015954637,0.0153588974175501,0.07888888219014369,8.989429166666666,-0.08989429166666667,-3.759215833333333
1403638518122829500,0.0006981317007977319,0.021642082724729686,0.08098327729253688,9.022118,-0.057205458333333334,-3.7837324583333327
1403638518127829500,-0.0020943951023931952,0.019547687622336492,0.08377580409572781,9.046634625,-0.016344416666666667,-3.8164212916666664
1403638518132829500,0.0,0.024434609527920613,0.08447393579652555,9.022118,-0.06537766666666667,-3.800076875
1403638518137829500,0.0,0.01815142422074103,0.08168140899333462,9.046634625,-0.04086104166666667,-3.7919046666666665
1403638518142829500,0.0006981317007977319,0.025132741228718346,0.07958701389094143,9.054806833333332,0.016344416666666667,-3.8245934999999998
1403638518147829500,0.0006981317007977319,0.02024581932313422,0.08237954069413235,9.005773583333333,0.0,-3.77556025
1403638518152829500,-0.0020943951023931952,0.021642082724729686,0.07819075048934597,9.038462416666666,-0.04086104166666667,-3.7837324583333327
1403638518157829500,-0.0027925268031909274,0.017453292519943295,0.07888888219014369,8.989429166666666,-0.024516625,-3.800076875
1403638518162829500,-0.0041887902047863905,0.019547687622336492,0.0767944870877505,9.062979041666667,-0.016344416666666667,-3.8245934999999998
1403638518167829500,-0.0041887902047863905,0.0153588974175501,0.07400196028455958,8.989429166666666,0.008172208333333333,-3.7919046666666665
1403638518172829500,-0.0013962634015954637,0.019547687622336492,0.07120943348136866,9.022118,-0.024516625,-3.77556025
1403638518177829500,-0.003490658503988659,0.023038346126325153,0.07330382858376185,9.005773583333333,-0.04086104166666667,-3.7837324583333327
1403638518182829500,-0.004886921905584123,0.023736477827122883,0.07260569688296412,9.005773583333333,-0.016344416666666667,-3.77556025
1403638518187829500,-0.003490658503988659,0.01815142422074103,0.07260569688296412,8.940395916666665,-0.07354987499999999,-3.751043625
1403638518192829500,-0.0006981317007977319,0.016057029118347832,0.0747000919853573,9.054806833333332,0.032688833333333334,-3.8082490833333327
1403638518197829500,-0.0013962634015954637,0.017453292519943295,0.07819075048934597,8.981256958333333,-0.04903325,-3.8082490833333327
1403638518202829500,-0.0020943951023931952,0.01884955592153876,0.07539822368615504,9.1201845,-0.04086104166666667,-3.8164212916666664
1403638518207829500,0.0027925268031909274,0.02024581932313422,0.07958701389094143,8.97308475,-0.10623870833333333,-3.751043625
1403638518212829500,-0.0006981317007977319,0.024434609527920613,0.0747000919853573,9.095667875,-0.04903325,-3.7919046666666665
1403638518217829500,-0.003490658503988659,0.02583087292951608,0.07819075048934597,8.9240515,-0.057205458333333334,-3.742871416666666
1403638518222829500,0.0,0.02024581932313422,0.0767944870877505,9.005773583333333,-0.04086104166666667,-3.8082490833333327
1403638518227829500,0.0020943951023931952,0.017453292519943295,0.08168140899333462,8.964912541666667,-0.04086104166666667,-3.7919046666666665
1403638518232829500,-0.0020943951023931952,0.021642082724729686,0.07958701389094143,9.128356708333332,-0.008172208333333333,-3.857282333333333
1403638518237829500,-0.003490658503988659,0.021642082724729686,0.08168140899333462,9.038462416666666,-0.04903325,-3.8409379166666664
1403638518242829500,-0.005207491107285023,0.02685481309890747,0.0816120058298111,9.051347732543945,-0.0008920691907405853,-3.8071768283843994
1403638518247829500,-0.0072272541001439095,0.023287370800971985,0.08301616460084915,8.847618103027344,-0.0014849565923213959,-3.7660365104675293
1403638518252829500,-0.006692838855087757,0.017741292715072632,0.07744769752025604,8.985801696777344,0.022410158067941666,-3.831831693649292
1403638518257829500,-0.006614488549530506,0.019874289631843567,0.07533610612154007,8.961565971374512,-0.049342360347509384,-3.7419400215148926
1403638518262829500,-0.008602243848145008,0.014344662427902222,0.07392033189535141,9.051349639892578,0.022805320098996162,-3.7753326892852783
1403638518267829500,-0.005451572127640247,0.017654746770858765,0.08008524775505066,8.969881057739258,0.006684330757707357,-3.7501800060272217
1403638518272829500,-0.0036583365872502327,0.021844208240509033,0.07473292946815491,9.067352294921875,0.03884686529636383,-3.8157448768615723
1403638518277829500,-0.007991832681000233,0.023360326886177063,0.07801046222448349,8.96159553527832,0.006699226330965757,-3.774595022201538
1403638518282829500,-0.008038205094635487,0.021969571709632874,0.07180488854646683,9.026946067810059,-0.017300155013799667,-3.7751548290252686
1403638518287829500,-0.003914636559784412,0.021911337971687317,0.07391431927680969,8.880522727966309,-0.0584760420024395,-3.725862503051758
1403638518292829500,-0.005782497115433216,0.014273732900619507,0.07333219051361084,8.99445915222168,-0.03360339254140854,-3.7666563987731934
1403638518297829500,-0.005928856320679188,0.02052389085292816,0.0732811987400055,9.043193817138672,-0.04992794618010521,-3.7829365730285645
1403638518302829500,-0.007356983609497547,0.02329970896244049,0.07732495665550232,9.051316261291504,-0.04222011938691139,-3.7996535301208496
1403638518307829500,-0.003742826171219349,0.023250535130500793,0.07728207856416702,8.969818115234375,-0.06612078100442886,-3.7748148441314697
1403638518312829500,-0.0024033011868596077,0.021204248070716858,0.07533600926399231,9.03485107421875,-0.04977256804704666,-3.7747654914855957
1403638518317829500,-0.0031962813809514046,0.022645801305770874,0.08022502809762955,8.913386344909668,-0.07431226968765259,-3.7660934925079346
1403638518322829500,-0.0030243517830967903,0.024021193385124207,0.07953530550003052,9.06728744506836,-0.026274075731635094,-3.807356119155884
1403638518327829500,-0.005938899703323841,0.0254126638174057,0.07880153506994247,8.93734359741211,-0.08248359709978104,-3.7418179512023926
1403638518332829500,-0.0031803371384739876,0.01625359058380127,0.08155236393213272,9.034613609313965,-0.03368721157312393,-3.8073573112487793
1403638518337829500,-0.005637687630951405,0.0203675776720047,0.08429015427827835,9.026312828063965,-0.06653901934623718,-3.823219060897827
1403638518342829500,-0.005992633290588856,0.020596995949745178,0.08096245676279068,9.002839088439941,-0.01787230558693409,-3.7747130393981934
1403638518347829500,-0.004574728198349476,0.02339009940624237,0.08082842826843262,9.018872261047363,-0.017785856500267982,-3.7507121562957764
1403638518352829500,-0.003681761212646961,0.021221935749053955,0.07814905047416687,9.018619537353516,-0.0015573882265016437,-3.7420735359191895
1403638518357829500,-0.007395309396088123,0.02260749042034149,0.07954196631908417,8.986316680908203,0.013913760893046856,-3.7746877670288086
1403638518362829500,-0.006457489915192127,0.01907801628112793,0.07735703885555267,9.018299102783203,-0.041879281401634216,-3.7827422618865967
1403638518367829500,-0.006030392833054066,0.02124464511871338,0.07397732138633728,9.010438919067383,-0.017754605039954185,-3.790999412536621
1403638518372829500,-0.007199150510132313,0.017667368054389954,0.07669990509748459,9.018623352050781,-0.04271896183490753,-3.7748782634735107
1403638518377829500,-0.005217147059738636,0.02113834023475647,0.08071322739124298,8.977991104125977,0.022605840116739273,-3.7749533653259277
1403638518382829500,-0.0039002718403935432,0.021335497498512268,0.08167213946580887,8.978266716003418,-0.04182583466172218,-3.7663259506225586
1403638518387829500,-0.005084794946014881,0.022751376032829285,0.07542296499013901,8.986454010009766,-0.01795145496726036,-3.7749907970428467
1403638518392829500,-0.006773424334824085,0.019049376249313354,0.08004370331764221,8.944758415222168,-0.009469660930335522,-3.790822744369507
1403638518397829500,-0.007864636369049549,0.019783928990364075,0.07534163445234299,9.018550872802734,-0.001233198563568294,-3.775179147720337
1403638518402829500,-0.005258363671600819,0.021875351667404175,0.0788426324725151,8.953510284423828,-0.042089566588401794,-3.7986981868743896
1403638518407829500,-0.003763657994568348,0.021960750222206116,0.07671862840652466,9.059151649475098,-0.017445893958210945,-3.807359218597412
1403638518412829500,-0.002556425519287586,0.019800275564193726,0.07947824895381927,8.945653915405273,-0.03351664915680885,-3.7581787109375
1403638518417829500,-0.005086821503937244,0.016998261213302612,0.07317561656236649,9.035393714904785,-0.03376256674528122,-3.767512083053589
1403638518422829500,-0.004618925042450428,0.019175678491592407,0.07802565395832062,8.945425987243652,-0.08178556710481644,-3.7258803844451904
1403638518427829500,-0.0058786096051335335,0.018571272492408752,0.07272248715162277,9.067999839782715,-0.0017075084615498781,-3.74287748336792
1403638518432829500,-0.0023965956643223763,0.017024129629135132,0.07670605182647705,8.977564811706543,-0.049754463136196136,-3.7503933906555176
1403638518437829500,-0.003170621581375599,0.01975129544734955,0.07661744952201843,9.010790824890137,-0.041760120540857315,-3.7991738319396973
1403638518442829500,-0.006584149785339832,0.021155893802642822,0.07877740263938904,8.953676223754883,-0.0500529482960701,-3.774815797805786
1403638518447829500,-0.0045036496594548225,0.02611510455608368,0.0767056867480278,9.067371368408203,0.030620334669947624,-3.7673354148864746
1403638518452829500,-0.003070157952606678,0.021899759769439697,0.08076991885900497,8.937417030334473,-0.06611961126327515,-3.765890121459961
1403638518457829500,-0.003775280900299549,0.019065052270889282,0.07755107432603836,9.059338569641113,-0.050069890916347504,-3.791257619857788
1403638518462829500,-0.005263608880341053,0.02051316201686859,0.07879709452390671,8.937296867370605,-0.07459790259599686,-3.742067575454712
1403638518467829500,-0.0051773907616734505,0.016481325030326843,0.07667572051286697,9.043183326721191,-0.01779228076338768,-3.791318416595459
1403638518472829500,-0.005902153439819813,0.022591620683670044,0.07948873937129974,8.994051933288574,-0.05854175612330437,-3.7663302421569824
1403638518477829500,0.0018572388216853142,0.019097477197647095,0.08019791543483734,9.083775520324707,0.03094569221138954,-3.8239188194274902
1403638518482829500,-0.004566592164337635,0.02676422894001007,0.07941786199808121,8.961567878723145,-0.034134067595005035,-3.774564504623413
1403638518487829500,-0.003116232343018055,0.021970048546791077,0.07818631082773209,8.994297981262207,-0.0017589115304872394,-3.7343924045562744
1403638518492829500,-0.003183824010193348,0.020515114068984985,0.07948180288076401,8.880370140075684,-0.041565313935279846,-3.7416834831237793
1403638518497829500,-0.00446746964007616,0.0190475732088089,0.07328453660011292,9.03482723236084,-0.017769500613212585,-3.7910897731781006
1403638518502829500,-0.007188183255493641,0.02121962606906891,0.07743363082408905,8.969836235046387,-0.03442145884037018,-3.7829701900482178
1403638518507829500,-0.003864389844238758,0.018534094095230103,0.07810191810131073,9.100146293640137,-0.02570280060172081,-3.8238847255706787
1403638518512829500,-0.005203914828598499,0.023288056254386902,0.07941331714391708,9.018898963928223,-0.057955000549554825,-3.7828123569488525
1403638518517829500,-0.004412305541336536,0.02121274173259735,0.07741236686706543,8.978170394897461,-0.009488645009696484,-3.782987594604492
1403638518522829500,-0.002525520510971546,0.024053320288658142,0.07253695279359818,8.953475952148438,-0.034069523215293884,-3.742000102996826
1403638518527829500,-0.0045254649594426155,0.01848183572292328,0.07396746426820755,8.994111061096191,-0.001217719167470932,-3.7750895023345947
1403638518532829500,-0.008581561036407948,0.01772010326385498,0.07532782852649689,8.970087051391602,-0.02565344236791134,-3.7424545288085938
1403638518537829500,-0.005528760142624378,0.01831996440887451,0.07739319652318954,9.059328079223633,-0.010167690925300121,-3.7588930130004883
1403638518542829500,-0.006217462010681629,0.024010345339775085,0.08151361346244812,9.035012245178223,-0.03395328298211098,-3.7828457355499268
1403638518547829500,-0.006088745780289173,0.021958336234092712,0.07868819683790207,9.018731117248535,-0.057432208210229874,-3.7749276161193848
1403638518552829500,-0.002421152777969837,0.023992925882339478,0.0780639499425888,8.961626052856445,-0.05841967090964317,-3.7828927040100098
1403638518557829500,-0.0017852606251835823,0.01566620171070099,0.0775633305311203,8.953598022460938,-0.066409632563591,-3.742180824279785
1403638518562829500,-0.005787116475403309,0.019861340522766113,0.07470495253801346,9.018893241882324,-0.009151020087301731,-3.7914211750030518
1403638518567829500,-0.0060096802189946175,0.02189372479915619,0.08223234117031097,9.010293006896973,-0.001382734626531601,-3.7824063301086426
1403638518572829500,-0.0023573758080601692,0.02052547037601471,0.0759747102856636,9.06757640838623,0.022225866094231606,-3.807339668273926
1403638518577829500,-0.004435610957443714,0.02039448916912079,0.08350575715303421,8.969465255737305,-0.009011413902044296,-3.782726764678955
1403638518582829500,-0.0053480686619877815,0.02404095232486725,0.07745005190372467,8.928972244262695,0.015026227571070194,-3.790911912918091
1403638518587829500,-0.005885404534637928,0.020581454038619995,0.07950041443109512,8.904702186584473,-0.04207583889365196,-3.7498958110809326
1403638518592829500,-0.006489497609436512,0.02263808250427246,0.07681982219219208,8.97818374633789,-0.01738923415541649,-3.750663995742798
1403638518597829500,0.00012000184506177902,0.019116535782814026,0.08023890107870102,8.945317268371582,-0.05782152712345123,-3.758087635040283
1403638518602829500,-0.004305136390030384,0.025349542498588562,0.07808231562376022,9.075535774230957,0.00665804510936141,-3.7996907234191895
1403638518607829500,-0.003961396403610706,0.024020478129386902,0.0787530168890953,8.977561950683594,-0.025252440944314003,-3.798877000808716
1403638518612829500,-0.0057863714173436165,0.02126389741897583,0.07250576466321945,9.059535026550293,0.006570718716830015,-3.7833452224731445
1403638518617829500,-0.005980384536087513,0.021827131509780884,0.0760071873664856,8.912951469421387,-0.01747743785381317,-3.7502996921539307
1403638518622829500,-0.0064681293442845345,0.017835676670074463,0.07471077889204025,9.043429374694824,-0.025924475863575935,-3.783416986465454
1403638518627829500,-0.007986796088516712,0.019898921251296997,0.07944296300411224,8.95378589630127,-0.04228466376662254,-3.733832597732544
1403638518632829500,-0.00611038226634264,0.01981160044670105,0.07746563851833344,9.051308631896973,-0.0420653261244297,-3.7911794185638428
1403638518637829500,-0.0035901786759495735,0.02322527766227722,0.07519279420375824,8.936969757080078,-0.07404415309429169,-3.7824926376342773
1403638518642829500,-0.00601689238101244,0.02462857961654663,0.07667557150125504,9.051193237304688,-0.04199318587779999,-3.799332857131958
1403638518647829500,-0.000362408347427845,0.02542373538017273,0.08302336931228638,8.937071800231934,-0.06594729423522949,-3.7986037731170654
1403638518652829500,-0.003599119372665882,0.019868269562721252,0.07822347432374954,9.051544189453125,0.006580940913408995,-3.783374309539795
1403638518657829500,-0.0034728767350316048,0.018337637186050415,0.08015477657318115,8.961869239807129,-0.05008858069777489,-3.7745206356048584
1403638518662829500,-0.0027037085965275764,0.01985861361026764,0.08078416436910629,9.08370590209961,-0.02604685164988041,-3.7911694049835205
1403638518667829500,-0.004057151265442371,0.01987297832965851,0.08154916018247604,8.97768783569336,-0.050302956253290176,-3.7500386238098145
1403638518672829500,-0.005083722062408924,0.020483165979385376,0.08095181733369827,9.075296401977539,-0.00994192622601986,-3.7912704944610596
1403638518677829500,-0.005886686034500599,0.022585958242416382,0.07673510164022446,8.97814655303955,-0.009902497753500938,-3.782618284225464
1403638518682829500,-0.00392721313983202,0.01981736719608307,0.08225048333406448,9.035089492797852,-0.0013751409715041518,-3.774726629257202
1403638518687829500,-0.004975837655365467,0.02541351318359375,0.07940807938575745,9.002503395080566,0.006466744001954794,-3.7667503356933594
1403638518692829500,-0.006062340922653675,0.01981787383556366,0.07672632485628128,9.035253524780273,-0.0014122329885140061,-3.7424604892730713
1403638518697829500,-0.005913984961807728,0.01974751055240631,0.07609952241182327,8.977808952331543,-0.05010610446333885,-3.774648666381836
1403638518702829500,-0.00707013625651598,0.02049456536769867,0.07800357043743134,9.042678833007812,-0.0016155086923390627,-3.8071582317352295
1403638518707829500,-0.0075581492856144905,0.021277815103530884,0.07668429613113403,8.970022201538086,-0.050338003784418106,-3.7828526496887207
1403638518712829500,-0.006337505765259266,0.01779310405254364,0.07610015571117401,9.026975631713867,-0.0503309927880764,-3.799276828765869
1403638518717829500,-0.006759000010788441,0.0233154296875,0.07321254909038544,9.00290584564209,-0.04203582555055618,-3.766815662384033
1403638518722829500,-0.005878073163330555,0.019834041595458984,0.07455417513847351,9.010634422302246,-0.017849817872047424,-3.766829013824463
1403638518727829500,-0.0073095085099339485,0.017775654792785645,0.07733043283224106,8.994091033935547,0.014637492597103119,-3.774935483932495
1403638518732829500,-0.004592698998749256,0.019042998552322388,0.07884553074836731,8.969700813293457,-0.07404503226280212,-3.7664568424224854
1403638518737829500,-0.005084884352982044,0.023215055465698242,0.0753764733672142,9.042961120605469,-0.017904724925756454,-3.76668381690979
1403638518742829500,-0.006719780154526234,0.019156277179718018,0.07929380238056183,9.051183700561523,-0.04209686815738678,-3.7505931854248047
1403638518747829500,-0.004430961795151234,0.02681441605091095,0.08156881481409073,8.99453353881836,-0.05810658261179924,-3.7585530281066895
1403638518752829500,-0.003790927119553089,0.021185681223869324,0.08307808637619019,8.985998153686523,-0.06614560633897781,-3.7745201587677
1403638518757829500,-0.005234968848526478,0.021232694387435913,0.0808863490819931,9.02683162689209,-0.017649462446570396,-3.799471616744995
1403638518762829500,-0.0058571817353367805,0.018408969044685364,0.08154293894767761,8.953439712524414,-0.06604046374559402,-3.7663121223449707
1403638518767829500,-0.006620061583817005,0.024662569165229797,0.0787733718752861,9.083634376525879,0.006442795041948557,-3.7993924617767334
1403638518772829500,-0.006579947657883167,0.023301497101783752,0.08017454296350479,8.945425987243652,-0.025731423869729042,-3.7823734283447266
1403638518777829500,-0.006565582938492298,0.019130542874336243,0.0789133682847023,9.035091400146484,-0.04211059585213661,-3.7828152179718018
1403638518782829500,-0.0018708230927586555,0.022540941834449768,0.08021581918001175,8.953195571899414,-0.05865390598773956,-3.774585247039795
1403638518787829500,-0.004320901818573475,0.021294593811035156,0.07800135761499405,9.059470176696777,0.00659437570720911,-3.8076205253601074
1403638518792829500,-0.0033132554963231087,0.021253764629364014,0.07946770638227463,8.928821563720703,-0.009299388155341148,-3.7743654251098633
1403638518797829500,-0.006436568684875965,0.018455222249031067,0.07335532456636429,9.051217079162598,0.030405376106500626,-3.8159711360931396
1403638518802829500,-0.007956636138260365,0.021188318729400635,0.07664697617292404,8.945443153381348,-0.0007562600076198578,-3.7825005054473877
1403638518807829500,-0.004563820548355579,0.02121664583683014,0.0746501088142395,9.035041809082031,-0.017379596829414368,-3.7913286685943604
1403638518812829500,-0.005151343531906605,0.019844502210617065,0.07878507673740387,8.969627380371094,-0.06642160564661026,-3.7582318782806396
1403638518817829500,-0.006659817881882191,0.018456295132637024,0.07874394208192825,9.043342590332031,-0.03399621695280075,-3.774857521057129
1403638518822829500,-0.007922750897705555,0.01697419583797455,0.07667384296655655,8.896638870239258,-0.033964965492486954,-3.766566514968872
1403638518827829500,-0.004585367627441883,0.01779019832611084,0.07465638965368271,9.043363571166992,-0.033610984683036804,-3.7750954627990723
1403638518832829500,-0.004453134723007679,0.02266022562980652,0.07945563644170761,8.921122550964355,-0.05014524236321449,-3.7904551029205322
1403638518837829500,-0.00583235640078783,0.019061028957366943,0.07681721448898315,9.03462028503418,-0.02566687762737274,-3.7992937564849854
1403638518842829500,-0.005426567979156971,0.02390769124031067,0.0746513158082962,8.978090286254883,-0.05749412626028061,-3.7746052742004395
1403638518847829500,-0.0035448195412755013,0.01988142728805542,0.07797663658857346,9.051478385925293,-0.04268362373113632,-3.775029420852661
1403638518852829500,-0.0033181430771946907,0.015023529529571533,0.07946200668811798,8.969663619995117,-0.050409264862537384,-3.799025774002075
1403638518857829500,-0.0009235860779881477,0.014204010367393494,0.07611890882253647,9.076021194458008,-0.04125835746526718,-3.783158540725708
1403638518862829500,-0.00451390165835619,0.019827306270599365,0.07390846312046051,8.945662498474121,-0.03432011231780052,-3.7504842281341553
1403638518867829500,-0.006688577122986317,0.019201040267944336,0.0760490819811821,9.018502235412598,-0.033870045095682144,-3.7830605506896973
1403638518872829500,-0.0050480784848332405,0.023298129439353943,0.0787557065486908,8.9943265914917,-0.025151094421744347,-3.7988500595092773
1403638518877829500,-0.005913657136261463,0.020418986678123474,0.08220364898443222,9.010477066040039,-0.07481081783771515,-3.7665653228759766
1403638518882829500,-0.007196587510406971,0.023937895894050598,0.079558826982975,8.9941987991333,-0.050597064197063446,-3.7828402519226074
1403638518887829500,-0.003933143801987171,0.020541980862617493,0.07876124233007431,9.018899917602539,-0.04993787780404091,-3.774425506591797
1403638518892829500,-0.005802196450531483,0.023307040333747864,0.07797982543706894,9.034984588623047,-0.04279110208153725,-3.791020631790161
1403638518897829500,-0.003114474005997181,0.01907309889793396,0.0789608508348465,8.98598575592041,-0.0667928159236908,-3.7664380073547363
1403638518902829500,-0.003144186921417713,0.019179537892341614,0.0775575265288353,8.98636245727539,-0.00953040923923254,-3.774829387664795
1403638518907829500,-0.0018128277733922005,0.019889697432518005,0.07524340599775314,9.002241134643555,-0.03406105190515518,-3.7748632431030273
1403638518912829500,-0.006463152356445789,0.026151984930038452,0.07383660227060318,9.043179512023926,-0.04244500771164894,-3.791250705718994
1403638518917829500,-0.0060118259862065315,0.02332441508769989,0.07599087804555893,8.945555686950684,-0.03402191773056984,-3.774526596069336
1403638518922829500,-0.0064432742074131966,0.025337547063827515,0.07329259812831879,9.043156623840332,-0.017864421010017395,-3.783214807510376
1403638518927829500,-0.005143922753632069,0.019108325242996216,0.07813910394906998,8.99416732788086,-0.026073137298226357,-3.7989416122436523
1403638518932829500,-0.00599594134837389,0.020496860146522522,0.07807055860757828,9.027106285095215,-0.00967498030513525,-3.7993087768554688
1403638518937829500,-0.009317618794739246,0.018391340970993042,0.08007977902889252,8.912673950195312,-0.05764307826757431,-3.7501027584075928
1403638518942829500,-0.003810298629105091,0.022009044885635376,0.07537311315536499,9.092118263244629,-0.058438364416360855,-3.807732343673706
1403638518947829500,-0.0017655612900853157,0.022637009620666504,0.0801958367228508,8.961721420288086,-0.09064880013465881,-3.782482147216797
1403638518952829500,-0.003730577416718006,0.021263912320137024,0.0788457840681076,9.034860610961914,-0.009696593508124352,-3.7831945419311523
1403638518957829500,-0.0074180783703923225,0.02259153127670288,0.07739340513944626,8.961797714233398,-0.0017337941098958254,-3.7422335147857666
1403638518962829500,-0.005132150836288929,0.017708972096443176,0.0759885236620903,9.01899528503418,0.014766875654459,-3.783201217651367
1403638518967829500,-0.004596126265823841,0.019734293222427368,0.08015646040439606,8.985671997070312,-0.07418930530548096,-3.7663121223449707
1403638518972829500,-0.00706173200160265,0.021211668848991394,0.07810772955417633,9.075882911682129,-0.025753911584615707,-3.8074519634246826
1403638518977829500,-0.008206677623093128,0.019848763942718506,0.07601221650838852,8.961939811706543,-0.050204530358314514,-3.799274444580078
1403638518982829500,-0.006434452719986439,0.019847780466079712,0.07742349803447723,9.0835542678833,0.0144675113260746,-3.815781831741333
1403638518987829500,-0.0031853141263127327,0.021925896406173706,0.07807258516550064,8.969840049743652,0.0069352127611637115,-3.7743828296661377
1403638518992829500,-0.005192798562347889,0.022676557302474976,0.07602623850107193,9.010607719421387,-0.033281244337558746,-3.783123254776001
1403638518997829500,-0.0037478627637028694,0.023981347680091858,0.078116774559021,8.929126739501953,-0.06624052673578262,-3.7582736015319824
1403638519002829500,-0.005317193455994129,0.01976725459098816,0.08089474588632584,9.026817321777344,-0.0011011861497536302,-3.7829151153564453
1403638519007829500,-0.005841744132339954,0.02112700045108795,0.0780356153845787,8.986013412475586,-0.05814571678638458,-3.742184638977051
1403638519012829500,-0.004471403546631336,0.019142597913742065,0.07390036433935165,9.124661445617676,0.005628816317766905,-3.8160672187805176
1403638519017829500,-0.0016768397763371468,0.0226869136095047,0.07676099240779877,8.937348365783691,-0.0011160813737660646,-3.79878306388855
1403638519022829500,-0.003196162171661854,0.025411859154701233,0.07744703441858292,9.05075740814209,-0.025361379608511925,-3.80731201171875
1403638519027829500,-0.0038032056763768196,0.028896957635879517,0.07666999101638794,8.961581230163574,-0.001564689795486629,-3.807097911834717
1403638519032829500,-0.005139303393661976,0.02468349039554596,0.08222537487745285,8.986310958862305,-0.03343487158417702,-3.7663660049438477
1403638519037829500,-0.005852115340530872,0.022582098841667175,0.07948004454374313,8.993791580200195,0.022887097671628,-3.7910706996917725
1403638519042829500,-0.004478436894714832,0.016287043690681458,0.08357734233140945,9.018654823303223,-0.03374650329351425,-3.774510145187378
1403638519047829500,-0.007348430342972279,0.02048984169960022,0.07680023461580276,8.978275299072266,-0.06586143374443054,-3.7990036010742188
1403638519052829500,-0.005092334933578968,0.0178079754114151,0.07893255352973938,8.994110107421875,-0.098667673766613,-3.799048662185669
1403638519057829500,-0.004514229483902454,0.02405869960784912,0.0767243281006813,9.051535606384277,-0.04209307208657265,-3.7992382049560547
1403638519062829500,-0.0031238915398716927,0.022568076848983765,0.08147595077753067,8.969686508178711,-0.025779321789741516,-3.7743470668792725
1403638519067829500,-0.0031103910878300667,0.025422394275665283,0.0740080252289772,9.03487491607666,-0.00202176789753139,-3.7670860290527344
1403638519072829500,-0.005250048823654652,0.020504340529441833,0.07870321720838547,8.970005989074707,-0.009210892952978611,-3.7341909408569336
1403638519077829500,-0.00737078208476305,0.019072264432907104,0.07873034477233887,9.010414123535156,-0.009460022673010826,-3.7668254375457764
1403638519082829500,-0.0044152261689305305,0.019749462604522705,0.07959313690662384,8.969321250915527,-0.06660648435354233,-3.774393320083618
1403638519087829500,-0.007274371571838856,0.024711742997169495,0.0774364173412323,9.059804916381836,0.014877567999064922,-3.815857172012329
1403638519092829500,-0.003845018334686756,0.024065256118774414,0.0787290558218956,8.93713092803955,-0.025783410295844078,-3.7743771076202393
1403638519097829500,-0.0030511440709233284,0.021951332688331604,0.07813792675733566,9.043152809143066,-0.03423044830560684,-3.7749459743499756
1403638519102829500,-0.0032740356400609016,0.022605225443840027,0.07663459330797195,8.920973777770996,-0.008485116995871067,-3.7579805850982666
1403638519107829500,-0.0029677869752049446,0.018519192934036255,0.07331535965204239,9.03465461730957,-0.0015801690751686692,-3.7913715839385986
1403638519112829500,-0.007402372546494007,0.021190673112869263,0.07740110903978348,8.937026023864746,0.006509093102067709,-3.758368492126465
1403638519117829500,-0.007987570948898792,0.017687201499938965,0.07663923501968384,9.051477432250977,0.015091357752680779,-3.7995259761810303
1403638519122829500,-0.007203233428299427,0.01974382996559143,0.07871448248624802,8.993929862976074,-0.01815706677734852,-3.7910921573638916
1403638519127829500,-0.006668669171631336,0.018481090664863586,0.0774654746055603,9.067964553833008,0.006422350648790598,-3.791369915008545
1403638519132829500,-0.006576430983841419,0.021971076726913452,0.07871721684932709,8.904858589172363,-0.0820598155260086,-3.749922752380371
1403638519137829500,-0.0044820429757237434,0.02331477403640747,0.07534170895814896,9.034669876098633,-0.058209680020809174,-3.7995197772979736
1403638519142829500,-0.00468213576823473,0.021889016032218933,0.07746388763189316,8.953691482543945,-0.06611698865890503,-3.7905898094177246
1403638519147829500,-0.0015298845246434212,0.01981307566165924,0.07471007108688354,9.035061836242676,-0.025660159066319466,-3.783245325088501
1403638519152829500,-0.008074265904724598,0.025314688682556152,0.07594221830368042,9.018573760986328,-0.009823640808463097,-3.7829318046569824
1403638519157829500,-0.0072793783619999886,0.023287490010261536,0.08009161055088043,8.95390796661377,-0.009040036238729954,-3.774649143218994
1403638519162829500,-0.008557540364563465,0.024692043662071228,0.07946810871362686,8.985811233520508,-0.017704078927636147,-3.791076421737671
1403638519167829500,-0.006008905358612537,0.021950557827949524,0.07812732458114624,9.034734725952148,-0.018083468079566956,-3.7830495834350586
1403638519172829500,-0.009921026416122913,0.021981284022331238,0.07733765244483948,8.994629859924316,-0.04189067333936691,-3.7749745845794678
1403638519177829500,-0.004642915911972523,0.01637701690196991,0.0767490342259407,9.083580017089844,-0.00945272110402584,-3.7993199825286865
1403638519182829500,-0.005198192782700062,0.02120913565158844,0.07743420451879501,8.994471549987793,-0.018195034936070442,-3.7746353149414062
1403638519187829500,-0.002446127124130726,0.020479559898376465,0.07808185368776321,9.026755332946777,0.007254437543451786,-3.774913787841797
1403638519192829500,-0.00726358313113451,0.027454733848571777,0.07943994551897049,9.002017974853516,-0.0010264180600643158,-3.774784803390503
1403638519197829500,-0.006646257825195789,0.021246924996376038,0.08081836998462677,8.977946281433105,-0.01006137952208519,-3.7746877670288086
1403638519202829500,-0.005099755711853504,0.023975610733032227,0.07734468579292297,9.034876823425293,0.022894982248544693,-3.7750630378723145
1403638519207829500,-0.0052787186577916145,0.017690643668174744,0.07888415455818176,9.018730163574219,-0.05824560299515724,-3.798924684524536
1403638519212829500,-0.0050671519711613655,0.02195039391517639,0.07883932441473007,9.075886726379395,-0.034602537751197815,-3.7990975379943848
1403638519217829500,-0.005992901511490345,0.021226495504379272,0.0787685364484787,8.95333480834961,-0.058214060962200165,-3.7904672622680664
1403638519222829500,-0.005845707841217518,0.024706006050109863,0.07603419572114944,8.994100570678711,-0.0015150391263887286,-3.799069881439209
1403638519227829500,-0.0039220573380589485,0.025323107838630676,0.0801268219947815,8.961685180664062,-0.05783730000257492,-3.766357660293579
1403638519232829500,-0.004257035441696644,0.021289825439453125,0.07188748568296432,9.059624671936035,-0.017799874767661095,-3.799736499786377
1403638519237829500,-0.0019988538697361946,0.021236971020698547,0.07603085786104202,8.953518867492676,-0.04997759684920311,-3.782526969909668
1403638519242829500,-0.004892033524811268,0.02050185203552246,0.0794815942645073,9.04320240020752,0.014888666570186615,-3.823559284210205
1403638519247829500,-0.005439800210297108,0.0218818336725235,0.08092740923166275,8.93677043914795,-0.04199756681919098,-3.7743773460388184
1403638519252829500,-0.00496248621493578,0.024040445685386658,0.07322225719690323,9.010658264160156,-0.025680312886834145,-3.7749252319335938
1403638519257829500,-0.005307954736053944,0.019105836749076843,0.07588745653629303,8.929262161254883,-0.08238108456134796,-3.758047342300415
1403638519262829500,-0.007306468673050404,0.024687066674232483,0.076076440513134,9.091925621032715,-0.01781272515654564,-3.7754769325256348
1403638519267829500,-0.007234704680740833,0.02194783091545105,0.0788237452507019,8.913191795349121,-0.041680678725242615,-3.766282320022583
1403638519272829500,-0.007354301400482655,0.021265432238578796,0.07948711514472961,8.994064331054688,0.0066206613555550575,-3.8154664039611816
1403638519277829500,-0.005841207690536976,0.02390056848526001,0.08226420730352402,8.912339210510254,-0.04169148579239845,-3.7578752040863037
1403638519282829500,-0.0017646672204136848,0.021185800433158875,0.07940396666526794,9.091836929321289,0.006436661817133427,-3.807546377182007
1403638519287829500,-0.003866356797516346,0.01980021595954895,0.08146591484546661,8.945050239562988,-0.033880557864904404,-3.7581238746643066
1403638519292829500,-0.005122941918671131,0.02468283474445343,0.07834547758102417,9.018994331359863,-0.034099314361810684,-3.766711473464966
1403638519297829500,-0.00741009134799242,0.023328006267547607,0.08023964613676071,8.904851913452148,-0.09086725860834122,-3.7660233974456787
1403638519302829500,-0.004399490542709827,0.019197553396224976,0.0745701864361763,8.99397087097168,-0.01746809110045433,-3.7993922233581543
1403638519307829500,-0.0038691284134984016,0.024692609906196594,0.0780581384897232,8.969430923461914,-0.0015185438096523285,-3.7827768325805664
1403638519312829500,-0.003803056664764881,0.020523548126220703,0.07884492725133896,9.0348539352417,-0.0014332615537568927,-3.815474271774292
1403638519317829500,-0.0059254588559269905,0.026708245277404785,0.07875395566225052,8.994357109069824,-0.03365158289670944,-3.7908215522766113
1403638519322829500,-0.005800765939056873,0.01984274387359619,0.08019004017114639,9.02684497833252,0.006612191442400217,-3.774894952774048
1403638519327829500,-0.00458903331309557,0.021883949637413025,0.07948572933673859,8.953598022460938,-0.03411012142896652,-3.7339274883270264
1403638519332829500,-0.0017379643395543098,0.012931659817695618,0.07534534484148026,9.018611907958984,-0.009451844729483128,-3.7588706016540527
1403638519337829500,-0.006559235043823719,0.01642155647277832,0.0718676820397377,9.035139083862305,-0.050224099308252335,-3.766948938369751
1403638519342829500,-0.006714773364365101,0.02048546075820923,0.07532763481140137,9.018831253051758,-0.0662551298737526,-3.766852855682373
1403638519347829500,-0.006403756327927113,0.022639364004135132,0.075288325548172,9.035347938537598,-0.009775450453162193,-3.7750611305236816
1403638519352829500,-0.004586082883179188,0.017705604434013367,0.08078719675540924,9.026955604553223,0.006806705147027969,-3.7749791145324707
1403638519357829500,-0.007195723243057728,0.02390304207801819,0.07664944231510162,8.994181632995605,-0.001453121774829924,-3.7830283641815186
1403638519362829500,-0.004696262069046497,0.021931156516075134,0.07877878099679947,8.95319938659668,-0.017589882016181946,-3.750199794769287
1403638519367829500,-0.005152356810867786,0.021223336458206177,0.0760013610124588,9.002695083618164,-0.017761321738362312,-3.7670304775238037
1403638519372829500,-0.007277649827301502,0.017699509859085083,0.08159106224775314,8.937257766723633,-0.03383149206638336,-3.749903440475464
1403638519377829500,-0.006594610400497913,0.020570963621139526,0.07681699097156525,9.067469596862793,0.014486495405435562,-3.7914791107177734
1403638519382829500,-0.005205375142395496,0.02260880172252655,0.07660211622714996,8.90473461151123,-0.0009770594770088792,-3.76666259765625
1403638519387829500,-0.001767885871231556,0.022727996110916138,0.07454589754343033,9.034934997558594,-0.009207095950841904,-3.7671215534210205
1403638519392829500,-0.0031621279194951057,0.02465064823627472,0.0794985219836235,8.961321830749512,-0.049606386572122574,-3.758336067199707
1403638519397829500,-0.007178318686783314,0.022537440061569214,0.07885702699422836,9.019007682800293,-0.009609266184270382,-3.76686692237854
1403638519402829500,-0.005316716618835926,0.021242454648017883,0.07949573546648026,8.9533109664917,-0.009556110948324203,-3.77437424659729
1403638519407829500,-0.0030186595395207405,0.022655650973320007,0.07531410455703735,9.03507137298584,0.05550554394721985,-3.807772636413574
1403638519412829500,-0.006056052632629871,0.019759848713874817,0.0759022906422615,8.945317268371582,-0.041914038360118866,-3.7583987712860107
1403638519417829500,-0.007806968875229359,0.02052725851535797,0.07673879712820053,9.067237854003906,-0.009770777076482773,-3.7834038734436035
1403638519422829500,-0.007422369904816151,0.024064436554908752,0.07886957377195358,8.970010757446289,-0.041236743330955505,-3.7826156616210938
1403638519427829500,-0.0037215175107121468,0.02342325448989868,0.07603583484888077,9.084074020385742,-0.00981429498642683,-3.7996435165405273
1403638519432829500,-0.006532263942062855,0.02322910726070404,0.07863571494817734,8.937178611755371,-0.04212811961770058,-3.750089406967163
1403638519437829500,-0.004017842002213001,0.019087091088294983,0.07879124581813812,8.978025436401367,0.031611595302820206,-3.782972812652588
1403638519442829500,-0.009239775128662586,0.01983638107776642,0.07538053393363953,8.928881645202637,-0.0095575712621212,-3.7583606243133545
1403638519447829500,-0.006058168597519398,0.018424734473228455,0.07673341035842896,9.075383186340332,-0.017374631017446518,-3.7751991748809814
1403638519452829500,-0.005809021182358265,0.021201178431510925,0.07947541773319244,8.953727722167969,-0.08195029199123383,-3.790670156478882
1403638519457829500,-0.005123180337250233,0.02259974181652069,0.07810023427009583,9.051308631896973,-0.05080033838748932,-3.823786735534668
1403638519462829500,-0.0032642902806401253,0.021260544657707214,0.07668212801218033,8.961865425109863,-0.06642540544271469,-3.790893793106079
1403638519467829500,-0.003041994757950306,0.021250396966934204,0.07676073908805847,9.010669708251953,-0.05794214829802513,-3.7908740043640137
1403638519472829500,-0.00382272619754076,0.02395772933959961,0.0795150026679039,9.001948356628418,-0.03442554920911789,-3.7905845642089844
1403638519477829500,-0.0029969336465001106,0.01909327507019043,0.07880889624357224,8.994388580322266,-0.041904982179403305,-3.7989752292633057
1403638519482829500,-0.004540544934570789,0.023925140500068665,0.07878544926643372,9.034998893737793,-0.00959028210490942,-3.7908897399902344
1403638519487829500,-0.005279970355331898,0.01981113851070404,0.08296433836221695,9.002137184143066,-0.042415801435709,-3.7745814323425293
1403638519492829500,-0.009117585606873035,0.021250352263450623,0.07804150134325027,8.970268249511719,-0.05029243975877762,-3.798916816711426
1403638519497829500,-0.004814756102859974,0.01980450749397278,0.08220910280942917,9.01022720336914,-0.0018894635140895844,-3.758223295211792
1403638519502829500,-0.008287054486572742,0.022632122039794922,0.07960310578346252,9.00242805480957,-0.04232146590948105,-3.774880886077881
1403638519507829500,-0.0027903737500309944,0.019148975610733032,0.08019513636827469,9.018672943115234,-0.04178261011838913,-3.7825839519500732
1403638519512829500,-0.005041164346039295,0.023954138159751892,0.07806060463190079,9.002401351928711,-0.02608102187514305,-3.7584359645843506
1403638519517829500,-0.003870260901749134,0.020488709211349487,0.07604733109474182,9.00236701965332,-0.033939845860004425,-3.799109697341919
1403638519522829500,-0.005194735713303089,0.023967519402503967,0.074634850025177,9.116205215454102,-0.0016835592687129974,-3.7994258403778076
1403638519527829500,-0.005780947394669056,0.021898910403251648,0.07942792773246765,8.994030952453613,-0.04231971129775047,-3.7826170921325684
1403638519532829500,-0.008051765151321888,0.022658392786979675,0.07533032447099686,9.027189254760742,-0.010418280027806759,-3.774916887283325
1403638519537829500,0.00035049300640821457,0.020572856068611145,0.07398023456335068,8.888565063476562,-0.04982718452811241,-3.7497975826263428
1403638519542829500,-0.003808361478149891,0.019882142543792725,0.07386339455842972,9.002394676208496,-0.01767837628722191,-3.766791820526123
1403638519547829500,-0.005963635630905628,0.021168917417526245,0.07668779045343399,8.985974311828613,-0.06647972762584686,-3.782844066619873
1403638519552829500,-0.009806168265640736,0.023320168256759644,0.07607807964086533,9.108336448669434,-0.0020226442720741034,-3.791600465774536
1403638519557829500,-0.006892395205795765,0.023280039429664612,0.07800881564617157,8.95349407196045,-0.07392820715904236,-3.7500979900360107
1403638519562829500,2.6601366698741913e-05,0.023299098014831543,0.07325423508882523,9.067770004272461,-0.00965278409421444,-3.799567461013794
1403638519567829500,-0.0020176591351628304,0.02122001349925995,0.0807805061340332,8.945307731628418,-0.034039441496133804,-3.7662932872772217
1403638519572829500,-0.0037486376240849495,0.018456146121025085,0.08017020672559738,9.026881217956543,0.007121548987925053,-3.7588889598846436
1403638519577829500,-0.0031429650261998177,0.0198049396276474,0.07894894480705261,8.91262149810791,-0.05010172352194786,-3.758221387863159
1403638519582829500,-0.004480344243347645,0.02058550715446472,0.07875392585992813,9.067346572875977,0.022984353825449944,-3.799464702606201
1403638519587829500,-0.004522812552750111,0.021907106041908264,0.07932727783918381,8.94543170928955,0.023162512108683586,-3.774522304534912
1403638519592829500,-0.007808697409927845,0.019132867455482483,0.0774860754609108,9.083806991577148,-0.0016601942479610443,-3.7832765579223633
1403638519597829500,-0.005579573102295399,0.02258923649787903,0.07676202803850174,8.961725234985352,-0.057460539042949677,-3.7503011226654053
1403638519602829500,-0.004849863238632679,0.017039775848388672,0.0760236456990242,9.018842697143555,-0.025695791468024254,-3.7672669887542725
1403638519607829500,-0.004691791720688343,0.020492926239967346,0.08016263693571091,8.977789878845215,-0.05034150928258896,-3.7987141609191895
1403638519612829500,-0.005761307664215565,0.02122415602207184,0.07390919327735901,9.019036293029785,-0.0011070274049416184,-3.799511194229126
1403638519617829500,-0.005915057845413685,0.02468554675579071,0.07668109983205795,8.985795974731445,-0.009474625810980797,-3.799405097961426
1403638519622829500,-0.00533140916377306,0.023311004042625427,0.0795716792345047,9.026450157165527,-0.009629126638174057,-3.7989578247070312
1403638519627829500,-0.007101726718246937,0.025392591953277588,0.07872799038887024,8.896703720092773,-0.009165623225271702,-3.766376256942749
1403638519632829500,-0.003986072726547718,0.019143611192703247,0.07882104814052582,8.896403312683105,-0.05776165425777435,-3.7663815021514893
1403638519637829500,-0.0038325609639286995,0.01916070282459259,0.07607179880142212,8.961928367614746,-0.04196690022945404,-3.766510248184204
1403638519642829500,-0.0038383724167943,0.014282524585723877,0.07462284713983536,9.002573013305664,-0.05816616117954254,-3.775067090988159
1403638519647829500,-0.008003038354218006,0.019114673137664795,0.07736620306968689,9.051124572753906,-0.0503423847258091,-3.7750346660614014
1403638519652829500,-0.004401606507599354,0.01703914999961853,0.07817854732275009,8.969925880432129,-0.04141256585717201,-3.7988455295562744
1403638519657829500,-0.00321159977465868,0.019162550568580627,0.07812592387199402,9.04299259185791,0.006698641926050186,-3.815558433532715
1403638519662829500,-0.005107921548187733,0.021173283457756042,0.08007838577032089,8.993983268737793,-0.05813169851899147,-3.782851219177246
1403638519667829500,-0.004648339934647083,0.025406479835510254,0.07320139557123184,9.002943992614746,-0.0014683090848848224,-3.775029182434082
1403638519672829500,-0.005779695697128773,0.02186456322669983,0.07956214994192123,8.937385559082031,-0.06626710295677185,-3.7420639991760254
1403638519677829500,-0.007999730296432972,0.019786447286605835,0.07538296282291412,9.00258731842041,-0.0587853342294693,-3.7747974395751953
1403638519682829500,-0.004593235440552235,0.01561582088470459,0.07603254169225693,8.92916488647461,-0.06651419401168823,-3.733736515045166
1403638519687829500,-0.0023178579285740852,0.021930113434791565,0.07736774533987045,9.083642959594727,-0.01751803420484066,-3.7997074127197266
1403638519692829500,0.00015403609722852707,0.022707641124725342,0.08077654987573624,8.96963882446289,-0.042273856699466705,-3.7582995891571045
1403638519697829500,-0.0008787037804722786,0.02200058102607727,0.0754152461886406,9.075934410095215,-0.01814071275293827,-3.7831506729125977
1403638519702829500,-0.0032718004658818245,0.020467087626457214,0.0753151997923851,8.912779808044434,-0.000939675432164222,-3.774498462677002
1403638519707829500,-0.006341737695038319,0.014293134212493896,0.07529672980308533,9.035225868225098,-0.018087849020957947,-3.791396141052246
1403638519712829500,-0.0053133489564061165,0.02324044704437256,0.07748295366764069,8.961555480957031,-0.09090055525302887,-3.7743031978607178
1403638519717829500,-0.00861270446330309,0.019094839692115784,0.07599819451570511,9.043042182922363,-0.08273360878229141,-3.7830986976623535
1403638519722829500,-0.004427802748978138,0.02463260293006897,0.07942177355289459,8.953547477722168,-0.05867960676550865,-3.7905118465423584
1403638519727829500,-0.0031556906178593636,0.024700626730918884,0.07815185934305191,9.051656723022461,-0.02601151168346405,-3.783128023147583
1403638519732829500,-0.0038303853943943977,0.022016853094100952,0.07730493694543839,8.89677619934082,-0.058059267699718475,-3.7258763313293457
1403638519737829500,-0.004455161280930042,0.017770975828170776,0.075408436357975,9.083881378173828,-0.04242631420493126,-3.7751712799072266
1403638519742829500,-0.003889036364853382,0.02253963053226471,0.07890951633453369,8.920944213867188,-0.05788782611489296,-3.766082525253296
1403638519747829500,-0.0017080428078770638,0.01918412744998932,0.07737033069133759,9.002301216125488,0.0224075298756361,-3.783158779144287
1403638519752829500,-0.007919562049210072,0.02260507643222809,0.07799949496984482,8.994144439697266,-0.026228806003928185,-3.7910420894622803
1403638519757829500,-0.004614365287125111,0.01701107621192932,0.08089244365692139,9.018858909606934,-0.04143038019537926,-3.783025026321411
1403638519762829500,-0.0051326872780919075,0.020443394780158997,0.07949630171060562,8.994471549987793,-0.09922843426465988,-3.742368698120117
1403638519767829500,-0.006534588523209095,0.01913653314113617,0.082949198782444,9.026873588562012,-0.017584623768925667,-3.791065216064453
1403638519772829500,-0.00466571468859911,0.02411496639251709,0.07889267057180405,8.953582763671875,-0.025266751646995544,-3.8150851726531982
1403638519777829500,-0.004239213652908802,0.024642154574394226,0.0802021250128746,9.042696952819824,-0.0018482827581465244,-3.815417528152466
1403638519782829500,-0.010258746333420277,0.026715844869613647,0.0780501440167427,8.945456504821777,-0.025865480303764343,-3.774519681930542
1403638519787829500,-0.0037817778065800667,0.015620827674865723,0.0808846578001976,8.953367233276367,-0.04131969064474106,-3.7663135528564453
1403638519792829500,-0.005878043361008167,0.02258189022541046,0.07745867967605591,9.02664852142334,-0.02629072405397892,-3.766589403152466
1403638519797829500,-0.00526196975260973,0.015029817819595337,0.07947216182947159,8.97824764251709,-0.05842113122344017,-3.7748918533325195
1403638519802829500,-0.0051257433369755745,0.01918603479862213,0.07533206045627594,9.019085884094238,-0.05821552127599716,-3.783341646194458
1403638519807829500,-0.005406391806900501,0.019807860255241394,0.07743901759386063,9.002405166625977,-0.058299049735069275,-3.799191951751709
1403638519812829500,-0.006974739022552967,0.02540874481201172,0.07742155343294144,9.04340648651123,-0.042119648307561874,-3.799252510070801
1403638519817829500,-0.00678021926432848,0.02596735954284668,0.07947336137294769,8.969497680664062,-0.041889503598213196,-3.7824034690856934
1403638519822829500,-0.007986527867615223,0.02191874384880066,0.0781029611825943,8.986061096191406,-0.025382408872246742,-3.7829318046569824
1403638519827829500,-0.005799991078674793,0.017001688480377197,0.07731342315673828,8.945623397827148,-0.050234612077474594,-3.7663562297821045
1403638519832829500,-0.009407592006027699,0.021866217255592346,0.07535245269536972,9.043158531188965,-0.042393311858177185,-3.8075761795043945
1403638519837829500,-0.008757454343140125,0.02062322199344635,0.07880726456642151,8.912939071655273,-0.03365888446569443,-3.758145332336426
1403638519842829500,-0.00699008721858263,0.019168004393577576,0.08088979125022888,9.108616828918457,-0.05855986103415489,-3.8235387802124023
1403638519847829500,-0.002745402045547962,0.023198992013931274,0.08019087463617325,8.985760688781738,-0.05830138549208641,-3.7907044887542725
1403638519852829500,-0.0022320272400975227,0.022670194506645203,0.07668455690145493,9.035154342651367,-0.03380666673183441,-3.7750706672668457
1403638519857829500,-0.0025752605870366096,0.017786040902137756,0.07389809191226959,8.913138389587402,-0.11475595086812973,-3.7337615489959717
1403638519862829500,-0.003836733289062977,0.01632976531982422,0.07610628753900528,9.002594947814941,-0.07477927207946777,-3.742713689804077
1403638519867829500,-0.0051610590890049934,0.019679591059684753,0.0802324190735817,8.929081916809082,-0.0014098965330049396,-3.750302314758301
1403638519872829500,-0.0024010660126805305,0.014989703893661499,0.07813119143247604,9.083704948425293,0.006111303810030222,-3.7994489669799805
1403638519877829500,-0.008606028743088245,0.02127997577190399,0.08005919307470322,8.99433708190918,-0.05047497898340225,-3.774587631225586
1403638519882829500,-0.005842340178787708,0.025332331657409668,0.08074803650379181,9.13287353515625,-0.00983912032097578,-3.8075644969940186
1403638519887829500,-0.007280600257217884,0.02952401340007782,0.08091627806425095,8.912559509277344,-0.06635238975286484,-3.7576897144317627
1403638519892829500,-0.00309793371707201,0.02061787247657776,0.08032595366239548,8.977972984313965,-0.03391677513718605,-3.7261736392974854
1403638519897829500,-0.0059168459847569466,0.023226678371429443,0.07743054628372192,8.986122131347656,-0.034034475684165955,-3.742433547973633
1403638519902829500,-0.005884152837097645,0.01627059280872345,0.07806467264890671,9.0350923538208,-0.06631792336702347,-3.7586734294891357
1403638519907829500,-0.003907841630280018,0.021216779947280884,0.07665551453828812,9.043122291564941,-0.02584795653820038,-3.8153750896453857
1403638519912829500,-0.004978758282959461,0.01988983154296875,0.07945455610752106,9.043139457702637,0.055288832634687424,-3.7751238346099854
1403638519917829500,-0.0074340226128697395,0.026158541440963745,0.07403023540973663,8.986371994018555,-0.042034659534692764,-3.7750842571258545
1403638519922829500,-0.005827021785080433,0.02261298894882202,0.0793909952044487,8.985891342163086,-0.03397577255964279,-3.7665011882781982
1403638519927829500,-0.005235743708908558,0.024031713604927063,0.0808471143245697,8.89647102355957,-0.025785455480217934,-3.717653274536133
1403638519932829500,-0.004679244942963123,0.014952942728996277,0.07890356332063675,8.986169815063477,-0.033969637006521225,-3.774869441986084
1403638519937829500,-0.004260015673935413,0.017638474702835083,0.07601349800825119,8.994388580322266,-0.0334223136305809,-3.7667651176452637
1403638519942829500,-0.0061660828068852425,0.018382400274276733,0.0745958760380745,8.977941513061523,-0.041590724140405655,-3.783221960067749
1403638519947829500,-0.0021927179768681526,0.02133522927761078,0.07673483341932297,9.035050392150879,-0.0339629203081131,-3.807307720184326
1403638519952829500,-0.002581966109573841,0.015660405158996582,0.07881992310285568,8.969986915588379,-0.08153031021356583,-3.7585737705230713
1403638519957829500,-0.005052429623901844,0.025350168347358704,0.07606710493564606,9.067707061767578,-0.042219534516334534,-3.775348424911499
1403638519962829500,-0.002434981055557728,0.022674620151519775,0.07667895406484604,8.945686340332031,-0.05905987322330475,-3.7743561267852783
1403638519967829500,-0.00664134044200182,0.024756714701652527,0.07590703666210175,8.970053672790527,-0.025156350806355476,-3.742640256881714
1403638519972829500,-0.0024786116555333138,0.02036397159099579,0.0788092389702797,8.9287109375,-0.017475100234150887,-3.790804624557495
1403638519977829500,-0.0029862048104405403,0.021100983023643494,0.080353744328022,9.091653823852539,-0.050826914608478546,-3.7992770671844482
1403638519982829500,-0.004637938924133778,0.021219849586486816,0.08016654849052429,8.945323944091797,-0.07332859933376312,-3.8070623874664307
1403638519987829500,-0.00231973547488451,0.020646333694458008,0.07735618948936462,9.076261520385742,-0.05827188864350319,-3.8237805366516113
1403638519992829500,-0.005144012160599232,0.020555585622787476,0.07808692008256912,8.888651847839355,-0.06702500581741333,-3.7501440048217773
1403638519997829500,-0.002537352032959461,0.023351222276687622,0.07883211225271225,9.002413749694824,0.01532734464854002,-3.7910561561584473
1403638520002829500,-0.004918945021927357,0.019159331917762756,0.07681683450937271,8.993829727172852,-0.02598697878420353,-3.790569543838501
1403638520007829500,-0.006116253323853016,0.025356143712997437,0.07872959226369858,9.067177772521973,0.03838628530502319,-3.8236889839172363
1403638520012829500,-0.005098533816635609,0.02592889964580536,0.08285178989171982,8.920578002929688,-0.0326746329665184,-3.782160520553589
1403638520017829500,-0.006458026356995106,0.01977577805519104,0.07882847636938095,9.051239967346191,-0.018233003094792366,-3.783198118209839
1403638520022829500,-0.008288753218948841,0.01844821870326996,0.080149807035923,8.913366317749023,-0.02649983949959278,-3.7499380111694336
1403638520027829500,-0.0028073610737919807,0.01784798502922058,0.07886085659265518,9.067587852478027,-0.033221956342458725,-3.7913589477539062
1403638520032829500,-0.007555109448730946,0.02123597264289856,0.0760825127363205,8.953484535217285,-0.06654632091522217,-3.7340610027313232
1403638520037829500,-0.005084824748337269,0.018508613109588623,0.07391286641359329,9.084153175354004,-0.02645573951303959,-3.8073184490203857
1403638520042829500,-0.003008824773132801,0.025378510355949402,0.07393021136522293,9.042899131774902,-0.04971999675035477,-3.8153059482574463
1403638520047829500,-0.004652810283005238,0.024630457162857056,0.07464197278022766,9.051401138305664,0.014797250740230083,-3.791248083114624
1403638520052829500,-0.004340630955994129,0.02466529607772827,0.08074697852134705,8.937270164489746,-0.02622091956436634,-3.7500698566436768
1403638520057829500,-0.006768655963242054,0.020488053560256958,0.08016213029623032,8.985889434814453,-0.041760120540857315,-3.758739709854126
1403638520062829500,-0.00998313445597887,0.024617701768875122,0.0767742320895195,8.945867538452148,-0.025805022567510605,-3.7824888229370117
1403638520067829500,-0.007920545525848866,0.015745162963867188,0.07870952039957047,9.002546310424805,-0.06649316102266312,-3.799100637435913
1403638520072829500,-0.0073287608101964,0.022645533084869385,0.08086783438920975,9.099771499633789,-0.0337628573179245,-3.823542356491089
1403638520077829500,-0.003120255656540394,0.024002522230148315,0.08309733867645264,9.026773452758789,0.00661686435341835,-3.7906644344329834
1403638520082829500,-0.005074036307632923,0.027468442916870117,0.08150822669267654,8.961377143859863,-0.033476635813713074,-3.7745838165283203
1403638520087829500,-0.0034603895619511604,0.0219058096408844,0.07665038108825684,8.961427688598633,-0.0010123990941792727,-3.7422618865966797
1403638520092829500,-0.004933786578476429,0.01985771954059601,0.07393714040517807,8.921624183654785,-0.009420301765203476,-3.7505147457122803
1403638520097829500,-0.006045621819794178,0.012800976634025574,0.07738026231527328,9.010107040405273,-0.009356340393424034,-3.7913148403167725
1403638520102829500,-0.007975918240845203,0.01907394826412201,0.0761668011546135,9.141057014465332,-0.03453419357538223,-3.783277750015259
1403638520107829500,-0.0050723375752568245,0.019185826182365417,0.07813908904790878,9.051701545715332,-0.07439462840557098,-3.8072822093963623
1403638520112829500,-0.005968195386230946,0.02610965073108673,0.07718861103057861,9.059054374694824,-0.05840244144201279,-3.7747256755828857
1403638520117829500,-0.005176079459488392,0.022590547800064087,0.07944051921367645,8.856039047241211,-0.05027258023619652,-3.741628408432007
1403638520122829500,0.00031768064945936203,0.024736985564231873,0.0789089947938919,8.994282722473145,0.007023707963526249,-3.7589304447174072
1403638520127829500,-0.0038227559998631477,0.022558599710464478,0.08092277497053146,8.93681526184082,-0.025564070791006088,-3.7827253341674805
1403638520132829500,-0.003070277161896229,0.01841782033443451,0.07405266165733337,9.084301948547363,-0.042388930916786194,-3.8077023029327393
1403638520137829500,-0.005221647210419178,0.0190189927816391,0.08143702894449234,8.97745132446289,-0.03347254544496536,-3.806845188140869
1403638520142829500,-0.0064390720799565315,0.019180789589881897,0.0780462995171547,9.043017387390137,-0.0019303523004055023,-3.799146890640259
1403638520147829500,-0.004622769542038441,0.019867077469825745,0.0802663117647171,8.912960052490234,-0.09039411693811417,-3.7662782669067383
1403638520152829500,-0.0050370218232274055,0.022646620869636536,0.07602798193693161,9.083760261535645,-0.03398102894425392,-3.799699544906616
1403638520157829500,-0.0019150199368596077,0.023338675498962402,0.08011816442012787,8.90480899810791,-0.06650981307029724,-3.798422336578369
1403638520162829500,-0.0028873207047581673,0.02053743600845337,0.07751236110925674,9.067895889282227,-0.033246491104364395,-3.7670884132385254
1403638520167829500,-0.008157891221344471,0.024565353989601135,0.07808530330657959,9.001976013183594,-0.026048311963677406,-3.790933609008789
1403638520172829500,-0.008576077409088612,0.017022311687469482,0.07604715973138809,9.026803016662598,-0.00186171755194664,-3.7829384803771973
1403638520177829500,-0.010644328780472279,0.017646625638008118,0.07667522132396698,8.91274356842041,-0.04153990373015404,-3.774381637573242
1403638520182829500,-0.009614777751266956,0.01774759590625763,0.0814315527677536,9.051202774047852,-0.002224751515313983,-3.7751808166503906
1403638520187829500,-0.006986183114349842,0.023421242833137512,0.07814823091030121,8.962432861328125,-0.09088712185621262,-3.7665135860443115
1403638520192829500,-0.00545231718569994,0.019920632243156433,0.07611896842718124,9.059779167175293,-0.04205568879842758,-3.7912769317626953
1403638520197829500,-0.0023855092003941536,0.026036828756332397,0.07798679172992706,8.936932563781738,-0.05021270737051964,-3.790332555770874
1403638520202829500,-0.0017181159928441048,0.022529765963554382,0.07537822425365448,9.034551620483398,-0.025659283623099327,-3.782949209213257
1403638520207829500,-0.004685056395828724,0.025343656539916992,0.07744782418012619,8.944809913635254,-0.02557370997965336,-3.7909469604492188
1403638520212829500,-0.005709660239517689,0.01703396439552307,0.07739671319723129,8.986358642578125,-0.03367669880390167,-3.7747294902801514
1403638520217829500,-0.003959340043365955,0.021881118416786194,0.07527569681406021,9.043657302856445,-0.0019335650140419602,-3.7590131759643555
1403638520222829500,-0.005095821805298328,0.01781843602657318,0.07804418355226517,9.01889419555664,-0.0341218039393425,-3.7749667167663574
1403638520227829500,-0.006501448340713978,0.01997658610343933,0.07599609345197678,9.035049438476562,-0.03390129655599594,-3.7908849716186523
1403638520232829500,-0.005992335267364979,0.017743825912475586,0.07613860070705414,9.026479721069336,-0.07500912994146347,-3.7991275787353516
1403638520237829500,-0.008525085635483265,0.023982957005500793,0.07529116421937943,9.034852027893066,-0.0016011976404115558,-3.7831225395202637
1403638520242829500,-0.006677043624222279,0.02182595431804657,0.08140059560537338,9.01044750213623,-0.008988341316580772,-3.7746708393096924
1403638520247829500,-0.0017297985032200813,0.027446284890174866,0.07888085395097733,8.978269577026367,-0.009902789257466793,-3.766627073287964
1403638520252829500,-0.001091700978577137,0.018400952219963074,0.08017052710056305,8.913095474243164,-0.025290699675679207,-3.7584636211395264
1403638520257829500,-0.003833186812698841,0.019082844257354736,0.07595927268266678,9.059453964233398,0.023381266742944717,-3.766922950744629
1403638520262829500,-0.005874556489288807,0.020547255873680115,0.0760829970240593,9.042572975158691,-0.03455931320786476,-3.7749202251434326
1403638520267829500,-0.006485682912170887,0.020032033324241638,0.07459462434053421,9.116477966308594,0.022649066522717476,-3.807643413543701
1403638520272829500,-0.007173043675720692,0.02257634699344635,0.0794641375541687,8.994354248046875,-0.03360923379659653,-3.7906460762023926
1403638520277829500,-0.006722074933350086,0.021908387541770935,0.0774630606174469,8.994463920593262,-0.0017025433480739594,-3.791374444961548
1403638520282829500,-0.0031248750165104866,0.025357156991958618,0.08139791339635849,8.920671463012695,-0.008741548284888268,-3.7501230239868164
1403638520287829500,-0.003759932704269886,0.024699270725250244,0.07532620429992676,9.010440826416016,0.015092525631189346,-3.7830610275268555
1403638520292829500,-0.0025684358552098274,0.017710775136947632,0.07403884083032608,8.920928955078125,-0.025466814637184143,-3.7828404903411865
1403638520297829500,-0.0042989375069737434,0.016995415091514587,0.07397948205471039,9.091967582702637,-0.017431290820240974,-3.8158140182495117
1403638520302829500,-0.005956453271210194,0.025400012731552124,0.07672811299562454,8.896710395812988,-0.0821804404258728,-3.7662618160247803
1403638520307829500,-0.006579500623047352,0.01932409405708313,0.07329027354717255,9.027270317077637,-0.04221281781792641,-3.775099515914917
1403638520312829500,-0.003786337561905384,0.022590070962905884,0.07586237043142319,8.969593048095703,-0.06619087606668472,-3.798865556716919
1403638520317829500,-0.0031297625973820686,0.023955687880516052,0.0766582265496254,9.01869010925293,-0.009499158710241318,-3.775078058242798
1403638520322829500,-0.0038460614159703255,0.023996666073799133,0.07816828787326813,8.937172889709473,-0.07421734929084778,-3.7502260208129883
1403638520327829500,-0.004591089673340321,0.024722963571548462,0.07468762993812561,9.059418678283691,-0.017501970753073692,-3.775088310241699
1403638520332829500,-0.006542247720062733,0.0260113924741745,0.0780857726931572,8.969879150390625,-0.03402133285999298,-3.750272035598755
1403638520337829500,-0.005853426642715931,0.02035476267337799,0.08433941751718521,9.05901050567627,-0.050095297396183014,-3.782931327819824
1403638520342829500,-0.003863406367599964,0.02403797209262848,0.08355683088302612,9.018509864807129,-0.017873765900731087,-3.7664904594421387
1403638520347829500,-0.005083751864731312,0.02273470163345337,0.08505937457084656,9.010831832885742,-0.03431982174515724,-3.782855272293091
1403638520352829500,-0.0032476307824254036,0.02329649031162262,0.08231847733259201,8.96140193939209,-0.05014144629240036,-3.7582056522369385
1403638520357829500,-0.0002448679879307747,0.02122044563293457,0.0760469064116478,9.042905807495117,-0.0010109387803822756,-3.7910873889923096
1403638520362829500,-0.005209845490753651,0.021253466606140137,0.07535840570926666,9.002340316772461,0.006140218116343021,-3.7909390926361084
1403638520367829500,-0.004534286446869373,0.017706692218780518,0.0796085000038147,8.99376106262207,-0.04189739003777504,-3.774667739868164
1403638520372829500,-0.0052429260686039925,0.019094929099082947,0.07881911098957062,8.96198558807373,-0.04995160549879074,-3.77463436126709
1403638520377829500,-0.005224448628723621,0.01832006871700287,0.08141200244426727,8.99441146850586,-0.04261966049671173,-3.7665812969207764
1403638520382829500,-0.0065038325265049934,0.02475021779537201,0.07319033145904541,8.994414329528809,-0.026018813252449036,-3.7911291122436523
1403638520387829500,-0.004593354649841785,0.017866849899291992,0.07469259202480316,8.994474411010742,-0.017893042415380478,-3.7748048305511475
1403638520392829500,-0.0043923379853367805,0.02533470094203949,0.0739838257431984,9.083398818969727,0.038499895483255386,-3.79962420463562
1403638520397829500,-0.005193066783249378,0.023286476731300354,0.0774512067437172,8.961403846740723,-0.0011207544011995196,-3.758358955383301
1403638520402829500,-0.007423919625580311,0.02124859392642975,0.07329075038433075,9.027327537536621,-0.09036199003458023,-3.7180559635162354
1403638520407829500,-0.007172537036240101,0.022512391209602356,0.07713364064693451,8.953442573547363,-0.05016714707016945,-3.774679660797119
1403638520412829500,-0.004575264640152454,0.024035662412643433,0.07455623894929886,9.002846717834473,-0.034063972532749176,-3.7993721961975098
1403638520417829500,-0.0052726985886693,0.01981981098651886,0.07957787066698074,8.98627758026123,-0.0983840823173523,-3.766648769378662
1403638520422829500,-0.0036507369950413704,0.024656474590301514,0.07887693494558334,9.108277320861816,-0.06700222939252853,-3.799628734588623
1403638520427829500,-0.005314064212143421,0.021950289607048035,0.07954269647598267,8.929396629333496,-0.12274123728275299,-3.7333908081054688
1403638520432829500,-0.0030795158818364143,0.021225735545158386,0.07807227969169617,9.01862621307373,-0.0417291596531868,-3.774928092956543
1403638520437829500,-0.002477806992828846,0.0170220285654068,0.07731015235185623,8.86391830444336,-0.06677412986755371,-3.766390800476074
1403638520442829500,-0.0037210406735539436,0.018438071012496948,0.07889309525489807,9.100107192993164,-0.02609066106379032,-3.8159127235412598
1403638520447829500,-0.005955112166702747,0.02459295094013214,0.08504084497690201,8.977684020996094,-0.025835981592535973,-3.798701524734497
1403638520452829500,-0.007136953063309193,0.02471703290939331,0.08361062407493591,9.12451171875,0.030022483319044113,-3.807523250579834
1403638520457829500,-0.007317316718399525,0.024659201502799988,0.08154209703207016,8.985876083374023,-0.033755555748939514,-3.7582101821899414
1403638520462829500,-0.005837512202560902,0.023269951343536377,0.07949130982160568,8.969866752624512,-0.016997287049889565,-3.766584634780884
1403638520467829500,-0.004588705487549305,0.019833117723464966,0.0815824344754219,8.879926681518555,-0.034115083515644073,-3.7498176097869873
1403638520472829500,-0.005263489671051502,0.018446221947669983,0.07963646203279495,9.075582504272461,-0.03394568711519241,-3.807569980621338
1403638520477829500,-0.0030264677479863167,0.024010345339775085,0.07947969436645508,9.01061725616455,-0.0093309311196208,-3.8232052326202393
1403638520482829500,-0.007987958379089832,0.019148647785186768,0.07321986556053162,9.100478172302246,-0.05032135546207428,-3.7994704246520996
1403638520487829500,-0.00657809991389513,0.01981063187122345,0.07593744248151779,8.921138763427734,-0.04264390096068382,-3.7500689029693604
1403638520492829500,-0.005944800563156605,0.018519490957260132,0.0767262801527977,8.969686508178711,-0.009550562128424644,-3.7586023807525635
1403638520497829500,-0.007987183518707752,0.02466493844985962,0.07818727195262909,8.936942100524902,0.015094862319529057,-3.766307830810547
1403638520502829500,-0.008000058121979237,0.01565016806125641,0.07811536639928818,8.969948768615723,-0.04287609085440636,-3.775015115737915
1403638520507829500,-0.008653503842651844,0.021197497844696045,0.07724838703870773,8.986605644226074,-0.08217576891183853,-3.75866436958313
1403638520512829500,-0.006667238660156727,0.021126464009284973,0.07670284062623978,8.994405746459961,-0.04937361180782318,-3.7826523780822754
1403638520517829500,-0.0037439288571476936,0.023994117975234985,0.07886336743831635,8.994017601013184,-0.07482367008924484,-3.799112319946289
1403638520522829500,-0.005930704064667225,0.024009689688682556,0.08092814683914185,9.026456832885742,-0.0497933067381382,-3.774672508239746
1403638520527829500,-0.006614339537918568,0.025358840823173523,0.08087144047021866,8.969850540161133,-0.025306472554802895,-3.7746732234954834
1403638520532829500,-0.0002563120797276497,0.01706792414188385,0.08219386637210846,8.978062629699707,-0.05005236715078354,-3.7667582035064697
1403638520537829500,-0.0032317759469151497,0.021248579025268555,0.07806213945150375,9.043442726135254,0.006692216731607914,-3.7830495834350586
1403638520542829500,-0.007807743735611439,0.01911449432373047,0.07818444073200226,8.96987533569336,-0.025550344958901405,-3.8069045543670654
1403638520547829500,-0.007408571429550648,0.024647533893585205,0.08017262071371078,9.05097484588623,-0.018100406974554062,-3.7910094261169434
1403638520552829500,-0.00316427368670702,0.02116324007511139,0.08300349116325378,8.887906074523926,-0.057596348226070404,-3.7174549102783203
1403638520557829500,-0.005717557854950428,0.024738699197769165,0.081571564078331,9.09196949005127,-0.018222490325570107,-3.7995452880859375
1403638520562829500,-0.006028247065842152,0.021919861435890198,0.07665063440799713,8.9866943359375,-0.08259487897157669,-3.7582709789276123
1403638520567829500,-0.0044550420716404915,0.023309633135795593,0.07325933128595352,9.011110305786133,-0.04159247502684593,-3.775202989578247
1403638520572829500,-0.007927161641418934,0.01493711769580841,0.08158531039953232,8.904363632202148,-0.009955945424735546,-3.758059024810791
1403638520577829500,-0.008030754514038563,0.020538732409477234,0.0760965496301651,9.075362205505371,0.055098116397857666,-3.7995662689208984
1403638520582829500,-0.007891875691711903,0.021196946501731873,0.07876000553369522,8.99378776550293,-0.02565840817987919,-3.7745814323425293
1403638520587829500,-0.00652624387294054,0.022636473178863525,0.07728347927331924,9.100321769714355,-0.03437706455588341,-3.8319718837738037
1403638520592829500,-0.006057304330170155,0.023955628275871277,0.08076570183038712,8.961958885192871,-0.09092509001493454,-3.76619291305542
1403638520597829500,-0.007210892625153065,0.022585242986679077,0.07890518009662628,8.994830131530762,-0.0580589734017849,-3.774994373321533
1403638520602829500,-0.002489042468369007,0.019790485501289368,0.07753210514783859,8.888593673706055,-0.12324212491512299,-3.7172393798828125
1403638520607829500,-0.005092632956802845,0.01919664442539215,0.07398425042629242,9.051198959350586,-0.0423959419131279,-3.7670109272003174
1403638520612829500,-0.004726720042526722,0.01906183362007141,0.07660233229398727,8.969842910766602,-0.04948897659778595,-3.774630069732666
1403638520617829500,-0.00425953883677721,0.018423736095428467,0.07732516527175903,9.099946022033691,0.054931640625,-3.7999355792999268
1403638520622829500,-0.00800429005175829,0.026159554719924927,0.07678989320993423,8.937692642211914,-0.00976990070194006,-3.7586898803710938
1403638520627829500,-0.006006223149597645,0.021998390555381775,0.08011818677186966,9.002532005310059,0.007082120515406132,-3.7749013900756836
1403638520632829500,-0.006427598185837269,0.019758760929107666,0.08006056398153305,8.912400245666504,-0.06648848950862885,-3.76580548286438
1403638520637829500,-0.007505637593567371,0.015619844198226929,0.07545561343431473,8.937455177307129,-0.05817112699151039,-3.782917022705078
1403638520642829500,-0.003712904639542103,0.01906418800354004,0.08089122921228409,8.945330619812012,-0.09012454748153687,-3.774625539779663
1403638520647829500,0.0009615598246455193,0.020565465092658997,0.07612308114767075,9.035152435302734,-0.025696666911244392,-3.7991881370544434
1403638520652829500,-0.0031237127259373665,0.02052101492881775,0.0753362700343132,9.002714157104492,-0.0581156350672245,-3.7748563289642334
1403638520657829500,-0.005059880204498768,0.01767776906490326,0.07936520874500275,9.018257141113281,-0.05764862522482872,-3.758610248565674
1403638520662829500,-0.004741651006042957,0.021262794733047485,0.077438585460186,9.002656936645508,-0.026267066597938538,-3.7504234313964844
1403638520667829500,-0.003560018725693226,0.02062278985977173,0.07679575681686401,8.921154022216797,-0.03441006690263748,-3.7586328983306885
1403638520672829500,-0.008707028813660145,0.024663224816322327,0.07591883093118668,8.97779655456543,-0.034332964569330215,-3.7990212440490723
1403638520677829500,-0.009470832534134388,0.01767246425151825,0.07743949443101883,8.953712463378906,-0.017854491248726845,-3.7663516998291016
1403638520682829500,-0.005058717913925648,0.019747823476791382,0.07609327137470245,9.0513277053833,-0.042208436876535416,-3.8159992694854736
1403638520687829500,-0.003873509354889393,0.023295864462852478,0.07867680490016937,8.993850708007812,-0.03367144241929054,-3.815145254135132
1403638520692829500,-0.0037782611325383186,0.023425012826919556,0.07884775847196579,9.027076721191406,-0.017081400379538536,-3.79914927482605
1403638520697829500,-0.0010462524369359016,0.020492389798164368,0.08297787606716156,8.937114715576172,-0.02538445219397545,-3.7580771446228027
1403638520702829500,-0.0017438055947422981,0.01984246075153351,0.07801163196563721,8.961882591247559,-0.0015681944787502289,-3.7504475116729736
1403638520707829500,-0.006676536984741688,0.017126262187957764,0.07888107001781464,8.929043769836426,0.006954781245440245,-3.733907699584961
1403638520712829500,-0.006488305516541004,0.019125893712043762,0.07676844298839569,9.034749984741211,-0.009596999734640121,-3.7751004695892334
1403638520717829500,-0.005242747254669666,0.0190427303314209,0.07941055297851562,8.937021255493164,-0.058009617030620575,-3.782477378845215
1403638520722829500,-0.006519061513245106,0.02117520570755005,0.07815606892108917,9.140888214111328,0.006072459276765585,-3.81608247756958
1403638520727829500,-0.007390630431473255,0.021911054849624634,0.07945019006729126,8.978311538696289,-0.09067420661449432,-3.742095470428467
1403638520732829500,-0.005800974555313587,0.022689148783683777,0.07734157145023346,9.068094253540039,-0.034053169190883636,-3.7672460079193115
1403638520737829500,-0.0003899158909916878,0.018419772386550903,0.07741640508174896,8.9536714553833,-0.009528948925435543,-3.7177987098693848
1403638520742829500,-0.0038110138848423958,0.01770298182964325,0.07675310224294662,9.05931568145752,0.038769762963056564,-3.791522979736328
1403638520747829500,-0.0031768204644322395,0.023985832929611206,0.07951908558607101,8.977570533752441,-0.03328416496515274,-3.8066794872283936
1403638520752829500,-0.007076960988342762,0.02544766664505005,0.07741189748048782,9.10008716583252,-0.009436365216970444,-3.8238866329193115
1403638520757829500,-0.009424936957657337,0.021901234984397888,0.07868140935897827,8.912958145141602,-0.05036954581737518,-3.7906248569488525
1403638520762829500,-0.007959914393723011,0.018348321318626404,0.07531771063804626,9.027167320251465,-0.04166227951645851,-3.8072807788848877
1403638520767829500,-0.007230025716125965,0.022624313831329346,0.07395754754543304,8.8807373046875,-0.07413586229085922,-3.741861343383789
1403638520772829500,-0.006769937463104725,0.01581387221813202,0.07811733335256577,8.986321449279785,-0.04232204705476761,-3.7749884128570557
1403638520777829500,-0.0037862779572606087,0.01909630000591278,0.07743951678276062,9.034680366516113,-0.04166782647371292,-3.799060344696045
1403638520782829500,-0.0010592462494969368,0.02112358808517456,0.07672934234142303,9.059286117553711,-0.02546827495098114,-3.8319575786590576
1403638520787829500,-0.0044238390401005745,0.02539542317390442,0.0793546810746193,9.002124786376953,0.0062059322372078896,-3.7827489376068115
1403638520792829500,-0.006551993079483509,0.023344293236732483,0.08017248660326004,8.98594856262207,-0.033714376389980316,-3.7747671604156494
1403638520797829500,-0.006101888604462147,0.021895810961723328,0.08094954490661621,8.856184959411621,-0.0499139279127121,-3.741793394088745
1403638520802829500,-0.003578406758606434,0.016946926712989807,0.08368314057588577,8.953357696533203,-0.05875496193766594,-3.741816520690918
1403638520807829500,-0.005354505963623524,0.02328971028327942,0.08092261850833893,8.99431324005127,-0.025390293449163437,-3.799013376235962
1403638520812829500,-0.004453045316040516,0.019933432340621948,0.07880726456642151,9.018875122070312,-0.03384346514940262,-3.807241678237915
1403638520817829500,-0.006549370475113392,0.02119062840938568,0.07525002211332321,9.10796070098877,-0.02644960582256317,-3.815757989883423
1403638520822829500,-0.0032157720997929573,0.016937658190727234,0.08302745968103409,8.96153736114502,-0.04104573279619217,-3.7741971015930176
1403638520827829500,-0.003734809346497059,0.024059057235717773,0.07821374386548996,8.994364738464355,-0.009640809148550034,-3.774966239929199
1403638520832829500,-0.00385208148509264,0.025513574481010437,0.07522197812795639,8.953181266784668,-0.0021730565931648016,-3.7747955322265625
1403638520837829500,-0.006572914309799671,0.01984807848930359,0.07528439909219742,8.98658275604248,0.015092525631189346,-3.7668769359588623
1403638520842829500,-0.006646645255386829,0.014111265540122986,0.07464403659105301,9.002250671386719,-0.009568377397954464,-3.7749743461608887
1403638520847829500,-0.007178765721619129,0.020507171750068665,0.07392139732837677,9.075579643249512,0.014045773074030876,-3.7750189304351807
1403638520852829500,-0.005908471532166004,0.023412376642227173,0.07330069690942764,8.978129386901855,-0.08184456825256348,-3.7500171661376953
1403638520857829500,-0.003165734000504017,0.028201550245285034,0.0739247128367424,9.018428802490234,-0.06610354781150818,-3.807439088821411
1403638520862829500,-0.0017919959500432014,0.03020186722278595,0.07932998239994049,8.863862037658691,-0.025850877165794373,-3.7417402267456055
1403638520867829500,-0.0016882242634892464,0.024038955569267273,0.07603650540113449,8.986577033996582,-0.025840362533926964,-3.7751832008361816
1403638520872829500,-0.005263936705887318,0.023346200585365295,0.07333846390247345,8.871939659118652,-0.009064569137990475,-3.741969585418701
1403638520877829500,-0.005072695203125477,0.020584121346473694,0.07320971041917801,9.034857749938965,0.06357873976230621,-3.83188533782959
1403638520882829500,-0.0025039734318852425,0.02251458168029785,0.0738537609577179,8.953312873840332,-0.0417461022734642,-3.8148179054260254
1403638520887829500,-0.0036451341584324837,0.02539965510368347,0.0753990113735199,9.083524703979492,-0.017504598945379257,-3.8078320026397705
1403638520892829500,-0.003915590234100819,0.027612552046775818,0.07947048544883728,8.953864097595215,-0.0580957755446434,-3.7744784355163574
1403638520897829500,-0.004382443614304066,0.023345261812210083,0.07734912633895874,9.027372360229492,-0.05843661352992058,-3.78302264213562
1403638520902829500,-0.0025599421933293343,0.021159306168556213,0.07601149380207062,8.85593318939209,-0.057736244052648544,-3.7663381099700928
1403638520907829500,-0.004405689425766468,0.01566256582736969,0.07599294185638428,9.051375389099121,-0.0010086022084578872,-3.7834701538085938
1403638520912829500,-0.0031761648133397102,0.020545199513435364,0.07547322660684586,9.00187873840332,-0.025626571848988533,-3.7828118801116943
1403638520917829500,-0.0037704529240727425,0.02332375943660736,0.07195686548948288,9.083775520324707,-0.009476086124777794,-3.824068546295166
1403638520922829500,-0.005118262954056263,0.02531774342060089,0.07581233233213425,9.027120590209961,-0.009806117042899132,-3.7666776180267334
1403638520927829500,-0.005253237672150135,0.023278355598449707,0.0759739950299263,9.067740440368652,-0.01015834417194128,-3.783440113067627
1403638520932829500,-0.005082917399704456,0.02614559233188629,0.07599828392267227,9.019074440002441,-0.07484644651412964,-3.742233991622925
1403638520937829500,-0.0073219360783696175,0.015708327293395996,0.07524991035461426,9.116453170776367,-0.01820584200322628,-3.7590396404266357
1403638520942829500,-0.0045629264786839485,0.021195992827415466,0.07609494030475616,9.0103759765625,-0.05857913941144943,-3.7989284992218018
1403638520947829500,-0.004424643702805042,0.01905927062034607,0.07881186902523041,9.026611328125,-0.02522965893149376,-3.7663960456848145
1403638520952829500,-0.00112153310328722,0.02741372585296631,0.08010213822126389,9.067224502563477,-0.0016981624066829681,-3.7670083045959473
1403638520957829500,0.001149284653365612,0.02265264093875885,0.08367782831192017,9.01047420501709,0.014233569614589214,-3.798919677734375
1403638520962829500,-0.0004786672070622444,0.019171953201293945,0.07947993278503418,8.994253158569336,0.015298429876565933,-3.7584517002105713
1403638520967829500,-0.00022528786212205887,0.01837317645549774,0.08215926587581635,8.985880851745605,-0.009922942146658897,-3.766573667526245
1403638520972829500,-0.006571543402969837,0.02062337100505829,0.07611723989248276,9.002734184265137,-0.010544451884925365,-3.7503342628479004
1403638520977829500,-0.005276215262711048,0.022614270448684692,0.07888265699148178,8.952996253967285,-0.02482047863304615,-3.7583553791046143
1403638520982829500,-0.0050571383908391,0.022509664297103882,0.07740122079849243,9.002291679382324,-0.033938679844141006,-3.799208164215088
1403638520987829500,-0.0053099216893315315,0.021802544593811035,0.07740378379821777,9.002333641052246,-0.08277565985918045,-3.7584517002105713
1403638520992829500,-0.005207550711929798,0.02402658760547638,0.07322435081005096,9.035161972045898,-0.049266133457422256,-3.775278091430664
1403638520997829500,-0.0023499252274632454,0.022726714611053467,0.07525991648435593,8.93774127960205,-0.041999027132987976,-3.774472951889038
1403638521002829500,-0.004623067565262318,0.022683903574943542,0.07193863391876221,9.043373107910156,0.006010250188410282,-3.7915687561035156
1403638521007829500,-0.007849288173019886,0.024601101875305176,0.07534325867891312,8.896234512329102,-0.02524367906153202,-3.733839988708496
1403638521012829500,-0.010185074992477894,0.02265450358390808,0.07596763223409653,9.026639938354492,0.014604196883738041,-3.8155956268310547
1403638521017829500,-0.007279020734131336,0.02396005392074585,0.07668524980545044,8.928832054138184,-0.10705425590276718,-3.7822213172912598
1403638521022829500,-0.007193935103714466,0.023242264986038208,0.07530002295970917,9.010696411132812,-0.09012133628129959,-3.7915544509887695
1403638521027829500,-0.006137472577393055,0.024017274379730225,0.07732487469911575,8.9373779296875,-0.0985499694943428,-3.758443593978882
1403638521032829500,-0.005722624249756336,0.02058793604373932,0.07961037755012512,9.03515338897705,-0.0912121906876564,-3.774845838546753
1403638521037829500,-0.0012678029015660286,0.019171223044395447,0.07818298786878586,8.90475845336914,-0.08999603986740112,-3.7907111644744873
1403638521042829500,0.00116043072193861,0.019799426198005676,0.07667958736419678,9.083632469177246,0.02282722480595112,-3.840100049972534
1403638521047829500,-0.00035504717379808426,0.019766882061958313,0.08018939197063446,8.936752319335938,-0.03407244384288788,-3.8390369415283203
1403638521052829500,0.00040288548916578293,0.024690985679626465,0.084329754114151,9.099600791931152,0.022633586078882217,-3.8318846225738525
1403638521057829500,-0.005139571614563465,0.026786774396896362,0.07950890064239502,8.977863311767578,-0.009903665632009506,-3.790409564971924
1403638521062829500,-0.0037744762375950813,0.019813820719718933,0.08229047805070877,9.099998474121094,-0.01021617278456688,-3.8236849308013916
1403638521067829500,-0.005737972445785999,0.021178603172302246,0.07669071108102798,9.034835815429688,-0.01005144976079464,-3.783066987991333
1403638521072829500,-0.005267453379929066,0.014960110187530518,0.07808558642864227,9.010977745056152,-0.02557400055229664,-3.758411169052124
1403638521077829500,-0.00456653255969286,0.019865021109580994,0.0753730982542038,9.083982467651367,-0.017765995115041733,-3.758814573287964
1403638521082829500,-0.004408103413879871,0.016351178288459778,0.07742467522621155,9.108409881591797,-0.03393254429101944,-3.7669599056243896
1403638521087829500,-0.0025025727227330208,0.023302823305130005,0.07663891464471817,9.124555587768555,-0.0017679653828963637,-3.799306869506836
1403638521092829500,-0.004960698075592518,0.022615566849708557,0.07726133614778519,9.018726348876953,-0.01004122756421566,-3.782885789871216
1403638521097829500,-0.006775868125259876,0.02401861548423767,0.076021708548069,8.994428634643555,0.014433924108743668,-3.758652925491333
1403638521102829500,-0.007185590453445911,0.019111230969429016,0.07741010189056396,9.018421173095703,0.07094719260931015,-3.734328269958496
1403638521107829500,-0.009295028634369373,0.023237884044647217,0.07595950365066528,8.986383438110352,0.014425454661250114,-3.7423348426818848
1403638521112829500,-0.012295198626816273,0.01491352915763855,0.08493981510400772,9.050945281982422,-0.057510774582624435,-3.758275270462036
1403638521117829500,-0.01737673208117485,0.02184230089187622,0.087778739631176,9.197941780090332,-0.05854525789618492,-3.7993273735046387
1403638521122829500,-0.019345562905073166,0.025247305631637573,0.09189434349536896,8.953999519348145,-0.2527775168418884,-3.7255325317382812
1403638521127829500,-0.013428819365799427,0.022515669465065002,0.09828322380781174,8.839899063110352,-0.2922474443912506,-3.6924548149108887
1403638521132829500,0.0022731004282832146,0.02305188775062561,0.11430221050977707,8.920886993408203,-0.26944729685783386,-3.764556646347046
1403638521137829500,0.016364146023988724,0.030772849917411804,0.11381839960813522,9.197124481201172,-0.10021297633647919,-3.8797154426574707
1403638521142829500,0.017840314656496048,0.03572148084640503,0.09501819312572479,9.1399507522583,0.04712684452533722,-3.896385669708252
1403638521147829500,0.008575069718062878,0.035182297229766846,0.07126195728778839,9.002593040466309,0.17625188827514648,-3.832183837890625
1403638521152829500,-0.0016121985390782356,0.026832222938537598,0.06777751445770264,8.59488582611084,0.20205329358577728,-3.7659997940063477
1403638521157829500,-0.003857952542603016,0.01362009346485138,0.08099034428596497,8.780889511108398,0.27548080682754517,-3.8234047889709473
1403638521162829500,-0.007254851050674915,0.012959450483322144,0.09687913954257965,8.812968254089355,0.2913844883441925,-3.806784152984619
1403638521167829500,-0.014280241914093494,0.01171816885471344,0.08005630224943161,9.0348482131958,0.25902509689331055,-3.8083713054656982
1403638521172829500,-0.02539987489581108,0.008779004216194153,0.05469513311982155,9.027543067932129,-0.031662050634622574,-3.767763376235962
1403638521177829500,-0.02387477084994316,0.007992282509803772,0.03767596557736397,9.17446231842041,-0.1780196726322174,-3.768084764480591
1403638521182829500,-0.010077995248138905,0.018363654613494873,0.044582806527614594,9.027308464050293,-0.23590679466724396,-3.7754018306732178
1403638521187829500,0.0031006811186671257,0.025452330708503723,0.0557352639734745,8.986050605773926,-0.025375690311193466,-3.7597837448120117
1403638521192829500,-0.0012754322960972786,0.02608446776866913,0.056286390870809555,8.896872520446777,-0.042373742908239365,-3.7674810886383057
1403638521197829500,-0.008040708489716053,0.023884743452072144,0.05147868022322655,9.051816940307617,0.0049161831848323345,-3.8329052925109863
1403638521202829500,-0.012057793326675892,0.02889581024646759,0.05378003045916557,8.905681610107422,-0.05055617541074753,-3.7749454975128174
1403638521207829500,-0.009944838471710682,0.024849683046340942,0.06648052483797073,8.978547096252441,-0.11535321921110153,-3.791104555130005
1403638521212829500,-0.011424106545746326,0.021911635994911194,0.07736759632825851,8.830748558044434,-0.16482719779014587,-3.733444929122925
1403638521217829500,-0.01304445881396532,0.016258910298347473,0.08857078105211258,8.985583305358887,-0.13848021626472473,-3.7664122581481934
1403638521222829500,-0.01345400232821703,0.018431812524795532,0.09135372191667557,9.052163124084473,-0.13074639439582825,-3.742095470428467
1403638521227829500,-0.0017480673268437386,0.012944996356964111,0.09021245688199997,9.076752662658691,-0.10586117953062057,-3.68584942817688
1403638521232829500,0.001246112398803234,0.014237016439437866,0.07900611311197281,9.076107025146484,-0.13654470443725586,-3.7347519397735596
1403638521237829500,0.007196950726211071,0.014699935913085938,0.0682421550154686,9.23816204071045,-0.1466556340456009,-3.759542226791382
1403638521242829500,0.009408163838088512,0.025299444794654846,0.06382569670677185,9.246159553527832,0.01285474095493555,-3.784165143966675
1403638521247829500,0.008649873547255993,0.031144723296165466,0.07447182387113571,9.018420219421387,0.18288609385490417,-3.750455617904663
1403638521252829500,-0.001466137357056141,0.03105369210243225,0.07511750608682632,8.929342269897461,0.32845571637153625,-3.7342638969421387
1403638521257829500,-0.006612730212509632,0.020387813448905945,0.08264532685279846,9.08377456665039,0.19932454824447632,-3.758575916290283
1403638521262829500,-0.014928680844604969,0.0246875137090683,0.07371191680431366,9.141510009765625,0.07083971053361893,-3.75890851020813
1403638521267829500,-0.01982240006327629,0.019984081387519836,0.06904050707817078,9.09976577758789,-0.06660706549882889,-3.750532388687134
1403638521272829500,-0.015556645579636097,0.02614089846611023,0.06175652891397476,9.083374977111816,-0.16421765089035034,-3.7826645374298096
1403638521277829500,-0.0065413834527134895,0.0253017395734787,0.06246812269091606,8.945602416992188,-0.19662553071975708,-3.774482250213623
1403638521282829500,0.0011973259970545769,0.027532607316970825,0.06295612454414368,8.995084762573242,-0.10744766145944595,-3.832303047180176
1403638521287829500,0.002899634651839733,0.023461192846298218,0.0653020590543747,8.881375312805176,-0.08189217001199722,-3.8234987258911133
1403638521292829500,0.0033579347655177116,0.027581647038459778,0.06597919017076492,9.002238273620605,0.030365364626049995,-3.8241591453552246
1403638521297829500,-0.0024047913029789925,0.023979023098945618,0.06903719902038574,8.846905708312988,0.014293733984231949,-3.7743594646453857
1403638521302829500,-0.00928510446101427,0.01848369836807251,0.06715678423643112,8.86383056640625,0.007090882398188114,-3.7750377655029297
1403638521307829500,-0.007503789849579334,0.012916088104248047,0.07131340354681015,8.855613708496094,-0.11512979120016098,-3.7666175365448
1403638521312829500,-0.005777639336884022,0.012914106249809265,0.07337432354688644,8.92969799041748,-0.13110503554344177,-3.7505435943603516
1403638521317829500,-0.0075325192883610725,0.00940030813217163,0.07723111659288406,8.962064743041992,-0.16188786923885345,-3.7508432865142822
1403638521322829500,-0.005088371224701405,0.018407538533210754,0.08007864654064178,9.141707420349121,-0.1299017369747162,-3.7755374908447266
1403638521327829500,0.0003548441454768181,0.02251720428466797,0.08644920587539673,8.938216209411621,-0.15353575348854065,-3.7094924449920654
1403638521332829500,0.0003687916323542595,0.021150201559066772,0.08311858773231506,9.066865921020508,-0.056968994438648224,-3.7508695125579834
1403638521337829500,-0.00032399315387010574,0.029950886964797974,0.08309948444366455,8.993278503417969,-0.11524836719036102,-3.7904248237609863
1403638521342829500,-0.00522122997790575,0.03078882396221161,0.08374261111021042,8.985974311828613,-0.05119695886969566,-3.8316192626953125
1403638521347829500,-0.005122345872223377,0.02882257103919983,0.09611678868532181,8.871598243713379,-0.027889475226402283,-3.7976865768432617
1403638521352829500,-0.0038441242650151253,0.02397264540195465,0.10241594165563583,8.904047012329102,-0.05141688138246536,-3.8379907608032227
1403638521357829500,-0.0046024443581700325,0.021226152777671814,0.096897654235363,8.920196533203125,-0.10806216299533844,-3.7733848094940186
1403638521362829500,0.0003039417788386345,0.015060722827911377,0.09484750032424927,8.985161781311035,-0.026482608169317245,-3.806455373764038
1403638521367829500,-0.002496493048965931,0.015640512108802795,0.09628207236528397,8.968934059143066,-0.04124871641397476,-3.8142597675323486
1403638521372829500,0.0016906438395380974,0.012121051549911499,0.09583091735839844,9.074968338012695,-0.050269659608602524,-3.8144078254699707
1403638521377829500,0.003383326344192028,0.01901601254940033,0.09433531016111374,9.067215919494629,0.030103091150522232,-3.790362596511841
1403638521382829500,0.0031404970213770866,0.014212846755981445,0.09056556224822998,9.010643005371094,0.08806499093770981,-3.7582786083221436
1403638521387829500,-0.0009677829220890999,0.019010871648788452,0.0869133323431015,9.083698272705078,0.046516142785549164,-3.766611099243164
1403638521392829500,-0.0015275897458195686,0.015591248869895935,0.08013831824064255,9.075251579284668,0.0707888975739479,-3.7668967247009277
1403638521397829500,-0.003859204240143299,0.021219655871391296,0.07682132720947266,9.132888793945312,0.11160612851381302,-3.742938280105591
1403638521402829500,-0.00915799755603075,0.018474102020263672,0.07964102923870087,9.027164459228516,0.04715605080127716,-3.7263741493225098
1403638521407829500,-0.014400643296539783,0.024104461073875427,0.07172299921512604,9.117389678955078,0.07966263592243195,-3.7836029529571533
1403638521412829500,-0.010825109668076038,0.02671027183532715,0.07575679570436478,8.986821174621582,-0.09775059670209885,-3.733829975128174
1403638521417829500,-0.013351929374039173,0.01980157196521759,0.07184690982103348,8.994644165039062,-0.17875157296657562,-3.759016990661621
1403638521422829500,-0.005522293038666248,0.01982913911342621,0.07598702609539032,8.962202072143555,-0.17129550874233246,-3.7583277225494385
1403638521427829500,-0.005566787905991077,0.019804686307907104,0.07321065664291382,9.035584449768066,-0.026189962401986122,-3.799969434738159
1403638521432829500,-0.00686232466250658,0.017042532563209534,0.07528727501630783,8.961483001708984,-0.017022112384438515,-3.7995998859405518
1403638521437829500,-0.006420028395950794,0.022680699825286865,0.07523873448371887,9.13294506072998,0.014685682952404022,-3.8485054969787598
1403638521442829500,-0.008011740632355213,0.026708394289016724,0.07866121083498001,8.945613861083984,-0.13120463490486145,-3.7824175357818604
1403638521447829500,-0.003198009915649891,0.023990169167518616,0.0822204202413559,8.985917091369629,-0.13841158151626587,-3.750515937805176
1403638521452829500,-0.00030092615634202957,0.021228328347206116,0.07952903211116791,8.937129020690918,-0.0744369775056839,-3.7661497592926025
1403638521457829500,0.0007956204935908318,0.01844725012779236,0.07734374701976776,9.018826484680176,-0.01037301030009985,-3.742723226547241
1403638521462829500,-0.00027759093791246414,0.012853741645812988,0.08015473932027817,8.872325897216797,-0.056909121572971344,-3.6937851905822754
1403638521467829500,-0.0043960632756352425,0.008698269724845886,0.08243376761674881,9.067709922790527,-0.08928632736206055,-3.7749874591827393
1403638521472829500,-0.006758970208466053,0.0217868834733963,0.09059838950634003,8.961639404296875,-0.13127940893173218,-3.7658088207244873
1403638521477829500,-0.0026716412976384163,0.0260249525308609,0.09132075309753418,9.132617950439453,-0.06671279668807983,-3.815542221069336
1403638521482829500,3.8164667785167694e-05,0.03154444694519043,0.09680025279521942,9.018534660339355,-0.14745822548866272,-3.781832218170166
1403638521487829500,-0.0028575779870152473,0.03288568556308746,0.09823599457740784,8.977523803710938,-0.036472029983997345,-3.7986297607421875
1403638521492829500,-0.0046568335965275764,0.028048023581504822,0.10254769772291183,8.78948974609375,-0.010531893000006676,-3.7488770484924316
1403638521497829500,-0.0010571004822850227,0.027372270822525024,0.11022337526082993,8.919211387634277,0.11301591247320175,-3.9032793045043945
1403638521502829500,-0.007721823640167713,0.030885979533195496,0.10454951226711273,8.87038803100586,0.18430376052856445,-3.87900710105896
1403638521507829500,-0.015109610743820667,0.019898921251296997,0.09746566414833069,8.919415473937988,0.2180565744638443,-3.8718199729919434
1403638521512829500,-0.02522144839167595,0.01638983190059662,0.0898887887597084,8.871774673461914,0.1701752245426178,-3.7985048294067383
1403638521517829500,-0.0261465422809124,0.006659284234046936,0.08932528644800186,8.872111320495605,-0.0007866345695219934,-3.749840259552002
1403638521522829500,-0.032192181795835495,0.0031623393297195435,0.09905864298343658,8.977810859680176,-0.17856991291046143,-3.7089972496032715
1403638521527829500,-0.02270696684718132,0.0007971674203872681,0.10672778636217117,9.149418830871582,-0.3327331840991974,-3.7177114486694336
1403638521532829500,-0.011509818024933338,0.013087183237075806,0.1121436282992363,9.166091918945312,-0.4160343110561371,-3.7100491523742676
1403638521537829500,0.00022168736904859543,0.018693998456001282,0.11701633781194687,9.165872573852539,-0.35072600841522217,-3.701460123062134
1403638521542829500,0.007098454050719738,0.034646496176719666,0.12753373384475708,9.133641242980957,-0.30233296751976013,-3.740894317626953
1403638521547829500,0.017095346003770828,0.03884191811084747,0.13338994979858398,8.993363380432129,-0.14926287531852722,-3.740443706512451
1403638521552829500,0.015036034397780895,0.03836672008037567,0.13526684045791626,9.057311058044434,0.10230246931314468,-3.814016103744507
1403638521557829500,0.007393735460937023,0.03917427361011505,0.12668487429618835,8.984528541564941,0.13535580039024353,-3.886136054992676
1403638521562829500,-0.0014090361073613167,0.03786197304725647,0.11555621027946472,8.943831443786621,0.1762218028306961,-3.9031262397766113
1403638521567829500,-0.001698625274002552,0.028197631239891052,0.10867779701948166,8.780694961547852,0.20221100747585297,-3.8538897037506104
1403638521572829500,-0.0041900696232914925,0.019909530878067017,0.09431096166372299,8.887234687805176,0.28425902128219604,-3.8796660900115967
1403638521577829500,-0.008321178145706654,0.01154276728630066,0.0783839300274849,8.765185356140137,0.19686129689216614,-3.831709861755371
1403638521582829500,-0.007061106152832508,0.008997663855552673,0.05858030915260315,9.035174369812012,0.17945259809494019,-3.8576650619506836
1403638521587829500,-0.009451163001358509,0.008951932191848755,0.03974810987710953,9.117666244506836,0.14679034054279327,-3.824977397918701
1403638521592829500,-0.007259351201355457,0.012216910719871521,0.019667962566018105,9.14307975769043,0.275577187538147,-3.736902952194214
1403638521597829500,-0.010795933194458485,0.010779321193695068,0.010498831048607826,8.979873657226562,0.27437591552734375,-3.663264751434326
1403638521602829500,-0.014932614751160145,0.012197092175483704,-1.126294955611229e-05,9.167354583740234,0.19286207854747772,-3.6794729232788086
1403638521607829500,-0.022613923996686935,0.020484477281570435,-0.0002573723904788494,9.093079566955566,0.038166943937540054,-3.7283713817596436
1403638521612829500,-0.02450401708483696,0.03034968674182892,0.005868871230632067,9.158355712890625,-0.042722757905721664,-3.7772936820983887
1403638521617829500,-0.014909219928085804,0.034534990787506104,0.016483306884765625,8.987701416015625,-0.27750617265701294,-3.792227268218994
1403638521622829500,-0.006350857205688953,0.035862475633621216,0.027731547132134438,8.954866409301758,-0.34168344736099243,-3.7843074798583984
1403638521627829500,-0.0012738527730107307,0.03379899263381958,0.04017278179526329,8.791730880737305,-0.3975939154624939,-3.766425132751465
1403638521632829500,0.002635437063872814,0.025436431169509888,0.052231889218091965,8.888965606689453,-0.3086213767528534,-3.839724540710449
1403638521637829500,0.007482695393264294,0.024673447012901306,0.06554165482521057,8.7584867477417,-0.30746129155158997,-3.863499402999878
1403638521642829500,0.01299245934933424,0.019238531589508057,0.07950321584939957,8.904844284057617,-0.18664778769016266,-3.937227964401245
1403638521647829500,0.011064368300139904,0.024017751216888428,0.09211479872465134,8.790604591369629,-0.1556704342365265,-3.870927095413208
1403638521652829500,0.009842443279922009,0.01157677173614502,0.09211944788694382,8.813942909240723,0.007302335929125547,-3.8231379985809326
1403638521657829500,0.0006422577425837517,0.010105058550834656,0.08644893020391464,9.03345775604248,0.030386101454496384,-3.823347330093384
1403638521662829500,-0.00046254415065050125,0.014139145612716675,0.08662880212068558,9.131915092468262,0.005105731543153524,-3.7827792167663574
1403638521667829500,-0.0037013711407780647,0.014964655041694641,0.08051891624927521,8.96967887878418,0.014550749212503433,-3.7424001693725586
1403638521672829500,-0.0031534554436802864,0.006589427590370178,0.07904665917158127,9.108752250671387,-0.05007573217153549,-3.7178521156311035
1403638521677829500,-0.004590791650116444,0.018913686275482178,0.07614759355783463,9.239463806152344,0.012574944645166397,-3.7666449546813965
1403638521682829500,-0.010565889067947865,0.02039515972137451,0.0794672816991806,9.164861679077148,0.0449024960398674,-3.669224739074707
1403638521687829500,-0.014893424697220325,0.024020999670028687,0.07882701605558395,9.205796241760254,-0.05282783880829811,-3.733931064605713
1403638521692829500,-0.007790517993271351,0.03572745621204376,0.08588733524084091,9.124957084655762,-0.11066649109125137,-3.7167980670928955
1403638521697829500,-0.008734476752579212,0.03636893630027771,0.09086698293685913,8.977853775024414,-0.16690580546855927,-3.6925997734069824
1403638521702829500,-0.0040500583127141,0.030852407217025757,0.09284413605928421,8.896005630493164,-0.19139496982097626,-3.7244629859924316
1403638521707829500,0.0011931238695979118,0.027439221739768982,0.09826581180095673,9.034703254699707,-0.16691572964191437,-3.814199447631836
1403638521712829500,0.0036186454817652702,0.023803144693374634,0.11088301986455917,8.960200309753418,-0.15656094253063202,-3.8217647075653076
1403638521717829500,0.009670454077422619,0.025990337133407593,0.11651625484228134,8.99255084991455,-0.051106713712215424,-3.8220055103302
1403638521722829500,0.007871407084167004,0.01921480894088745,0.11708394438028336,8.903385162353516,0.02285672165453434,-3.805560350418091
1403638521727829500,0.004000264219939709,0.01777447760105133,0.10669337213039398,9.074219703674316,0.18610608577728271,-3.7994742393493652
1403638521732829500,-0.0015741707757115364,0.017635419964790344,0.1010683998465538,8.968469619750977,0.2590940296649933,-3.7343034744262695
1403638521737829500,-0.007915359921753407,0.015598520636558533,0.08860352635383606,9.16481876373291,0.2828267514705658,-3.80011248588562
1403638521742829500,-0.01408116240054369,0.015569701790809631,0.07609865069389343,9.124513626098633,0.2760888636112213,-3.775911569595337
1403638521747829500,-0.018990259617567062,0.021167218685150146,0.05657688155770302,9.240605354309082,0.2432563453912735,-3.78479266166687
1403638521752829500,-0.025025945156812668,0.02322499454021454,0.04858686029911041,9.052651405334473,0.09817270189523697,-3.751970052719116
1403638521757829500,-0.02586836740374565,0.020600512623786926,0.032072488218545914,9.166426658630371,-0.023707136511802673,-3.777308225631714
1403638521762829500,-0.022140365093946457,0.02969825267791748,0.03699195012450218,8.979659080505371,-0.16295653581619263,-3.7354841232299805
1403638521767829500,-0.01511357445269823,0.022661417722702026,0.04463520273566246,8.930435180664062,-0.18680258095264435,-3.7514986991882324
1403638521772829500,-0.008776378817856312,0.019912317395210266,0.05009124428033829,8.921477317810059,-0.2855341136455536,-3.7347917556762695
1403638521777829500,-0.0034145237877964973,0.021313339471817017,0.05764716863632202,9.027765274047852,-0.26229262351989746,-3.775571823120117
1403638521782829500,0.001748788170516491,0.02390989661216736,0.06600439548492432,8.937325477600098,-0.25330761075019836,-3.734569787979126
1403638521787829500,0.005922961048781872,0.018404871225357056,0.07192029803991318,9.018020629882812,-0.22989030182361603,-3.8163347244262695
1403638521792829500,0.01149760466068983,0.02955298125743866,0.07605191320180893,8.969647407531738,-0.15652501583099365,-3.831256628036499
1403638521797829500,0.01643078401684761,0.02956913411617279,0.07740949094295502,8.977300643920898,-0.01704401709139347,-3.864266872406006
1403638521802829500,0.017817039042711258,0.029689937829971313,0.07668310403823853,8.919981002807617,0.12093928456306458,-3.8157448768615723
1403638521807829500,0.013657557778060436,0.019905775785446167,0.07656612247228622,8.920178413391113,0.17054936289787292,-3.791008472442627
1403638521812829500,0.006820308975875378,0.01840244233608246,0.07726844400167465,8.976829528808594,0.23573105037212372,-3.791475296020508
1403638521817829500,-0.001551312394440174,0.014299049973487854,0.07894101738929749,8.98534870147705,0.19515769183635712,-3.7750768661499023
1403638521822829500,-0.007164371199905872,0.014375805854797363,0.07738582789897919,9.002531051635742,0.06477327644824982,-3.7748937606811523
1403638521827829500,-0.007935238070786,0.011477768421173096,0.07809201627969742,9.027117729187012,-0.06602878123521805,-3.750094175338745
1403638521832829500,-0.0037738801911473274,0.017692118883132935,0.0810333713889122,9.133132934570312,-0.05078982561826706,-3.7749199867248535
1403638521837829500,-0.005222511477768421,0.01699434220790863,0.08374255150556564,8.994211196899414,-0.07612130045890808,-3.741516590118408
1403638521842829500,-0.0046138884499669075,0.021878495812416077,0.08581026643514633,9.107787132263184,-0.05205065757036209,-3.733696699142456
1403638521847829500,-0.007266205735504627,0.02381683886051178,0.09272735565900803,9.018226623535156,-0.08403971046209335,-3.7496817111968994
1403638521852829500,-0.007950914092361927,0.026554346084594727,0.08715640753507614,9.140386581420898,-0.06855833530426025,-3.8071324825286865
1403638521857829500,-0.003073078580200672,0.034972429275512695,0.09064166247844696,9.017849922180176,-0.1411651372909546,-3.8060295581817627
1403638521862829500,0.0045539615675807,0.032419800758361816,0.08944258838891983,8.986466407775879,-0.2052667886018753,-3.806262731552124
1403638521867829500,0.010105776600539684,0.026671841740608215,0.08604343235492706,8.872143745422363,-0.3018011152744293,-3.7974278926849365
1403638521872829500,0.0136595843359828,0.02881847321987152,0.08456172049045563,8.961400032043457,-0.2125733196735382,-3.814357042312622
1403638521877829500,0.021832305938005447,0.018602505326271057,0.09012358635663986,8.750468254089355,-0.23514392971992493,-3.74047589302063
1403638521882829500,0.019295144826173782,0.007317468523979187,0.09439686685800552,8.96180534362793,-0.21843940019607544,-3.75015926361084
1403638521887829500,0.01908944919705391,0.009896263480186462,0.09500711411237717,8.929305076599121,-0.19510826468467712,-3.7092080116271973
1403638521892829500,0.02112804725766182,0.008611023426055908,0.09702053666114807,9.108756065368652,-0.16370275616645813,-3.6857235431671143
1403638521897829500,0.02338983491063118,0.013461440801620483,0.10330920666456223,9.07563591003418,-0.18049490451812744,-3.6204710006713867
1403638521902829500,0.026608068495988846,0.020406901836395264,0.1032632440328598,9.157400131225586,-0.10024510324001312,-3.6291425228118896
1403638521907829500,0.02960624173283577,0.023138344287872314,0.1031695231795311,9.091050148010254,0.028535006567835808,-3.6368136405944824
1403638521912829500,0.02263050153851509,0.02458570897579193,0.09489002078771591,9.164167404174805,0.1911330670118332,-3.7025961875915527
1403638521917829500,0.009515929035842419,0.029584258794784546,0.08556606620550156,9.018316268920898,0.33834001421928406,-3.6861934661865234
1403638521922829500,0.005883681587874889,0.01985028386116028,0.07035886496305466,9.091814994812012,0.32242724299430847,-3.6786675453186035
1403638521927829500,0.0005232570692896843,0.023323431611061096,0.05872183293104172,9.132665634155273,0.20913173258304596,-3.718827486038208
1403638521932829500,-0.0022339941933751106,0.015836164355278015,0.037211254239082336,9.280290603637695,-0.01689068414270878,-3.6953344345092773
1403638521937829500,0.008566307835280895,0.019301652908325195,0.01900923065841198,9.548568725585938,-0.2778032124042511,-3.688340425491333
1403638521942829500,0.028597433120012283,0.042104557156562805,0.00865495391190052,9.686540603637695,-0.4417310357093811,-3.688669204711914
1403638521947829500,0.046424705535173416,0.07689939439296722,0.0024255425669252872,9.433314323425293,-0.3602101802825928,-3.678985357284546
1403638521952829500,0.059655386954545975,0.1013343334197998,0.012003593146800995,9.203527450561523,-0.18892265856266022,-3.677554130554199
1403638521957829500,0.06227617338299751,0.11183112859725952,0.03477509692311287,8.747610092163086,-0.1547224074602127,-3.5701375007629395
1403638521962829500,0.0622737891972065,0.08388614654541016,0.055668171495199203,8.487517356872559,-0.2025301605463028,-3.4484519958496094
1403638521967829500,0.06507003307342529,0.054809555411338806,0.06201762706041336,8.488510131835938,-0.30064162611961365,-3.5138626098632812
1403638521972829500,0.06796051561832428,0.03018556535243988,0.05876939743757248,8.54031753540039,-0.38141101598739624,-3.595567464828491
1403638521977829500,0.07566709816455841,0.006148576736450195,0.04936594143509865,8.330931663513184,-0.4541977345943451,-3.434030771255493
1403638521982829500,0.08388538658618927,-0.0342472642660141,0.034922488033771515,8.658137321472168,-0.6827216744422913,-3.574328899383545
1403638521987829500,0.09252561628818512,-0.027636364102363586,0.03344418853521347,9.006975173950195,-0.5438738465309143,-3.7615954875946045
1403638521992829500,0.10479553043842316,-0.021570980548858643,0.06598358601331711,8.564804077148438,-0.216387078166008,-3.5171802043914795
1403638521997829500,0.09998209774494171,-0.031376615166664124,0.08113399147987366,8.749211311340332,0.09871914982795715,-3.778993606567383
1403638522002829500,0.08253000676631927,-0.03555120527744293,0.08557086437940598,8.853879928588867,0.4210183024406433,-3.7860777378082275
1403638522007829500,0.059432823210954666,-0.04557415843009949,0.0801301896572113,9.318012237548828,0.5014222860336304,-4.169259548187256
1403638522012829500,0.02804439142346382,-0.052864864468574524,0.06572127342224121,9.342717170715332,0.6210052967071533,-4.2496819496154785
1403638522017829500,0.006231146864593029,-0.05693754553794861,0.052511222660541534,10.01362419128418,0.5732174515724182,-4.46828031539917
1403638522022829500,-0.0011167647317051888,-0.041544243693351746,0.03450009971857071,9.85843276977539,0.2495868057012558,-4.189975261688232
1403638522027829500,-0.005067330785095692,-0.044658854603767395,0.00985756516456604,9.72934627532959,0.11201034486293793,-4.174683570861816
1403638522032829500,-0.012736153788864613,-0.043176501989364624,-0.00754436245188117,9.395415306091309,0.024166040122509003,-4.003943920135498
1403638522037829500,-0.022109191864728928,-0.05534680187702179,-0.01044110395014286,9.39472770690918,0.13087671995162964,-4.096000671386719
1403638522042829500,-0.03297824785113335,-0.050247564911842346,0.001314625609666109,9.556192398071289,0.03972801938652992,-4.256924152374268
1403638522047829500,-0.036935191601514816,-0.046745315194129944,0.01459825411438942,9.597888946533203,-0.1641969233751297,-4.305387496948242
1403638522052829500,-0.03674508258700371,-0.04424011707305908,0.02934996969997883,9.322352409362793,-0.32022619247436523,-4.223598957061768
1403638522057829500,-0.022638212889432907,-0.06276848912239075,0.041379448026418686,9.412081718444824,-0.4034480154514313,-4.214499473571777
1403638522062829500,-0.008141857571899891,-0.08306504786014557,0.04009955748915672,9.461125373840332,-0.3543969690799713,-4.238922595977783
1403638522067829500,0.001212763600051403,-0.10736149549484253,0.03400598093867302,9.597936630249023,-0.18201741576194763,-4.224024772644043
1403638522072829500,0.004263448528945446,-0.11274561285972595,0.027931224554777145,9.75338363647461,-0.058298464864492416,-4.287992477416992
1403638522077829500,0.008527475409209728,-0.11886215209960938,0.025597233325242996,9.981280326843262,-0.07883632183074951,-4.376664161682129
1403638522082829500,0.01228551845997572,-0.10823789238929749,0.02278582938015461,10.224719047546387,-0.2431814968585968,-4.4664411544799805
1403638522087829500,0.02352898195385933,-0.10390526056289673,0.024935083463788033,10.113049507141113,-0.2445576936006546,-4.310237407684326
1403638522092829500,0.02854018285870552,-0.09818914532661438,0.028445180505514145,9.984286308288574,-0.3757596015930176,-4.248167991638184
1403638522097829500,0.04095809534192085,-0.09674420952796936,0.039682965725660324,9.877334594726562,-0.46182289719581604,-4.190879821777344
1403638522102829500,0.04813342168927193,-0.0901336818933487,0.05672759190201759,9.845293045043945,-0.4695701599121094,-4.091071605682373
1403638522107829500,0.061109352856874466,-0.0866696834564209,0.08557639271020889,9.836516380310059,-0.49395886063575745,-4.099867820739746
1403638522112829500,0.06438328325748444,-0.08386513590812683,0.10997269302606583,9.91545581817627,-0.34829840064048767,-4.1639909744262695
1403638522117829500,0.06977342069149017,-0.06937600672245026,0.13205979764461517,10.002870559692383,-0.19347503781318665,-4.177587032318115
1403638522122829500,0.07153891026973724,-0.050638362765312195,0.1391398012638092,10.101554870605469,-0.20400945842266083,-4.15363883972168
1403638522127829500,0.07542566955089569,-0.035988181829452515,0.14486205577850342,10.184536933898926,-0.19672949612140656,-4.306927680969238
1403638522132829500,0.08096404373645782,-0.017186403274536133,0.14432504773139954,10.10360050201416,-0.17897208034992218,-4.19293212890625
1403638522137829500,0.08799661695957184,-0.005527287721633911,0.14434020221233368,9.946650505065918,-0.048430249094963074,-4.2248992919921875
1403638522142829500,0.08819742500782013,0.007630333304405212,0.13799169659614563,10.198493003845215,0.0500965416431427,-4.307206630706787
1403638522147829500,0.08848752081394196,0.02447548508644104,0.12945598363876343,9.98727798461914,0.0034418501891195774,-4.161151885986328
1403638522152829500,0.09643857181072235,0.039284929633140564,0.12803268432617188,10.019219398498535,0.11800726503133774,-4.220929145812988
1403638522157829500,0.10095040500164032,0.045668914914131165,0.1283632516860962,10.019733428955078,-0.011675610207021236,-4.228541374206543
1403638522162829500,0.09861104190349579,0.06447207927703857,0.12146193534135818,10.144583702087402,0.1735432893037796,-4.28774356842041
1403638522167829500,0.09733214974403381,0.0804593414068222,0.12737856805324554,10.05314826965332,0.2627132534980774,-4.246400833129883
1403638522172829500,0.09097114205360413,0.09762582182884216,0.12456252425909042,10.233319282531738,0.25577327609062195,-4.3031840324401855
1403638522177829500,0.08060255646705627,0.10931740701198578,0.12439026683568954,10.002674102783203,0.16750606894493103,-4.2125725746154785
1403638522182829500,0.08065082132816315,0.11899873614311218,0.12170599400997162,10.157979011535645,0.11015836894512177,-4.238679885864258
1403638522187829500,0.07833816111087799,0.13095521926879883,0.1251642256975174,10.060745239257812,0.06358049064874649,-4.181800842285156
1403638522192829500,0.0762857049703598,0.13532671332359314,0.11901813745498657,10.23336410522461,0.1515938937664032,-4.306172847747803
1403638522197829500,0.07559429109096527,0.1506127417087555,0.11744595319032669,10.273530960083008,0.11769884824752808,-4.248015403747559
1403638522202829500,0.0777072161436081,0.15550336241722107,0.1155632957816124,10.273841857910156,0.01476366352289915,-4.231902122497559
1403638522207829500,0.08058398962020874,0.16378208994865417,0.10113584250211716,10.255391120910645,-0.14862003922462463,-4.215236663818359
1403638522212829500,0.08931231498718262,0.1698422133922577,0.09804532676935196,10.246637344360352,-0.254538357257843,-4.051824569702148
1403638522217829500,0.0975317656993866,0.18024101853370667,0.09814082086086273,10.074708938598633,-0.2612508237361908,-4.002904415130615
1403638522222829500,0.10966864228248596,0.1802007257938385,0.10319777578115463,10.28844165802002,-0.22349676489830017,-4.021409511566162
1403638522227829500,0.11434812843799591,0.1934872567653656,0.10356121510267258,10.347906112670898,-0.18233343958854675,-3.939819574356079
1403638522232829500,0.11660560965538025,0.19714221358299255,0.1084412932395935,10.389972686767578,-0.10939017683267593,-3.9883296489715576
1403638522237829500,0.11555446684360504,0.2081795632839203,0.10371735692024231,10.4699068069458,-0.19112160801887512,-4.0128021240234375
1403638522242829500,0.11808586120605469,0.21653851866722107,0.1021820530295372,10.412422180175781,-0.23183485865592957,-3.953885078430176
1403638522247829500,0.12938690185546875,0.22369655966758728,0.10300401598215103,10.379684448242188,-0.17724920809268951,-3.9691781997680664
1403638522252829500,0.13349772989749908,0.23135051131248474,0.1135299801826477,10.33000659942627,-0.06188061460852623,-3.9855422973632812
1403638522257829500,0.12849543988704681,0.23484209179878235,0.11611790210008621,10.372156143188477,-0.014543667435646057,-4.058600425720215
1403638522262829500,0.127080500125885,0.24036744236946106,0.12363928556442261,10.223609924316406,-0.038066111505031586,-4.0250678062438965
1403638522267829500,0.13133572041988373,0.24314430356025696,0.1274792104959488,10.25590705871582,-0.036286864429712296,-4.009053707122803
1403638522272829500,0.13051646947860718,0.24530011415481567,0.13166235387325287,10.215248107910156,-0.02982497587800026,-4.032840251922607
1403638522277829500,0.1319781243801117,0.2446780502796173,0.13112574815750122,10.28130054473877,0.042064815759658813,-4.025154113769531
1403638522282829500,0.13851813971996307,0.2433319389820099,0.13668817281723022,10.191085815429688,0.17425738275051117,-4.008516788482666
1403638522287829500,0.13413706421852112,0.24327710270881653,0.12757901847362518,10.357110023498535,0.21318496763706207,-4.059051990509033
1403638522292829500,0.13108676671981812,0.2432248592376709,0.1252402663230896,10.322935104370117,0.22289547324180603,-4.074480056762695
1403638522297829500,0.12778937816619873,0.24256733059883118,0.12049628794193268,10.35651683807373,0.28929010033607483,-4.091583728790283
1403638522302829500,0.12500908970832825,0.23894891142845154,0.11366435140371323,10.255956649780273,0.11907358467578888,-4.115816593170166
1403638522307829500,0.12622272968292236,0.23895716667175293,0.10666801035404205,10.255318641662598,0.08682606369256973,-4.148545742034912
1403638522312829500,0.12688708305358887,0.23975834250450134,0.11065016686916351,9.967750549316406,0.047866642475128174,-4.105576515197754
1403638522317829500,0.1282549947500229,0.22569283843040466,0.10806199163198471,10.015748977661133,-0.041192058473825455,-4.123361587524414
1403638522322829500,0.12893958389759064,0.21377834677696228,0.10649976134300232,9.916276931762695,-0.04877488315105438,-4.121758937835693
1403638522327829500,0.12790518999099731,0.19914895296096802,0.1029813215136528,9.909045219421387,0.008662180043756962,-4.073993682861328
1403638522332829500,0.1246698647737503,0.1893538534641266,0.10239724814891815,9.801009178161621,-0.06341364979743958,-4.073994159698486
1403638522337829500,0.11701905727386475,0.17674630880355835,0.09198064357042313,9.89151382446289,-0.12942305207252502,-4.058167457580566
1403638522342829500,0.11581307649612427,0.17174983024597168,0.08966941386461258,9.769207000732422,-0.17831259965896606,-3.9525654315948486
1403638522347829500,0.11702871322631836,0.15770012140274048,0.09324298053979874,9.818638801574707,-0.2264871895313263,-3.8719725608825684
1403638522352829500,0.11791467666625977,0.14302578568458557,0.10204228013753891,9.761828422546387,-0.3322921693325043,-3.8385684490203857
