#timestamp [ns],w_RS_S_x [rad s^-1],w_RS_S_y [rad s^-1],w_RS_S_z [rad s^-1],a_RS_S_x [m s^-2],a_RS_S_y [m s^-2],a_RS_S_z [m s^-2]
1403636858631666500,-0.037725084,-0.023758514,0.12519634,9.95786,-0.36166075,-3.2964902
1403636858636666500,-0.035636432,-0.02647855,0.11682215,9.786318,-0.1740083,-3.1990645
1403636858641666500,-0.032803543,-0.050138503,0.11815123,10.032513,0.012969193,-3.1508462
1403636858646666500,-0.043861546,-0.049492374,0.09585111,10.318647,-0.14171565,-3.3303473
1403636858651666500,-0.056334697,-0.054286316,0.06309375,10.270037,0.037961587,-3.2577941
1403636858656666500,-0.06879897,-0.045851454,0.05407316,10.335816,0.29126075,-3.2419028
1403636858661666500,-0.07866087,-0.0431758,0.048493896,10.204619,-0.15789476,-3.118607
1403636858666666500,-0.08630761,-0.040400356,0.027585167,10.204225,-0.27983665,-3.2083635
1403636858671666500,-0.07939819,-0.034783386,0.037359107,9.95905,-0.19024684,-3.0531435
1403636858676666500,-0.07527069,-0.03134504,0.061060194,9.901169,-0.30425128,-3.1667128
1403636858681666500,-0.07947645,-0.029957188,0.06315723,9.827561,-0.3450453,-3.1093726
1403636858686666500,-0.080242865,-0.029234128,0.08966607,9.607048,-0.23107962,-2.9541314
1403636858691666500,-0.077506,-0.03352774,0.11475544,9.696779,-0.4841487,-2.9614737
1403636858696666500,-0.076821886,-0.03219021,0.121037334,9.745635,-0.65535253,-2.9609902
1403636858701666500,-0.074026875,-0.030712554,0.12870821,9.705127,-0.33760223,-2.937139
1403636858706666500,-0.06918494,-0.02444982,0.14895374,9.631604,-0.29691452,-2.863484
1403636858711666500,-0.07611016,-0.019576745,0.14546542,9.852261,-0.32958582,-2.9694483
1403636858716666500,-0.08863772,-0.005580252,0.1420117,9.778658,-0.16619861,-2.9205492
1403636858721666500,-0.09767375,-0.011821052,0.14338864,9.868719,-0.060257223,-2.9534106
1403636858726666500,-0.10809048,-0.009744519,0.1148057,9.892916,-0.2311676,-3.0512757
1403636858731666500,-0.12609252,-0.015937334,0.07924381,10.0158205,-0.05133806,-3.1420088
1403636858736666500,-0.13237742,-0.010330373,0.064625934,9.860446,-0.051025335,-3.1012735
1403636858741666500,-0.13445774,-0.020872423,0.05274028,10.056158,-0.36924523,-3.2723994
1403636858746666500,-0.1358859,-0.016004527,0.0408953,9.916737,-0.49939585,-3.2802842
1403636858751666500,-0.12057751,-0.01949845,0.062496413,9.908564,-0.4506832,-3.3046973
1403636858756666500,-0.10671256,-0.009115184,0.079251215,9.817919,-0.6870048,-3.3855174
1403636858761666500,-0.096959315,-0.0070301946,0.08692017,9.826167,-0.6544445,-3.3610017
1403636858766666500,-0.094180875,8.447096e-06,0.09250969,9.630369,-0.37706333,-3.173585
1403636858771666500,-0.088656835,-0.015366523,0.105734065,9.556925,-0.4915031,-3.1081326
1403636858776666500,-0.09698046,-0.0153761525,0.091784716,9.712362,-0.54870063,-3.1162899
1403636858781666500,-0.10046279,-0.018122716,0.08411473,9.614748,-0.4346224,-2.986062
1403636858786666500,-0.101168536,-0.011890994,0.09527995,9.696645,-0.5082349,-2.9122145
1403636858791666500,-0.100481264,-0.00913428,0.099468574,9.704591,-0.6141239,-2.9200337
1403636858796666500,-0.10257072,0.0041609835,0.10019995,9.6067705,-0.42646384,-2.84678
1403636858801666500,-0.09982272,0.0027467292,0.11624393,9.508689,-0.45906615,-2.7975829
1403636858806666500,-0.09770786,0.008301353,0.11415182,9.647132,-0.5486279,-2.9360654
1403636858811666500,-0.101886906,0.0020738821,0.11065593,9.589988,-0.4100102,-2.9691172
1403636858816666500,-0.10047441,0.000712784,0.1176205,9.647224,-0.26335052,-3.0265367
1403636858821666500,-0.09907926,-3.6494806e-05,0.11203894,9.728447,-0.49152067,-3.1648815
1403636858826666500,-0.10598647,-0.0014035795,0.09111391,9.859467,-0.41815823,-3.1897976
1403636858831666500,-0.099010654,-0.003446402,0.09110908,9.777987,-0.23876533,-3.1331336
1403636858836666500,-0.10457521,-0.0041395817,0.07577348,9.769941,-0.2794677,-3.1005898
1403636858841666500,-0.11430881,-0.012474546,0.049966816,9.737417,-0.30380806,-3.0928273
1403636858846666500,-0.12548792,-0.008933188,0.036047224,9.484488,-0.23830883,-2.9215734
1403636858851666500,-0.12968805,-0.013179829,0.034628768,9.508305,-0.47456104,-3.035322
1403636858856666500,-0.13385841,-0.0076267514,0.014414046,9.507884,-0.5964689,-3.0923133
1403636858861666500,-0.13178787,-0.0019852575,0.019318525,9.319991,-0.36782122,-3.1415586
1403636858866666500,-0.13185066,0.006318791,0.030493755,9.156067,-0.5223162,-3.1326723
1403636858871666500,-0.12982818,-0.005615739,0.03675935,8.983786,-0.7832259,-3.1893563
1403636858876666500,-0.11869805,-0.007689772,0.040941868,8.844898,-0.6770792,-3.1894794
1403636858881666500,-0.102714844,-0.03143142,0.07019703,8.771066,-0.7511282,-3.1731503
1403636858886666500,-0.08807596,-0.04612705,0.083408386,9.024267,-0.89910936,-3.353088
1403636858891666500,-0.078313865,-0.05582647,0.10151763,9.032788,-0.678917,-3.3616757
1403636858896666500,-0.06712691,-0.055085212,0.12171008,9.262211,-0.4753464,-3.2884586
1403636858901666500,-0.06294788,-0.06278625,0.12588137,9.344065,-0.5490061,-3.3048105
1403636858906666500,-0.067737676,-0.06061946,0.11120856,9.589758,-0.35344216,-3.3379555
1403636858911666500,-0.06844846,-0.063358516,0.10493897,9.418355,-0.23918195,-3.1830893
1403636858916666500,-0.07744766,-0.06683017,0.07773997,9.533022,-0.27991492,-3.2160037
1403636858921666500,-0.09066536,-0.07026754,0.05334534,9.44339,-0.26347455,-3.1264684
1403636858926666500,-0.10110543,-0.07577129,0.042191077,9.3454895,-0.17364445,-3.1104445
1403636858931666500,-0.09905932,-0.08007415,0.039387915,9.271559,-0.47525615,-3.0689774
1403636858936666500,-0.09485967,-0.07803457,0.020549688,9.34484,-0.6055661,-3.1342313
1403636858941666500,-0.08516807,-0.072443865,0.024058241,8.952295,-0.5397352,-3.0441165
1403636858946666500,-0.08239294,-0.078007065,0.029631931,8.854349,-0.49902895,-2.9625113
1403636858951666500,-0.076852985,-0.08572045,0.021947343,8.600522,-0.5883778,-2.9621673
1403636858956666500,-0.07684109,-0.10033317,0.014940012,8.600602,-0.5559504,-3.0114007
1403636858961666500,-0.066427834,-0.10390863,0.030981664,8.575654,-0.6948339,-3.0683296
1403636858966666500,-0.063642554,-0.10748015,0.032365743,8.689926,-0.87474704,-3.1009963
1403636858971666500,-0.05948115,-0.10951166,0.048414145,8.567377,-0.7195479,-3.0601385
1403636858976666500,-0.0545974,-0.11014792,0.07491195,8.73952,-0.548598,-2.9951532
1403636858981666500,-0.053920157,-0.11504947,0.090251625,8.788525,-0.57327706,-3.0114558
1403636858986666500,-0.06708018,-0.11773488,0.0804631,9.132696,-0.40256852,-3.0448413
1403636858991666500,-0.07893545,-0.11214791,0.08327478,9.08372,-0.39438105,-2.9711707
1403636858996666500,-0.08726578,-0.10940948,0.07350354,9.288098,-0.53309035,-3.0281582
1403636859001666500,-0.088638864,-0.09617753,0.060271908,9.320619,-0.57359594,-3.0525086
1403636859006666500,-0.0907074,-0.089146286,0.049827445,9.279826,-0.45922926,-3.060906
1403636859011666500,-0.090073116,-0.08642568,0.054031212,9.042061,-0.6218334,-3.1174505
1403636859016666500,-0.087986626,-0.08714104,0.058211733,9.09914,-0.65457684,-3.1990972
1403636859021666500,-0.07691208,-0.08930833,0.0770569,8.861535,-0.7605448,-3.1823485
1403636859026666500,-0.05813109,-0.09569313,0.09935607,8.967549,-0.94064194,-3.2148821
1403636859031666500,-0.04144191,-0.0999856,0.11189769,8.918045,-1.1534255,-3.20651
1403636859036666500,-0.023303874,-0.10202686,0.118849725,9.114849,-0.9654436,-3.2395887
1403636859041666500,-0.012865163,-0.1020176,0.13488576,9.131388,-0.8756017,-3.1579187
1403636859046666500,-0.007954083,-0.10964407,0.13555035,9.426424,-0.7535284,-3.2155597
1403636859051666500,-0.0155677125,-0.10607499,0.12716606,9.557764,-0.54166156,-3.1669266
1403636859056666500,-0.028777651,-0.10746004,0.12576811,9.74605,-0.5500138,-3.2076883
1403636859061666500,-0.048244216,-0.10400085,0.10625844,9.909571,-0.69678354,-3.2155018
1403636859066666500,-0.06348599,-0.09487525,0.0881363,10.114274,-0.55001134,-3.2485096
1403636859071666500,-0.080886774,-0.080194,0.083984435,10.040405,-0.49268624,-3.2810442
1403636859076666500,-0.09899042,-0.07461034,0.083309546,10.081033,-0.5333617,-3.3706274
1403636859081666500,-0.119220264,-0.06485832,0.07637377,9.974182,-0.67176074,-3.435549
1403636859086666500,-0.12900838,-0.058576062,0.0847615,9.875787,-0.6879855,-3.4516275
1403636859091666500,-0.13603553,-0.04396432,0.09038642,9.728022,-0.83462995,-3.5083194
1403636859096666500,-0.14439663,-0.041861057,0.08272271,9.695214,-0.8345259,-3.5165198
1403636859101666500,-0.14994821,-0.031353176,0.075061664,9.637912,-0.662837,-3.5330417
1403636859106666500,-0.15763238,-0.026490001,0.075782135,9.645844,-0.7526542,-3.6064131
1403636859111666500,-0.16112176,-0.009106787,0.06815331,9.727243,-0.94841635,-3.6549966
1403636859116666500,-0.16181415,-0.00074324943,0.07095754,9.759856,-0.94829285,-3.646619
1403636859121666500,-0.15137756,0.01457054,0.08423786,9.735069,-1.0296894,-3.6133747
1403636859126666500,-0.13950858,0.020841917,0.09470828,9.8495865,-1.0297863,-3.6459088
1403636859131666500,-0.1325014,0.036199026,0.09961021,9.923122,-0.86644465,-3.711303
1403636859136666500,-0.12685448,0.043874107,0.10938567,10.144002,-0.72788787,-3.7685022
1403636859141666500,-0.122607835,0.056411833,0.100343645,10.323918,-0.67872745,-3.7684233
1403636859146666500,-0.1232648,0.06059116,0.07802813,10.3567,-0.6049833,-3.7033155
1403636859151666500,-0.12669459,0.070361204,0.055730764,10.381404,-0.4659338,-3.6056516
1403636859156666500,-0.1308788,0.067583896,0.032016475,10.324208,-0.5065085,-3.565108
1403636859161666500,-0.14408022,0.0752706,0.0048396774,10.373384,-0.49806574,-3.50829
1403636859166666500,-0.15664834,0.08016599,-0.013979983,10.217704,-0.51398766,-3.5410156
1403636859171666500,-0.15876648,0.08713147,-0.025830608,10.1111145,-0.63596636,-3.4916565
1403636859176666500,-0.15879938,0.08851537,-0.03699195,9.971904,-0.733488,-3.4751105
1403636859181666500,-0.15740752,0.10036527,-0.04114948,9.92273,-0.6924541,-3.5076978
1403636859186666500,-0.15813786,0.104527734,-0.031378385,9.848928,-0.79018545,-3.539909
1403636859191666500,-0.15954459,0.10451777,-0.031379994,9.824281,-0.8635496,-3.5642586
1403636859196666500,-0.15398675,0.09754133,-0.021630283,9.775294,-0.88808095,-3.490604
1403636859201666500,-0.14490938,0.095447704,-0.0049008243,9.922344,-0.9128933,-3.5067697
1403636859206666500,-0.135153,0.0891611,0.013911415,9.987763,-0.96208876,-3.4493248
1403636859211666500,-0.1218596,0.09195723,0.0313502,10.249861,-0.7995223,-3.4250486
1403636859216666500,-0.10794293,0.09264558,0.056447152,10.233815,-0.7590742,-3.2778618
1403636859221666500,-0.09953714,0.09543176,0.07458994,10.479611,-0.6536166,-3.2943892
1403636859226666500,-0.100220434,0.09823282,0.08226445,10.504615,-0.50716347,-3.213044
1403636859231666500,-0.10223443,0.100340754,0.078092635,10.636064,-0.2543289,-3.2382047
1403636859236666500,-0.11547547,0.0961723,0.06344329,10.570677,-0.25412476,-3.238386
1403636859241666500,-0.13215983,0.09062751,0.03764156,10.58753,-0.17231192,-3.214627
1403636859246666500,-0.13921553,0.084381685,0.026465569,10.235561,-0.23738708,-3.1490693
1403636859251666500,-0.14691612,0.07044967,0.011087973,10.1374235,-0.3515807,-3.1247065
1403636859256666500,-0.15116733,0.057208195,0.006174255,9.892,-0.46557507,-3.0836997
1403636859261666500,-0.14490372,0.044645235,0.011028234,9.924475,-0.4983299,-3.1817155
1403636859266666500,-0.13312325,0.03900846,0.029140655,9.825692,-0.726533,-3.2380776
1403636859271666500,-0.11434076,0.0264265,0.047241036,9.825562,-0.8002559,-3.3032813
1403636859276666500,-0.08861547,0.015249034,0.07022518,9.678443,-0.80049175,-3.295141
1403636859281666500,-0.07120498,-0.009143574,0.10015479,9.777129,-0.6627216,-3.3446777
1403636859286666500,-0.05866707,-0.02238694,0.1147681,9.826392,-0.61416095,-3.4184966
1403636859291666500,-0.052354194,-0.039089456,0.11890465,9.998533,-0.48405525,-3.492545
1403636859296666500,-0.050251193,-0.04674445,0.1223692,10.055985,-0.41896215,-3.49276
1403636859301666500,-0.055786677,-0.060688473,0.114677265,10.244534,-0.411033,-3.493013
1403636859306666500,-0.062014066,-0.06761938,0.10280281,10.277447,-0.2968328,-3.4852931
1403636859311666500,-0.0647806,-0.08572462,0.097884506,10.37609,-0.23995125,-3.453089
1403636859316666500,-0.07382511,-0.09129661,0.08603194,10.384469,-0.2562988,-3.4042993
1403636859321666500,-0.08357795,-0.1010324,0.07207769,10.319302,-0.2564171,-3.306664
1403636859326666500,-0.09262843,-0.10866611,0.055337984,10.221339,-0.25646645,-3.2253654
1403636859331666500,-0.09891573,-0.11491336,0.046966378,10.065896,-0.2972344,-3.1845906
1403636859336666500,-0.09964333,-0.12115744,0.042777065,9.853235,-0.32166135,-3.1274455
1403636859341666500,-0.09757594,-0.12603933,0.045557056,9.779713,-0.3380646,-3.0784252
1403636859346666500,-0.096198805,-0.12461643,0.048353884,9.656987,-0.2971803,-3.0702474
1403636859351666500,-0.09551365,-0.12808599,0.04765432,9.567062,-0.28900465,-3.045786
1403636859356666500,-0.09619672,-0.12946776,0.042073134,9.566975,-0.2889006,-3.0866852
1403636859361666500,-0.101751395,-0.12947716,0.03788911,9.632161,-0.33770326,-3.1845987
1403636859366666500,-0.10519282,-0.12672633,0.025337446,9.80366,-0.41100204,-3.2989326
1403636859371666500,-0.1051989,-0.1267531,0.026034776,9.828085,-0.46809855,-3.3233016
1403636859376666500,-0.110736914,-0.12604167,0.02255011,9.942676,-0.41921332,-3.3561609
1403636859381666500,-0.11423863,-0.12606929,0.030921672,9.975338,-0.47640935,-3.3559122
1403636859386666500,-0.1190609,-0.120523095,0.035113934,10.302752,-0.4194201,-3.413171
1403636859391666500,-0.12531,-0.110764325,0.04001594,10.384544,-0.36224654,-3.4539309
1403636859396666500,-0.14268169,-0.09334491,0.02681284,10.474481,-0.33745882,-3.4784956
1403636859401666500,-0.15246737,-0.0758894,0.014298696,10.236842,-0.3616019,-3.4047475
1403636859406666500,-0.16780242,-0.055624127,0.002492521,10.07309,-0.2713688,-3.3638837
1403636859411666500,-0.17834157,-0.04723361,-0.008652683,9.721387,-0.36073235,-3.2082593
1403636859416666500,-0.18882185,-0.033277787,-0.020480718,9.566024,-0.34393588,-3.1672618
1403636859421666500,-0.19308385,-0.024226254,-0.019065704,9.255307,-0.3841024,-3.1177075
1403636859426666500,-0.19378781,-0.02073689,-0.0134775005,9.238851,-0.34322706,-3.1584597
1403636859431666500,-0.1896714,-0.0082288515,-0.0043859296,9.034207,-0.3671404,-3.1823883
1403636859436666500,-0.18826023,0.0036281813,0.004006598,9.091291,-0.2610484,-3.2313533
1403636859441666500,-0.19454938,0.013358237,0.006119225,9.058443,-0.29344633,-3.2392342
1403636859446666500,-0.20147195,0.01893506,-0.0015453212,9.246261,-0.28542396,-3.296561
1403636859451666500,-0.20565337,0.023798687,-0.0064199828,9.27065,-0.3261284,-3.312807
1403636859456666500,-0.21186337,0.032151997,-0.015474018,9.531816,-0.31810513,-3.443708
1403636859461666500,-0.2146281,0.044679023,-0.021730226,9.646028,-0.35881793,-3.4681027
1403636859466666500,-0.21600741,0.05719962,-0.027288478,9.768172,-0.41584438,-3.5987196
1403636859471666500,-0.21671379,0.0732077,-0.023768898,9.776007,-0.45643204,-3.6637118
1403636859476666500,-0.21462026,0.08991968,-0.02443361,9.792115,-0.5132986,-3.6714988
1403636859481666500,-0.21183369,0.110112995,-0.025781047,9.693903,-0.5128368,-3.6383636
1403636859486666500,-0.20974436,0.12055855,-0.020173412,9.6122055,-0.51257193,-3.5562766
1403636859491666500,-0.20141259,0.12751001,-0.011778604,9.408087,-0.5529265,-3.4250824
1403636859496666500,-0.19792473,0.13586637,-0.0040824525,9.383456,-0.53650165,-3.4330285
1403636859501666500,-0.18469492,0.15048026,0.009216774,9.244476,-0.6012607,-3.3589385
1403636859506666500,-0.16726479,0.167202,0.02809583,9.187041,-0.6009895,-3.3258338
1403636859511666500,-0.15332103,0.1846167,0.046988178,9.048137,-0.60052764,-3.211149
1403636859516666500,-0.14285389,0.19368967,0.057478298,9.015451,-0.5027098,-3.1459107
1403636859521666500,-0.13518578,0.20693286,0.07007246,8.982442,-0.48630422,-3.1783352
1403636859526666500,-0.123334505,0.21531147,0.077063516,9.022851,-0.44570836,-3.2762392
1403636859531666500,-0.122616924,0.22298984,0.08265495,9.120629,-0.38886362,-3.3170002
1403636859536666500,-0.1177148,0.22996779,0.08337426,9.14489,-0.29113224,-3.3742385
1403636859541666500,-0.12391768,0.2362396,0.07154232,9.259197,-0.13634527,-3.3825762
1403636859546666500,-0.1329135,0.23205693,0.056903962,9.341104,0.02665562,-3.3584538
1403636859551666500,-0.14258215,0.23275484,0.029035334,9.504736,0.13272691,-3.3914983
1403636859556666500,-0.15788585,0.23482971,0.0178856,9.553848,0.10835317,-3.416001
1403636859561666500,-0.16829017,0.24388655,-0.0016131215,9.652012,0.09213653,-3.4242525
1403636859566666500,-0.1662336,0.24875654,-0.009270545,9.488805,-0.013755426,-3.3342533
1403636859571666500,-0.16483897,0.2564102,-0.01900218,9.399025,-0.05434149,-3.3096652
1403636859576666500,-0.16346937,0.26056176,-0.018266525,9.170578,-0.07040246,-3.244229
1403636859581666500,-0.15928856,0.2661205,-0.021726113,9.09701,-0.07026884,-3.2849596
1403636859586666500,-0.15375552,0.2674861,-0.018212926,8.860697,-0.17577112,-3.1787462
1403636859591666500,-0.14331606,0.27097085,-0.016102191,8.787273,-0.20816773,-3.1379387
1403636859596666500,-0.13499129,0.2667569,-0.009797435,8.510291,-0.31339678,-3.0074697
1403636859601666500,-0.12873805,0.2653772,-0.0063440762,8.591383,-0.31368986,-3.154146
1403636859606666500,-0.11691389,0.2667835,0.0041146763,8.550202,-0.3056114,-3.2030518
1403636859611666500,-0.12038549,0.26332328,0.0026822872,8.721275,-0.21648656,-3.309245
1403636859616666500,-0.124567725,0.257047,0.001268629,8.713164,-0.18400057,-3.3338346
1403636859621666500,-0.13358125,0.25288412,-0.01339614,8.900941,-0.07839169,-3.3422763
1403636859626666500,-0.14611515,0.2445057,-0.025967117,8.876798,-0.037701216,-3.326154
1403636859631666500,-0.15793413,0.22574653,-0.044875097,9.146529,0.02710474,-3.2859502
1403636859636666500,-0.17324862,0.21739216,-0.0693275,9.2528925,0.035167277,-3.3271363
1403636859641666500,-0.18435413,0.2083915,-0.08052799,9.522703,0.09198261,-3.3114176
1403636859646666500,-0.18715659,0.20631345,-0.08682196,9.473964,0.04301705,-3.2216322
1403636859651666500,-0.18786982,0.19866692,-0.09383261,9.47417,0.026642988,-3.1891758
1403636859656666500,-0.18859586,0.20211925,-0.09310223,9.196807,0.059432145,-3.0909684
1403636859661666500,-0.18374756,0.20069961,-0.08542238,9.04987,0.067684814,-3.0826612
1403636859666666500,-0.17962784,0.1971678,-0.08192846,8.748229,-0.013510239,-2.9845743
1403636859671666500,-0.1782822,0.18946272,-0.08613558,8.54442,-0.04589372,-2.9600685
1403636859676666500,-0.17067197,0.18312173,-0.08545256,8.307816,-0.14323679,-2.968005
1403636859681666500,-0.16025904,0.17612906,-0.07921736,8.3318815,-0.2816037,-3.09016
1403636859686666500,-0.14355657,0.17750163,-0.06735976,8.249831,-0.30598277,-3.1715639
1403636859691666500,-0.1289376,0.17404896,-0.04924002,8.290157,-0.31429034,-3.2205265
1403636859696666500,-0.11849479,0.16920741,-0.039504882,8.355104,-0.27380753,-3.269618
1403636859701666500,-0.10944981,0.15811376,-0.016518947,8.444605,-0.24966547,-3.2452893
1403636859706666500,-0.10038719,0.14911914,-0.0054003857,8.664817,-0.18495941,-3.2782493
1403636859711666500,-0.09619526,0.1345467,0.006415937,8.86094,-0.09588479,-3.2133846
1403636859716666500,-0.09478318,0.12760487,0.008486051,8.999814,-0.022798857,-3.2544641
1403636859721666500,-0.08779023,0.11997707,0.011957977,9.155217,0.05835436,-3.2140217
1403636859726666500,-0.08499027,0.11999315,0.0056880303,9.171685,0.10726648,-3.1897037
1403636859731666500,-0.08362401,0.11441831,0.010556791,9.090206,0.06638433,-3.0917826
1403636859736666500,-0.08223563,0.11861557,0.010585029,8.918731,0.1888943,-3.0347342
1403636859741666500,-0.08089235,0.11231952,0.0147530325,8.632793,0.14839329,-2.977432
1403636859746666500,-0.07532533,0.10676013,0.010551397,8.600144,0.18095464,-2.9530952
1403636859751666500,-0.07327496,0.099760026,0.017507214,8.314024,0.16493851,-2.903895
1403636859756666500,-0.07189945,0.092796706,0.023067597,8.232256,0.21382762,-2.8876104
1403636859761666500,-0.07122449,0.08787976,0.034222994,8.117629,0.091724865,-2.8546944
1403636859766666500,-0.064957745,0.08650106,0.045389716,8.142054,0.099704094,-2.7977188
1403636859771666500,-0.05800619,0.08302356,0.057246495,8.060126,0.13225923,-2.740665
1403636859776666500,-0.05590611,0.089333236,0.06423135,8.190905,0.24620825,-2.806163
1403636859781666500,-0.05243904,0.08863555,0.07609023,8.108971,0.26258254,-2.7898011
1403636859786666500,-0.05452683,0.0942284,0.07960461,8.117228,0.36040276,-2.7492068
1403636859791666500,-0.05317772,0.086550854,0.08587246,7.8391523,0.4177164,-2.651282
1403636859796666500,-0.05249957,0.08240411,0.09283158,7.888284,0.5235522,-2.6841776
1403636859801666500,-0.05600486,0.079581566,0.097705305,7.716415,0.46676156,-2.667532
1403636859806666500,-0.06368961,0.07054484,0.09768161,7.7739367,0.5562319,-2.6922538
1403636859811666500,-0.065792836,0.06771805,0.09908934,7.6593537,0.4748152,-2.5778673
1403636859816666500,-0.06931136,0.061453715,0.10396285,7.5940614,0.5563292,-2.5291018
1403636859821666500,-0.07002986,0.0537598,0.099760145,7.430427,0.52387416,-2.4554472
1403636859826666500,-0.073506616,0.043337286,0.0857977,7.578033,0.5804842,-2.4232085
1403636859831666500,-0.07282101,0.03634562,0.07112713,7.430791,0.5887677,-2.3332882
1403636859836666500,-0.07002502,0.023121089,0.052953977,7.4963207,0.5965737,-2.2762783
1403636859841666500,-0.07490537,0.016817696,0.045979742,7.414543,0.53947365,-2.1536756
1403636859846666500,-0.07562498,0.0008271653,0.04034886,7.4555707,0.63708335,-2.162028
1403636859851666500,-0.08120117,0.002193952,0.042470817,7.4065895,0.5963691,-2.072157
1403636859856666500,-0.081895344,-0.008273879,0.050147805,7.4230785,0.46539384,-1.9496238
1403636859861666500,-0.08537897,-0.010382542,0.0522337,7.333,0.34305546,-1.9248247
1403636859866666500,-0.08051417,-0.015961254,0.058487643,7.2263722,0.3022681,-1.9164734
1403636859871666500,-0.07565633,-0.012489537,0.071044266,7.021461,0.30270925,-1.9161714
1403636859876666500,-0.0701173,-0.015277298,0.07869698,6.8822026,0.41708988,-1.8998618
1403636859881666500,-0.077807106,-0.015979445,0.085660264,6.6448045,0.45873064,-1.932098
1403636859886666500,-0.0806259,-0.026413115,0.09538612,6.4729977,0.51623917,-1.9237434
1403636859891666500,-0.0848202,-0.029196696,0.099554256,6.3585258,0.56565326,-1.9317845
1403636859896666500,-0.08970132,-0.039626732,0.110680446,6.1461163,0.63956326,-1.8419483
1403636859901666500,-0.09877888,-0.05074556,0.10996099,6.1542454,0.6558963,-1.8745593
1403636859906666500,-0.10501855,-0.058365017,0.109973624,6.137367,0.49287593,-1.9066626
1403636859911666500,-0.11060355,-0.06183821,0.114857525,6.2109256,0.44372308,-1.9392824
1403636859916666500,-0.10640725,-0.06251047,0.13088812,6.1453238,0.32161155,-1.9306737
1403636859921666500,-0.094545476,-0.06387582,0.14760637,6.129131,0.20699686,-1.8406129
1403636859926666500,-0.08060347,-0.06802034,0.16360171,6.072149,0.10085643,-1.7993364
1403636859931666500,-0.065317415,-0.07151677,0.17819999,6.154027,0.08401762,-1.840168
1403636859936666500,-0.05139876,-0.07916503,0.18861872,6.203518,0.009912829,-1.8074547
1403636859941666500,-0.038216256,-0.08267979,0.18442121,6.358727,0.12324954,-1.8898251
1403636859946666500,-0.029851548,-0.08126323,0.17533305,6.236131,0.19707541,-1.8898436
1403636859951666500,-0.029173724,-0.084765114,0.15652032,6.3668666,0.31053683,-1.8987254
1403636859956666500,-0.0354236,-0.09031001,0.13977551,6.276734,0.311093,-1.9148234
1403636859961666500,-0.035431303,-0.0938051,0.12652162,6.350216,0.3678813,-1.9314301
1403636859966666500,-0.03260798,-0.098629914,0.1251102,6.1867976,0.27861416,-1.865706
1403636859971666500,-0.028443955,-0.10558501,0.12787485,6.2523355,0.19686228,-1.939042
1403636859976666500,-0.020777442,-0.10694267,0.13831139,6.138318,0.11568745,-1.9223317
1403636859981666500,-0.013145454,-0.10835439,0.14177784,6.2118897,0.123535834,-1.987768
1403636859986666500,-0.0068956986,-0.10694188,0.14315075,6.0730095,0.11630604,-2.0771973
1403636859991666500,-0.0083293095,-0.1104366,0.13894662,6.105367,0.25489917,-2.1346178
1403636859996666500,-0.0104154125,-0.10832882,0.13546365,5.966371,0.23949564,-2.1833196
1403636860001666500,-0.016708307,-0.11598082,0.1326602,5.941675,0.2723445,-2.2485952
1403636860006666500,-0.022951536,-0.11733785,0.13268562,5.8110127,0.1832371,-2.2320786
1403636860011666500,-0.020867713,-0.12775725,0.1361498,5.827668,0.12582912,-2.2157254
1403636860016666500,-0.022258542,-0.13541153,0.1277922,5.836038,0.019577844,-2.2484117
1403636860021666500,-0.019480653,-0.14171413,0.12080979,5.958666,-0.054544035,-2.3138554
1403636860026666500,-0.013920136,-0.14385054,0.120103925,6.07315,-0.12864876,-2.3874543
1403636860031666500,-0.0041744187,-0.14390121,0.12427579,6.2122455,-0.1946559,-2.4365358
1403636860036666500,0.0013931468,-0.14809652,0.12635921,6.237198,-0.27664608,-2.4365656
1403636860041666500,0.020170234,-0.16066876,0.13886498,6.392978,-0.31835636,-2.4612305
1403636860046666500,0.037566595,-0.16143939,0.149318,6.581004,-0.36807224,-2.5267897
1403636860051666500,0.047299318,-0.17331798,0.15767555,6.7934704,-0.31974652,-2.5598776
1403636860056666500,0.059126727,-0.17614146,0.16603854,6.9162407,-0.3364993,-2.5519931
1403636860061666500,0.070928134,-0.18520145,0.17716755,6.933017,-0.33684364,-2.494989
1403636860066666500,0.0737037,-0.19219327,0.18066838,7.1289535,-0.25580946,-2.5363603
1403636860071666500,0.0792317,-0.19915289,0.18693696,7.112651,-0.1987934,-2.593515
1403636860076666500,0.0736674,-0.19079752,0.19115728,7.2104554,-0.10914481,-2.6753464
1403636860081666500,0.06946061,-0.19216673,0.19671968,6.957183,-0.18193027,-2.650136
1403636860086666500,0.06738398,-0.19912577,0.18903312,6.90014,-0.23887639,-2.6255274
1403636860091666500,0.06250372,-0.2123204,0.18272401,6.737094,-0.28751957,-2.5844219
1403636860096666500,0.062495075,-0.22904779,0.17923786,6.867651,-0.20630759,-2.6582637
1403636860101666500,0.06039103,-0.24298404,0.1799329,6.8594813,-0.20629817,-2.7072558
1403636860106666500,0.0597227,-0.2548662,0.1806498,7.1862354,-0.15001841,-2.7162416
1403636860111666500,0.05971574,-0.2695278,0.1848438,7.292455,-0.16649921,-2.757357
1403636860116666500,0.05903802,-0.27580607,0.18763632,7.586709,-0.07765095,-2.7419565
1403636860121666500,0.06041316,-0.28696185,0.19460563,7.742041,-0.02927345,-2.734325
1403636860126666500,0.069498084,-0.29258016,0.19738132,8.150905,0.08441169,-2.8499193
1403636860131666500,0.06948417,-0.2925706,0.2057615,8.183709,0.18227287,-2.9399908
1403636860136666500,0.060506932,-0.29744762,0.20576213,8.470309,0.31309128,-3.128997
1403636860141666500,0.050087236,-0.2967538,0.20299679,8.380383,0.2645733,-3.2022555
1403636860146666500,0.03273309,-0.3051134,0.19743039,8.445938,0.2240704,-3.284201
1403636860151666500,0.0146442875,-0.31557494,0.19399202,8.241444,0.1429104,-3.357207
1403636860156666500,0.0083941,-0.33022845,0.18842034,8.265893,0.036961127,-3.3572474
1403636860161666500,0.0007514432,-0.34627715,0.17727728,8.175851,-0.076999284,-3.3651736
1403636860166666500,-0.00825838,-0.36159834,0.16749005,8.307007,-0.08525268,-3.4229243
1403636860171666500,-0.0138086155,-0.36507106,0.15493079,8.24158,-0.14225793,-3.3817568
1403636860176666500,-0.012426354,-0.37903953,0.15143426,8.2906275,-0.21566783,-3.3737707
1403636860181666500,-0.014530398,-0.38322935,0.15143725,8.298748,-0.2646349,-3.3328767
1403636860186666500,-0.00969293,-0.39576718,0.1555861,8.388722,-0.2729822,-3.2677352
1403636860191666500,-0.00204847,-0.3992528,0.15904209,8.495042,-0.25681454,-3.2516608
1403636860196666500,0.00071590394,-0.41108814,0.16737978,8.63425,-0.17551632,-3.301245
1403636860201666500,0.005583428,-0.41526553,0.17294796,8.675209,-0.10216136,-3.3587708
1403636860206666500,0.0027855411,-0.4250329,0.18200408,8.8308525,-0.05335388,-3.4329374
1403636860211666500,-0.0027647838,-0.42296538,0.1904008,8.912901,-0.004317783,-3.5724387
1403636860216666500,-0.00696858,-0.4314362,0.20721672,8.970166,-0.093965866,-3.6873047
1403636860221666500,-0.011812858,-0.43006638,0.20583734,9.035861,-0.12659,-3.7857187
1403636860226666500,-0.013903536,-0.43501988,0.20799117,8.994969,-0.21632665,-3.8594723
1403636860231666500,-0.014548428,-0.436395,0.20447956,9.085463,-0.1510358,-4.015464
1403636860236666500,-0.013844587,-0.43503445,0.19963387,8.962599,-0.19177125,-4.023446
1403636860241666500,-0.017979525,-0.43986407,0.18702158,9.053079,-0.16741118,-4.1054735
1403636860246666500,-0.024224244,-0.4412398,0.17724518,9.0123205,-0.15931717,-4.1381235
1403636860251666500,-0.034637235,-0.44326055,0.16044223,9.110918,-0.17592672,-4.1625614
1403636860256666500,-0.042291187,-0.4411675,0.14789814,8.988059,-0.2167596,-4.096658
1403636860261666500,-0.04505431,-0.44177935,0.13595393,9.12737,-0.20057374,-4.055641
1403636860266666500,-0.042291097,-0.4431781,0.13595952,9.037066,-0.20857093,-3.9408584
1403636860271666500,-0.03953304,-0.4438415,0.14639385,9.167954,-0.17599991,-3.8919513
1403636860276666500,-0.03888709,-0.44739902,0.15691602,9.143174,-0.28209737,-3.8428078
1403636860281666500,-0.02848772,-0.45788288,0.16734426,9.355964,-0.3474849,-3.8020685
1403636860286666500,-0.01181189,-0.4551922,0.18064326,9.380194,-0.44527104,-3.7529247
1403636860291666500,0.0021067038,-0.458699,0.19108284,9.552241,-0.44530308,-3.7776566
1403636860296666500,0.019522436,-0.45453596,0.2050402,9.584899,-0.36349863,-3.8434496
1403636860301666500,0.023048662,-0.4530766,0.2105646,9.732577,-0.19199714,-4.0077004
1403636860306666500,0.022389986,-0.4440181,0.2105971,9.609759,-0.118298784,-4.1143537
1403636860311666500,0.016171418,-0.44188496,0.20569067,9.667468,-0.061152175,-4.270098
1403636860316666500,0.01203423,-0.44541264,0.199467,9.520494,-0.10193268,-4.4093328
1403636860321666500,0.0071815625,-0.45309296,0.1953077,9.529215,-0.18377918,-4.5240293
1403636860326666500,0.006509654,-0.45102245,0.19604315,9.55426,-0.25741214,-4.6304893
1403636860331666500,0.0058239475,-0.45517254,0.18974626,9.644744,-0.33121473,-4.6631823
1403636860336666500,0.017002054,-0.45169297,0.19045901,9.743707,-0.43756157,-4.7532477
1403636860341666500,0.028842635,-0.4496096,0.19882803,9.88314,-0.503035,-4.7288933
1403636860346666500,0.040698357,-0.44125295,0.20650387,9.989785,-0.54390657,-4.728957
1403636860351666500,0.056025483,-0.43500376,0.21627302,10.096271,-0.5846939,-4.688162
1403636860356666500,0.06858338,-0.42101517,0.21553555,10.301056,-0.6502434,-4.638699
1403636860361666500,0.082510285,-0.413337,0.22038336,10.3743105,-0.60093737,-4.589401
1403636860366666500,0.09784839,-0.39582187,0.2160872,10.455284,-0.42075,-4.6052094
1403636860371666500,0.10828043,-0.38817927,0.2153723,10.356323,-0.3304135,-4.547818
1403636860376666500,0.10478973,-0.38398564,0.19720064,10.216552,-0.27307802,-4.4737806
1403636860381666500,0.105483,-0.38957247,0.18951844,10.109995,-0.25660366,-4.457408
1403636860386666500,0.09787919,-0.38249436,0.1740577,10.208302,-0.07681054,-4.6778564
1403636860391666500,0.08399474,-0.37199366,0.1600447,10.208199,0.08675345,-4.897951
1403636860396666500,0.058247633,-0.35663456,0.1411616,10.2237625,0.32374215,-5.084997
1403636860401666500,0.031140365,-0.34416077,0.13007322,9.945875,0.30730218,-5.1742992
1403636860406666500,0.007555373,-0.34480542,0.11759053,9.865162,0.06979497,-5.3123918
1403636860411666500,-0.006342046,-0.34619036,0.109330386,9.743527,-0.18418625,-5.312344
1403636860416666500,-0.014681391,-0.34891343,0.107986584,9.809886,-0.32352746,-5.3693805
1403636860421666500,-0.0014647469,-0.34754953,0.11641662,9.835249,-0.47904,-5.3125777
1403636860426666500,0.009691335,-0.3398361,0.12963445,10.023615,-0.4462991,-5.336929
1403636860431666500,0.026389115,-0.32735783,0.1485339,10.032083,-0.536165,-5.2638593
1403636860436666500,0.038244285,-0.30991495,0.15969971,10.195867,-0.5934798,-5.2310953
1403636860441666500,0.052852683,-0.29190642,0.1688586,10.089332,-0.7241273,-5.1006794
1403636860446666500,0.07304544,-0.27798375,0.17582974,10.1707,-0.7728979,-5.002731
1403636860451666500,0.09813357,-0.26200923,0.17585428,10.072224,-0.8295773,-4.9616556
1403636860456666500,0.11834096,-0.25084084,0.17719586,10.087831,-0.71457744,-4.9613705
1403636860461666500,0.12742913,-0.23129953,0.16735984,10.054149,-0.5015468,-5.0421143
1403636860466666500,0.13369235,-0.22152962,0.16100417,10.061189,-0.26398563,-5.0742674
1403636860471666500,0.13093391,-0.20065227,0.15125425,9.946069,-0.16560024,-5.1143436
1403636860476666500,0.12190034,-0.19436565,0.13657348,9.978378,-0.075654335,-5.1951756
1403636860481666500,0.110092856,-0.17695363,0.12196793,9.945522,-0.13315259,-5.1862535
1403636860486666500,0.09478792,-0.17276205,0.09891924,10.05955,-0.0925893,-5.193618
1403636860491666500,0.07813681,-0.1581147,0.07871023,10.157142,-0.06815102,-5.30663
1403636860496666500,0.07260216,-0.14976224,0.06338845,10.149069,-0.1335844,-5.33064
1403636860501666500,0.05943189,-0.13652149,0.041798387,10.247037,-0.17450495,-5.3869615
1403636860506666500,0.05668185,-0.12537259,0.032071996,10.304527,-0.2562842,-5.3867126
1403636860511666500,0.057400636,-0.119798526,0.023025516,10.427627,-0.35454243,-5.337908
1403636860516666500,0.06506119,-0.11214377,0.023779634,10.347209,-0.5752871,-5.2893953
1403636860521666500,0.0789972,-0.1023842,0.024496827,10.437424,-0.656835,-5.2649646
1403636860526666500,0.09222364,-0.09401515,0.03358281,10.437391,-0.6811642,-5.264876
1403636860531666500,0.10337829,-0.08284202,0.041962374,10.583805,-0.62371194,-5.280861
1403636860536666500,0.113114215,-0.07379308,0.04756247,10.5672655,-0.63987833,-5.2564163
1403636860541666500,0.115957536,-0.058462396,0.039212722,10.672371,-0.5086839,-5.361485
1403636860546666500,0.10760368,-0.04664313,0.037160862,10.597813,-0.41045815,-5.361152
1403636860551666500,0.09720523,-0.03829021,0.02044161,10.702846,-0.27937475,-5.4419146
1403636860556666500,0.074939005,-0.028537152,0.014222134,10.620939,-0.27925515,-5.4661803
1403636860561666500,0.0540658,-0.0229604,0.000302691,10.653081,-0.23003922,-5.5066657
1403636860566666500,0.03665357,-0.013901876,-0.0136080645,10.587174,-0.20515825,-5.530986
1403636860571666500,0.019958936,-0.015283627,-0.029650118,10.685463,-0.22146016,-5.571762
1403636860576666500,0.005321987,-0.0062360894,-0.046354067,10.701925,-0.2621778,-5.531429
1403636860581666500,-0.007902704,-0.0027309898,-0.062378105,10.9303255,-0.21316427,-5.564076
1403636860586666500,-0.0183646,0.00701583,-0.07699767,10.857164,-0.2863663,-5.5319424
1403636860591666500,-0.023251556,0.009109324,-0.08745122,10.963216,-0.26190752,-5.515897
1403636860596666500,-0.026745968,0.020945078,-0.09090641,10.8734,-0.31059518,-5.4835005
1403636860601666500,-0.023240365,0.021644047,-0.091610044,10.906761,-0.3841035,-5.4998717
1403636860606666500,-0.021856375,0.03138742,-0.095076114,10.841395,-0.41649392,-5.4755526
1403636860611666500,-0.0128034875,0.03554994,-0.09646435,10.841305,-0.41640353,-5.451131
1403636860616666500,-0.004432492,0.04181529,-0.10204047,10.800537,-0.44050586,-5.483615
1403636860621666500,0.0018637255,0.041827723,-0.10273637,10.816543,-0.39934662,-5.5646033
1403636860626666500,0.0053268895,0.045296453,-0.10551643,10.799873,-0.37481984,-5.523993
1403636860631666500,0.006727375,0.03763453,-0.10273978,10.914292,-0.35068867,-5.523929
1403636860636666500,0.006728269,0.04042922,-0.10272156,10.938288,-0.30155072,-5.5481353
1403636860641666500,0.011588775,0.03344845,-0.094361484,11.036058,-0.2449304,-5.483036
1403636860646666500,0.007436894,0.03417088,-0.09086333,11.158704,-0.26135498,-5.539879
1403636860651666500,0.005355485,0.030688403,-0.08669174,11.183817,-0.31877673,-5.515695
1403636860656666500,0.0018768832,0.032796867,-0.08527604,11.35502,-0.28633928,-5.52386
1403636860661666500,0.0039766803,0.03210385,-0.08249228,11.28967,-0.28615603,-5.5642824
1403636860666666500,0.0032801703,0.036993757,-0.08874665,11.36262,-0.23695366,-5.612902
1403636860671666500,0.0011874661,0.041857943,-0.08943172,11.199367,-0.26110667,-5.596638
1403636860676666500,0.0025880858,0.046046995,-0.08941527,11.182574,-0.22812204,-5.645151
1403636860681666500,0.0053679124,0.039068922,-0.08666383,11.019549,-0.25257412,-5.628919
1403636860686666500,0.005380191,0.032815278,-0.082494944,11.109313,-0.22827436,-5.6693926
1403636860691666500,0.010934435,0.02861256,-0.078330815,11.035905,-0.22846697,-5.612573
1403636860696666500,0.013026126,0.030712841,-0.07343216,11.149604,-0.16321869,-5.6367207
1403636860701666500,0.017885514,0.033471048,-0.0664503,11.059921,-0.18784243,-5.547431
1403636860706666500,0.019267939,0.032778807,-0.065050095,11.206292,-0.09824728,-5.5392194
1403636860711666500,0.021356218,0.036250636,-0.056669038,11.124687,-0.122726746,-5.49854
1403636860716666500,0.02625712,0.03835757,-0.049690302,11.32056,-0.114741236,-5.547211
1403636860721666500,0.029056557,0.039051004,-0.037833195,11.174134,-0.19632554,-5.539036
1403636860726666500,0.041601874,0.03486602,-0.0329778,11.215369,-0.2291044,-5.5390573
1403636860731666500,0.049283274,0.036264896,-0.030189645,11.109463,-0.26960337,-5.5957756
1403636860736666500,0.051364727,0.03209597,-0.03090566,11.149148,-0.13882247,-5.6522946
1403636860741666500,0.05065509,0.032099344,-0.031601246,11.017771,-0.07315574,-5.6764793
1403636860746666500,0.052746065,0.02792248,-0.035803985,11.058398,-0.04042689,-5.708911
1403636860751666500,0.05134333,0.027215948,-0.040687855,10.919752,-0.06475148,-5.6846604
1403636860756666500,0.049234726,0.02233125,-0.040703293,10.927996,-0.04867321,-5.6441345
1403636860761666500,0.04853978,0.03137639,-0.03857581,10.879338,-0.11398976,-5.5955133
1403636860766666500,0.04992021,0.02927774,-0.039981242,10.814108,-0.12215423,-5.571208
1403636860771666500,0.053402655,0.040425345,-0.03506161,10.748536,-0.1382441,-5.563038
1403636860776666500,0.05758124,0.04460328,-0.025282603,10.764927,-0.15470995,-5.538629
1403636860781666500,0.061051063,0.0508684,-0.021774705,10.740183,-0.14650416,-5.506101
1403636860786666500,0.0645128,0.061317094,-0.004302662,10.650664,-0.22016735,-5.433059
1403636860791666500,0.069359906,0.070366025,0.0075800903,10.642264,-0.22030754,-5.3517523
1403636860796666500,0.072822265,0.07175604,0.021528218,10.650574,-0.24510543,-5.286736
1403636860801666500,0.06862336,0.08152595,0.02574702,10.60872,-0.14689553,-5.2539887
1403636860806666500,0.066523366,0.086422965,0.028553043,10.632171,-0.007908694,-5.2374783
1403636860811666500,0.062359042,0.10455028,0.023038898,10.72916,0.09864135,-5.2454243
1403636860816666500,0.049101703,0.11362346,0.016806293,10.574004,0.05814298,-5.1967196
1403636860821666500,0.03726486,0.1289732,0.004317332,10.646755,0.17285998,-5.1641283
1403636860826666500,0.025396101,0.13664556,-0.0082069,10.5081005,0.12421539,-5.0992303
1403636860831666500,0.015615843,0.14435267,-0.020733174,10.425885,0.2227083,-5.074897
1403636860836666500,0.007920109,0.15133809,-0.018628981,10.254352,0.19843365,-5.0098243
1403636860841666500,-0.005310349,0.15551554,-0.015824419,10.221877,0.14129968,-5.001767
1403636860846666500,-0.010886915,0.16386668,-0.0011595897,10.124379,-0.01399185,-4.9773736
1403636860851666500,-0.0073949173,0.18407716,0.009359021,10.132446,-0.05470394,-4.952839
1403636860856666500,-0.0053484067,0.19593297,0.018445645,9.936625,-0.15264653,-4.895812
1403636860861666500,-0.0004730448,0.20848314,0.028941516,9.928253,-0.16077442,-4.8875346
1403636860866666500,0.005770482,0.2245348,0.032475013,9.715486,-0.13592623,-4.887581
1403636860871666500,0.010643877,0.2342978,0.037387613,9.690619,-0.09500488,-4.8793354
1403636860876666500,0.014087804,0.2447444,0.049961302,9.535647,-0.20129623,-4.8303356
1403636860881666500,0.018955044,0.2503125,0.06043123,9.600802,-0.20145854,-4.7974896
1403636860886666500,0.022400282,0.2586705,0.075091034,9.527002,-0.19348699,-4.7074575
1403636860891666500,0.025181629,0.25937346,0.088337824,9.591888,-0.09569918,-4.6582284
1403636860896666500,0.025882982,0.27051187,0.09045063,9.689623,-0.054976508,-4.5844755
1403636860901666500,0.020341434,0.28305998,0.091888756,9.762787,0.018589577,-4.5679073
1403636860906666500,0.013401218,0.30396366,0.08708009,9.7625475,0.04330327,-4.5513806
1403636860911666500,0.0050805733,0.3158149,0.08015756,9.803255,0.07618311,-4.5676513
1403636860916666500,-0.0032736883,0.3297487,0.06975247,9.688845,0.11709928,-4.469463
1403636860921666500,-0.011618577,0.33671737,0.06490739,9.62345,0.14984287,-4.436694
1403636860926666500,-0.022061862,0.35063386,0.053797517,9.517537,0.060284603,-4.4121404
1403636860931666500,-0.026945718,0.3499292,0.051007334,9.452312,0.052087348,-4.346692
1403636860936666500,-0.029035695,0.35898107,0.050342936,9.387013,0.0032721253,-4.387516
1403636860941666500,-0.028364427,0.37011942,0.05874038,9.305426,-0.09457708,-4.3954787
1403636860946666500,-0.022127457,0.3833434,0.06643544,9.280761,-0.14363573,-4.3379393
1403636860951666500,-0.015908755,0.39515787,0.083912864,9.084463,-0.1356766,-4.264005
1403636860956666500,-0.011756338,0.4125502,0.09582767,8.97795,-0.111336805,-4.214605
1403636860961666500,-0.00691361,0.41741592,0.10979429,8.871501,-0.06260453,-4.173604
1403636860966666500,-0.0013402775,0.42645484,0.104941815,8.863102,-0.013751337,-4.157201
1403636860971666500,-0.0027180985,0.43480214,0.104994506,8.781165,0.092146605,-4.1898437
1403636860976666500,-0.006164022,0.441778,0.09806162,8.829701,0.2387819,-4.189743
1403636860981666500,-0.015875228,0.4480462,0.08974704,8.780568,0.33655283,-4.18965
1403636860986666500,-0.02761782,0.44880232,0.07233724,9.041496,0.45095032,-4.222279
1403636860991666500,-0.040121056,0.45088348,0.05700614,9.066428,0.38587654,-4.1405263
1403636860996666500,-0.050500818,0.45091817,0.033265937,9.344615,0.30474493,-4.1161666
1403636861001666500,-0.05262036,0.45715326,0.018596698,9.337268,0.052231483,-4.0179996
1403636861006666500,-0.04841695,0.4571934,0.0073859133,9.574376,0.019667068,-4.0263453
1403636861011666500,-0.04149545,0.4648378,0.013660137,9.533638,-0.10257376,-4.0097375
1403636861016666500,-0.036629744,0.47112644,0.022711802,9.631616,-0.14336675,-4.0504904
1403636861021666500,-0.023461618,0.48293415,0.03458855,9.500993,-0.28992692,-4.090995
1403636861026666500,-0.012334652,0.49893925,0.042302463,9.46818,-0.31432962,-4.148002
1403636861031666500,-0.00473354,0.510691,0.052846197,9.133348,-0.36312398,-4.098528
1403636861036666500,0.006390147,0.5106339,0.052888352,8.945217,-0.24116747,-4.098803
1403636861041666500,0.009160481,0.51474714,0.049470816,8.683753,-0.111104034,-4.0172324
1403636861046666500,0.0098524615,0.50707537,0.04876745,8.569434,-0.054231238,-4.025637
1403636861051666500,0.007079713,0.5070826,0.04529721,8.536413,0.07588448,-3.9848833
1403636861056666500,0.0077847764,0.5091895,0.048085276,8.617718,0.11658532,-4.009352
1403636861061666500,0.0043006763,0.5189207,0.0488285,8.56056,0.124737814,-3.9519913
1403636861066666500,0.00082796067,0.5175463,0.052321274,8.543893,0.23044972,-3.9683526
1403636861071666500,-0.008891888,0.5252153,0.04957949,8.543765,0.27932042,-3.9600108
1403636861076666500,-0.008879788,0.5252498,0.04956605,8.674111,0.3038294,-3.9190764
1403636861081666500,-0.014441974,0.5231628,0.047464896,8.715238,0.22258045,-3.9108717
1403636861086666500,-0.016533561,0.5176009,0.0467307,8.789016,0.13317828,-3.8781893
1403636861091666500,-0.0137600675,0.51829296,0.046010483,8.846445,0.027451271,-3.8617811
1403636861096666500,-0.006137885,0.5161906,0.052946854,8.854858,-0.08647818,-3.869893
1403636861101666500,-0.0019617453,0.5210965,0.06268366,9.017829,-0.070332654,-3.861586
1403636861106666500,0.0014772937,0.5161923,0.06894711,8.895536,-0.10289444,-3.779962
1403636861111666500,0.008403949,0.5182701,0.079386994,8.887428,-0.1517396,-3.7227306
1403636861116666500,0.01599636,0.51336753,0.096805364,8.6998205,-0.20860554,-3.6248674
1403636861121666500,0.015981518,0.5085206,0.10584532,8.707787,-0.12724882,-3.5270972
1403636861126666500,0.015956186,0.5036643,0.116989344,8.634261,-0.08642502,-3.4212062
1403636861131666500,0.018742643,0.5008776,0.11350681,8.593339,-0.03765536,-3.4376447
1403636861136666500,0.017330013,0.49947184,0.11842109,8.373205,-0.077872254,-3.3236613
1403636861141666500,0.011773013,0.5015845,0.1121802,8.299455,0.10941372,-3.2423763
1403636861146666500,0.004798256,0.49741548,0.11500886,8.030245,0.16675527,-3.169378
1403636861151666500,-0.0014473572,0.49185103,0.10455005,7.9893947,0.2723874,-3.1939616
1403636861156666500,-0.008419938,0.48767507,0.10875292,7.785678,0.26457748,-3.1453116
1403636861161666500,-0.015366919,0.4751464,0.10454184,7.7532825,0.2646112,-3.1454232
1403636861166666500,-0.011902548,0.47028244,0.11151543,7.573828,0.24059765,-3.0805051
1403636861171666500,-0.013294347,0.45776933,0.11355463,7.6390433,0.2486729,-3.0805237
1403636861176666500,-0.016077645,0.4508116,0.114251554,7.4841733,0.25711045,-3.0318756
1403636861181666500,-0.02233196,0.44246644,0.10794066,7.5577006,0.33016148,-3.0400639
1403636861186666500,-0.02997408,0.43827164,0.10308255,7.4602346,0.28999117,-2.9424086
1403636861191666500,-0.036216356,0.42782557,0.09328923,7.574763,0.30631557,-2.8853815
1403636861196666500,-0.048728146,0.42569035,0.09402302,7.5346737,0.111524455,-2.8444004
1403636861201666500,-0.050801404,0.41870952,0.0940129,7.5758653,-0.018193757,-2.7546263
1403636861206666500,-0.050087012,0.4117261,0.096800074,7.551723,-0.16406406,-2.656701
1403636861211666500,-0.046600528,0.40128595,0.10582669,7.5763845,-0.25299442,-2.4936879
1403636861216666500,-0.03479027,0.395751,0.12601782,7.5513253,-0.26905596,-2.4121
1403636861221666500,-0.02924832,0.38811707,0.14621077,7.534591,-0.29333997,-2.3548841
1403636861226666500,-0.029975958,0.39160797,0.16716865,7.420058,-0.29276153,-2.2569096
1403636861231666500,-0.023034565,0.38605076,0.18180723,7.3460765,-0.26827294,-2.232344
1403636861236666500,-0.018163897,0.38604343,0.18881159,7.1661,-0.20273098,-2.1670594
1403636861241666500,-0.024442352,0.3797649,0.19231376,6.9697576,-0.15375936,-2.2159228
1403636861246666500,-0.028609179,0.37835288,0.18745093,6.798213,-0.10471969,-2.2404242
1403636861251666500,-0.034883074,0.37067315,0.18673314,6.594043,0.0013446569,-2.2487288
1403636861256666500,-0.03836798,0.3637177,0.18250985,6.536877,0.058106035,-2.3142152
1403636861261666500,-0.041126646,0.35253352,0.16992159,6.390284,0.13153967,-2.2981756
1403636861266666500,-0.045967646,0.34484696,0.14619283,6.3747168,0.18827213,-2.3231153
1403636861271666500,-0.05080215,0.33363432,0.12107447,6.2041187,0.2615913,-2.3398209
1403636861276666500,-0.05495312,0.32176715,0.08827734,6.3030515,0.3180784,-2.3320758
1403636861281666500,-0.058377676,0.30567557,0.06877199,6.2217827,0.21226741,-2.3401134
1403636861286666500,-0.059713043,0.300774,0.049280692,6.3365483,0.065410666,-2.3644652
1403636861291666500,-0.055450194,0.29371816,0.045906354,6.247136,-0.17019504,-2.2414968
1403636861296666500,-0.04637099,0.28466535,0.044491027,6.271526,-0.2517724,-2.2086284
1403636861301666500,-0.035896577,0.27694124,0.049426932,6.1164575,-0.3248388,-2.0937448
1403636861306666500,-0.030332677,0.27138227,0.05705573,6.149101,-0.31664714,-1.9956996
1403636861311666500,-0.0275748,0.25813633,0.076538935,6.0508327,-0.33293957,-1.9133891
1403636861316666500,-0.02552908,0.24289612,0.09033696,6.180946,-0.30900955,-1.8809943
1403636861321666500,-0.02903331,0.23730879,0.10077597,6.099093,-0.27632028,-1.8562155
1403636861326666500,-0.03047555,0.22689733,0.113215595,6.139498,-0.15445419,-1.8076559
1403636861331666500,-0.036756717,0.22266011,0.12228578,6.0090237,-0.10537522,-1.7175225
1403636861336666500,-0.047259666,0.20527576,0.1298451,6.0168533,-0.032341864,-1.7340692
1403636861341666500,-0.057045646,0.19342037,0.14093776,5.9349995,0.024756847,-1.709396
1403636861346666500,-0.068936266,0.17603916,0.14434694,5.9675093,0.01630864,-1.725719
1403636861351666500,-0.07521596,0.16419496,0.14083683,5.910293,8.557439e-05,-1.7418474
1403636861356666500,-0.08504199,0.15100764,0.13933887,6.0078645,0.05680869,-1.8647463
1403636861361666500,-0.092736445,0.13916412,0.12813902,5.9914675,0.09747989,-1.9302518
1403636861366666500,-0.09487032,0.121061966,0.11342339,5.9913173,0.13792029,-2.0039155
1403636861371666500,-0.09973451,0.11474886,0.0890664,5.92626,0.13796803,-1.9794968
1403636861376666500,-0.10047083,0.09106479,0.06251755,5.9588,0.11295892,-1.9795057
1403636861381666500,-0.09769336,0.07364934,0.041587193,5.9669514,0.03104357,-1.9303842
1403636861386666500,-0.09007404,0.04653073,0.027515758,6.0647073,-0.026950238,-1.8895438
1403636861391666500,-0.07267099,0.02845859,0.021860275,6.0646243,-0.12515591,-1.8974711
1403636861396666500,-0.056673117,0.009722395,0.030155752,6.056787,-0.20733215,-1.8320215
1403636861401666500,-0.04135514,0.00348874,0.037753735,6.081289,-0.21582387,-1.8483487
1403636861406666500,-0.02466362,-0.010393174,0.045363236,6.0409408,-0.27326998,-1.8318349
1403636861411666500,-0.011445753,-0.018718025,0.051563505,6.040859,-0.24908625,-1.8482276
1403636861416666500,-0.005910374,-0.03538377,0.0584984,5.9515395,-0.25750458,-1.7664456
1403636861421666500,-0.0010801181,-0.051354907,0.06673385,5.975315,-0.15174377,-1.8564733
1403636861426666500,-0.004602693,-0.067323804,0.07297486,5.8775454,-0.14339085,-1.8644543
1403636861431666500,-0.008119546,-0.07914887,0.0826516,6.032623,-0.1523525,-1.9381231
1403636861436666500,-0.012320332,-0.090267904,0.091690764,6.0576777,-0.21797885,-1.929868
1403636861441666500,-0.011672474,-0.10905567,0.101373374,6.1475782,-0.22672693,-2.0198154
1403636861446666500,-0.012388848,-0.11740491,0.110409915,6.1967306,-0.2352567,-2.0280426
1403636861451666500,-0.0124109015,-0.123721346,0.11526835,6.384366,-0.2522216,-2.1426065
1403636861456666500,-0.009634905,-0.13277659,0.11454676,6.4253535,-0.26882428,-2.1672044
1403636861461666500,-0.004064642,-0.14602146,0.106837615,6.555981,-0.23677127,-2.2165675
1403636861466666500,0.0015064254,-0.15089446,0.09844962,6.4908533,-0.28556883,-2.240945
1403636861471666500,0.009886779,-0.16065845,0.0907381,6.6461034,-0.24555571,-2.200632
1403636861476666500,0.019627295,-0.1731777,0.09139207,6.5896497,-0.31101415,-2.151675
1403636861481666500,0.035643406,-0.18713544,0.09412457,6.704555,-0.33631393,-2.1113503
1403636861486666500,0.046758123,-0.1948102,0.10525496,6.745792,-0.34488904,-2.1033947
1403636861491666500,0.0592516,-0.20254247,0.11642249,7.0555487,-0.18283421,-2.2347975
1403636861496666500,0.066865556,-0.19556515,0.124797136,6.998231,-0.11747129,-2.2836185
1403636861501666500,0.0654893,-0.19978343,0.12690149,7.137233,-0.15038472,-2.300258
1403636861506666500,0.061314367,-0.19836815,0.13038105,6.990539,-0.25595826,-2.2345426
1403636861511666500,0.05645468,-0.20466991,0.12899171,7.05601,-0.32927936,-2.2753844
1403636861516666500,0.053680025,-0.20399138,0.11994217,7.0882854,-0.3126497,-2.4058797
1403636861521666500,0.047448598,-0.20960608,0.108801246,7.2431736,-0.28807062,-2.5611854
1403636861526666500,0.035661228,-0.20612063,0.0913755,7.275506,-0.23879972,-2.6427486
1403636861531666500,0.025946312,-0.20820503,0.078120306,7.2508774,-0.2548977,-2.6426294
1403636861536666500,0.017642967,-0.20681497,0.057182852,7.266977,-0.23837462,-2.6507201
1403636861541666500,0.013498269,-0.22284406,0.045296405,7.3160815,-0.2466053,-2.6753242
1403636861546666500,0.015636109,-0.22775643,0.038303856,7.496162,-0.27964294,-2.6350749
1403636861551666500,0.020560198,-0.24104802,0.031296793,7.7416778,-0.3044918,-2.6684566
1403636861556666500,0.024773829,-0.24245505,0.028495286,7.962577,-0.2476244,-2.7343616
1403636861561666500,0.04009793,-0.23829822,0.034761164,8.167135,-0.1907443,-2.7921174
1403636861566666500,0.047078587,-0.22780377,0.03824768,8.380059,-0.019564262,-2.907017
1403636861571666500,0.04427371,-0.22152154,0.048039455,8.355621,0.0051338794,-2.98853
1403636861576666500,0.0449562,-0.21037248,0.058529098,8.38847,0.03800788,-3.0865135
1403636861581666500,0.04213714,-0.21386872,0.068314955,8.282055,-0.010864297,-3.0862362
1403636861586666500,0.03451457,-0.21318023,0.0662303,8.42129,-0.026982218,-3.2090058
1403636861591666500,0.023381494,-0.2152917,0.066953,8.404925,-0.09206738,-3.2905567
1403636861596666500,0.013675205,-0.22364329,0.059270073,8.552345,-0.124806814,-3.3481193
1403636861601666500,0.004641764,-0.22018468,0.0467355,8.5112705,-0.22261645,-3.315194
1403636861606666500,-0.0043669716,-0.21948385,0.028590832,8.609461,-0.27160925,-3.3071506
1403636861611666500,-0.012052126,-0.21742035,0.027925912,8.429271,-0.34491685,-3.249481
1403636861616666500,-0.012726985,-0.21459347,0.022333074,8.494817,-0.29604262,-3.1924627
1403636861621666500,-0.014122136,-0.21318595,0.018845905,8.42114,-0.29610038,-3.0698133
1403636861626666500,-0.012011029,-0.20969361,0.012556437,8.519367,-0.2799272,-3.0292397
1403636861631666500,-0.007857077,-0.2124938,0.0153408535,8.371975,-0.28801543,-2.9799182
1403636861636666500,0.003995605,-0.21738492,0.016703475,8.552044,-0.27193403,-2.996787
1403636861641666500,0.015114881,-0.21813764,0.023672331,8.543734,-0.33717552,-2.9804223
1403636861646666500,0.031820603,-0.21814333,0.031321187,8.666502,-0.2636238,-3.1358895
1403636861651666500,0.042921655,-0.21258633,0.054362107,8.715654,-0.24727494,-3.22585
1403636861656666500,0.049856402,-0.21189964,0.08088437,8.887615,-0.23918167,-3.373277
1403636861661666500,0.058180623,-0.20357314,0.09905164,8.838516,-0.23905417,-3.4793923
1403636861666666500,0.06445045,-0.2043259,0.10953148,8.953094,-0.32886478,-3.6348982
1403636861671666500,0.06929987,-0.20299675,0.11654766,8.879253,-0.44316736,-3.6593103
1403636861676666500,0.07070426,-0.2072211,0.10958013,8.862922,-0.5167597,-3.7329512
1403636861681666500,0.07697908,-0.21285611,0.093528435,8.789201,-0.60668075,-3.7656324
1403636861686666500,0.07836927,-0.22191769,0.08443208,8.7400465,-0.5984311,-3.716574
1403636861691666500,0.07629096,-0.22329459,0.0781354,8.7237015,-0.5575183,-3.6919951
1403636861696666500,0.07767411,-0.22954826,0.07881367,8.62553,-0.47572863,-3.6673744
1403636861701666500,0.07420287,-0.23014139,0.08225924,8.715786,-0.30417424,-3.5939362
1403636861706666500,0.07207433,-0.2412505,0.0913246,8.764716,-0.32884938,-3.430658
1403636861711666500,0.07412272,-0.2565381,0.09896937,8.797364,-0.29646474,-3.3001328
1403636861716666500,0.082430325,-0.27325585,0.10311194,8.887148,-0.329483,-3.1206293
1403636861721666500,0.08592022,-0.28645915,0.10375102,9.149038,-0.26451227,-3.1293628
1403636861726666500,0.09078439,-0.30453384,0.103680655,9.271832,-0.15064356,-3.1134953
1403636861731666500,0.0929042,-0.30798283,0.10153781,9.484789,-0.060903847,-3.1956077
1403636861736666500,0.09220602,-0.3072783,0.105734006,9.419429,-0.036172632,-3.2854788
1403636861741666500,0.090120964,-0.30520222,0.11413516,9.435924,-0.08479254,-3.4325273
1403636861746666500,0.085919715,-0.30665854,0.121184975,9.133166,-0.15790154,-3.5138876
1403636861751666500,0.08522571,-0.31296867,0.12539154,9.043315,-0.1658964,-3.6283617
1403636861756666500,0.07617731,-0.32213703,0.12756787,8.757034,-0.24737753,-3.7670903
1403636861761666500,0.06992934,-0.33958578,0.1226764,8.708076,-0.23925391,-3.857222
1403636861766666500,0.059481718,-0.3542434,0.11502321,8.601586,-0.2964845,-3.8571346
1403636861771666500,0.05043716,-0.37021738,0.114978045,8.667303,-0.20681424,-3.8819962
1403636861776666500,0.044133045,-0.37786576,0.11570506,8.601636,-0.2640181,-3.7836843
1403636861781666500,0.044797175,-0.38896888,0.123360336,8.773491,-0.28051037,-3.7432225
1403636861786666500,0.049599998,-0.39314824,0.13804197,8.781383,-0.32953516,-3.6369052
1403636861791666500,0.06066554,-0.40010744,0.16314627,9.026755,-0.3297947,-3.5801404
1403636861796666500,0.06966997,-0.40219933,0.17708465,9.116652,-0.29730105,-3.5230095
1403636861801666500,0.0842649,-0.40917563,0.18890499,9.296737,-0.24847426,-3.5233412
1403636861806666500,0.093306325,-0.40503478,0.20148872,9.32947,-0.24839562,-3.564334
1403636861811666500,0.09821155,-0.4071283,0.20287406,9.411525,-0.22379766,-3.6627877
1403636861816666500,0.094072394,-0.40155205,0.19870897,9.272464,-0.16643919,-3.7610247
1403636861821666500,0.08370086,-0.40435296,0.18686226,9.264735,-0.2071661,-3.9166422
1403636861826666500,0.0740108,-0.3981453,0.17646326,9.142289,-0.30512977,-4.0392513
1403636861831666500,0.069872566,-0.41005385,0.16184254,9.077155,-0.41958594,-4.1539
1403636861836666500,0.058773197,-0.40729612,0.14931034,9.020172,-0.4688366,-4.2520256
1403636861841666500,0.049066015,-0.40933162,0.13459827,9.102419,-0.44456765,-4.31745
1403636861846666500,0.039345495,-0.41065153,0.12685259,9.184536,-0.3548468,-4.3665056
1403636861851666500,0.028201394,-0.40916792,0.12821284,9.3238735,-0.30608937,-4.3583694
1403636861856666500,0.02053336,-0.40491182,0.13518426,9.528747,-0.33097714,-4.3666477
1403636861861666500,0.021872766,-0.4049347,0.15547147,9.635046,-0.41277766,-4.285097
1403636861866666500,0.02882769,-0.39512667,0.17356674,9.946125,-0.38023517,-4.285118
1403636861871666500,0.04411892,-0.3854348,0.19661777,10.019604,-0.3718045,-4.236138
1403636861876666500,0.053188123,-0.3714633,0.19727181,10.158602,-0.3308675,-4.219461
1403636861881666500,0.06295288,-0.36590943,0.20007502,10.101317,-0.3143322,-4.2687
1403636861886666500,0.06510555,-0.347077,0.19938083,10.093432,-0.2734351,-4.4404564
1403636861891666500,0.066527985,-0.3331946,0.19803186,9.872451,-0.2241022,-4.513979
1403636861896666500,0.060305335,-0.32203755,0.19105373,9.807244,-0.15869026,-4.64451
1403636861901666500,0.054738738,-0.3067936,0.1911505,9.553392,-0.2076272,-4.611484
1403636861906666500,0.046402328,-0.30401704,0.18349217,9.455333,-0.19133568,-4.6766534
1403636861911666500,0.037341945,-0.2970985,0.17727257,9.242248,-0.21586804,-4.6354485
1403636861916666500,0.026218139,-0.2956344,0.16604514,9.31601,-0.117958605,-4.6842804
1403636861921666500,0.019260935,-0.28444874,0.15697433,9.348533,-0.1672186,-4.602131
1403636861926666500,0.012318216,-0.27945262,0.14152981,9.585615,-0.11024537,-4.5282764
1403636861931666500,0.006741695,-0.2654884,0.14362992,9.634284,-0.11025822,-4.42178
1403636861936666500,0.0102501735,-0.25776285,0.14427195,9.928627,-0.0940648,-4.446125
1403636861941666500,0.017222904,-0.24521355,0.14636184,10.059205,-0.14301296,-4.3804364
1403636861946666500,0.022114106,-0.23891123,0.1512213,10.369841,-0.19211407,-4.347361
1403636861951666500,0.035351254,-0.22637703,0.16658162,10.54163,-0.24922392,-4.3715897
1403636861956666500,0.049280293,-0.22636452,0.17633949,10.689076,-0.28185558,-4.4124126
1403636861961666500,0.06252407,-0.21729752,0.18888408,10.721734,-0.22449233,-4.5024233
1403636861966666500,0.07299968,-0.21168709,0.1951331,10.836126,-0.15905267,-4.633154
1403636861971666500,0.07789474,-0.20122488,0.20211177,10.860459,-0.12624428,-4.706621
1403636861976666500,0.080013596,-0.18938205,0.19795312,10.737734,-0.13429104,-4.7881274
1403636861981666500,0.08005526,-0.17128652,0.19243042,10.508828,-0.13404477,-4.902027
1403636861986666500,0.08216528,-0.16781624,0.17989533,10.370034,-0.13391282,-4.958829
1403636861991666500,0.082884274,-0.16296522,0.1638785,10.173939,-0.10097632,-5.0399237
1403636861996666500,0.0829001,-0.15880428,0.14923808,10.018384,-0.010694827,-5.1454415
1403636862001666500,0.07457017,-0.15462202,0.12480402,10.034185,0.062915355,-5.242409
1403636862006666500,0.07044629,-0.14903767,0.10597572,10.083272,-0.0025844635,-5.315031
1403636862011666500,0.06425487,-0.14414665,0.07737273,10.238765,-0.09274249,-5.3793526
1403636862016666500,0.062864505,-0.14417349,0.059926976,10.247104,-0.15015548,-5.3060226
1403636862021666500,0.065696634,-0.14275926,0.04384509,10.532656,-0.09291502,-5.362527
1403636862026666500,0.064309455,-0.13927385,0.040353063,10.679165,-0.027577003,-5.346121
1403636862031666500,0.059485666,-0.13296108,0.031979952,11.1439495,0.062054284,-5.402925
1403636862036666500,0.053932287,-0.13016027,0.02780578,11.2747555,0.037317004,-5.378625
1403636862041666500,0.04141634,-0.1273509,0.015251521,11.535986,0.077901825,-5.3951473
1403636862046666500,0.034470968,-0.119696766,0.0048238076,11.55258,0.028872304,-5.354469
1403636862051666500,0.017748095,-0.12038265,-0.010530841,11.691237,0.11861362,-5.403632
1403636862056666500,0.0066130534,-0.11970152,-0.021674063,11.536431,0.061505646,-5.4279656
1403636862061666500,-0.003850557,-0.12040757,-0.035627138,11.503589,0.11882077,-5.4687376
1403636862066666500,-0.01775565,-0.11832975,-0.05095091,11.284099,-0.052650373,-5.46061
1403636862071666500,-0.029597841,-0.123888046,-0.067022294,11.219242,-0.09340284,-5.525851
1403636862076666500,-0.03724525,-0.121811196,-0.07538751,10.9993105,-0.19929217,-5.5583124
1403636862081666500,-0.04070217,-0.1294377,-0.080306545,11.000273,-0.2891655,-5.6316676
1403636862086666500,-0.044183217,-0.12735485,-0.08378726,10.918692,-0.32170698,-5.639812
1403636862091666500,-0.0518424,-0.13078578,-0.09078191,11.065677,-0.28909454,-5.7049646
1403636862096666500,-0.055316918,-0.13147084,-0.09287539,11.066151,-0.34636593,-5.70514
1403636862101666500,-0.05602383,-0.13495745,-0.09987189,11.131985,-0.39567247,-5.656821
1403636862106666500,-0.05323065,-0.13424148,-0.094284385,11.238498,-0.43684784,-5.6325846
1403636862111666500,-0.04837156,-0.13700564,-0.08591889,11.434198,-0.40469706,-5.5758986
1403636862116666500,-0.03999976,-0.13002093,-0.0705407,11.507225,-0.36387378,-5.5998635
1403636862121666500,-0.029558681,-0.1292815,-0.053806078,11.694294,-0.2823981,-5.6321454
1403636862126666500,-0.023297764,-0.12298305,-0.041939374,11.840281,-0.19254728,-5.6806154
1403636862131666500,-0.016349949,-0.12304333,-0.035658564,11.7579775,-0.0943316,-5.631642
1403636862136666500,-0.014278822,-0.120975494,-0.039843183,11.781884,-0.012494299,-5.6234674
1403636862141666500,-0.015693419,-0.12589592,-0.047526386,11.708326,0.044802867,-5.5667367
1403636862146666500,-0.017093249,-0.1307709,-0.0552213,11.683978,0.044871792,-5.59119
1403636862151666500,-0.017794393,-0.1370262,-0.049666908,11.675749,0.069389,-5.648076
1403636862156666500,-0.017093964,-0.1390603,-0.055275705,11.798412,0.028457427,-5.7212605
1403636862161666500,-0.014286198,-0.14113373,-0.057382192,11.766276,-0.044999424,-5.7455344
1403636862166666500,-0.014983527,-0.14595976,-0.069978565,11.856489,-0.09405808,-5.8025746
1403636862171666500,-0.0135722235,-0.14946398,-0.06789075,11.742692,-0.13481866,-5.786281
1403636862176666500,-0.011481456,-0.15218623,-0.07141307,11.873414,-0.15938534,-5.859441
1403636862181666500,-0.0107475,-0.15146406,-0.053250175,11.841557,-0.257677,-5.8351054
1403636862186666500,-0.0023874268,-0.15136595,-0.035827186,12.045482,-0.28245836,-5.9001155
1403636862191666500,0.0060341135,-0.14225616,-0.0120497905,12.013698,-0.39660722,-5.948558
1403636862196666500,0.010933362,-0.12895148,0.017285187,12.12704,-0.363569,-6.061828
1403636862201666500,0.021405049,-0.11573887,0.043854076,12.0453,-0.37955505,-6.053433
1403636862206666500,0.027003936,-0.10738911,0.04944477,12.019579,-0.2970509,-6.150128
1403636862211666500,0.02843275,-0.09634167,0.05231585,11.725829,-0.2883814,-6.1007915
1403636862216666500,0.023576014,-0.08663319,0.053758103,11.610638,-0.22253044,-6.124644
1403636862221666500,0.024970569,-0.08529559,0.055884946,11.365794,-0.21412289,-6.0838356
1403636862226666500,0.029132016,-0.08115814,0.05659439,11.291417,-0.14854816,-6.06743
1403636862231666500,0.024948902,-0.07352185,0.060132403,11.136572,-0.18949588,-6.0024657
1403636862236666500,0.027738564,-0.064464,0.06503126,11.217584,-0.16487856,-6.0104723
1403636862241666500,0.025654249,-0.053335786,0.061589275,11.193172,-0.2057983,-5.9616656
1403636862246666500,0.029812984,-0.042232975,0.054637525,11.232874,-0.14037289,-5.9208784
1403636862251666500,0.03329342,-0.024852896,0.052611653,11.151194,-0.18929902,-5.83956
1403636862256666500,0.031899534,-0.010247992,0.0477794,11.183471,-0.19741267,-5.7907624
1403636862261666500,0.03328494,0.0050492343,0.044345174,11.125498,-0.16442382,-5.7580466
1403636862266666500,0.035375647,0.008533267,0.049238015,11.150543,-0.22993562,-5.717621
1403636862271666500,0.031876825,0.027315212,0.047916476,11.019074,-0.20507078,-5.6605506
1403636862276666500,0.031846516,0.034980483,0.06467174,10.928524,-0.15605278,-5.611768
1403636862281666500,0.026254006,0.048226148,0.07795529,10.902642,-0.04965571,-5.5953736
1403636862286666500,0.021337025,0.06146022,0.08567311,10.755199,-0.041376825,-5.489711
1403636862291666500,0.012256689,0.07329475,0.08780222,10.730122,-0.008673899,-5.3921027
1403636862296666500,0.0066385046,0.084459044,0.093425155,10.525672,-0.016552,-5.3107347
1403636862301666500,0.0044987723,0.09909172,0.085804716,10.402407,0.057375584,-5.196718
1403636862306666500,-0.005990155,0.10955838,0.08235943,10.271258,0.10672813,-5.107125
1403636862311666500,-0.018530332,0.12142023,0.07404399,10.238071,0.164357,-5.107084
1403636862316666500,-0.024112858,0.13396268,0.06711656,10.14016,0.10752459,-5.0745673
1403636862321666500,-0.03454102,0.14439514,0.053208653,10.237999,0.13220198,-5.033853
1403636862326666500,-0.045722164,0.1506496,0.035097662,10.09145,0.050801396,-4.944471
1403636862331666500,-0.054069467,0.15831661,0.017696057,10.148268,0.14099556,-4.9527235
1403636862336666500,-0.058272235,0.15969893,0.0023488738,10.083157,0.116647385,-4.9040112
1403636862341666500,-0.070088185,0.1631707,0.0051562227,10.197568,0.11650121,-4.8795505
1403636862346666500,-0.07916517,0.16803682,0.0065563954,10.0997715,0.059364896,-4.806176
1403636862351666500,-0.08609652,0.17430024,0.01425137,10.230339,0.09189397,-4.7652845
1403636862356666500,-0.09513868,0.18754397,0.027542863,10.20547,0.14101996,-4.7405567
1403636862361666500,-0.10137228,0.19729686,0.032459084,10.303229,0.23903534,-4.699627
1403636862366666500,-0.12855509,0.20772909,0.032505337,10.131574,0.28012812,-4.658727
1403636862371666500,-0.14247137,0.21816285,0.029752377,10.139779,0.29655942,-4.6260448
1403636862376666500,-0.15366185,0.22301526,0.032547895,9.919412,0.19051634,-4.568695
1403636862381666500,-0.16201735,0.22788186,0.031176616,9.886675,0.21508823,-4.576814
1403636862386666500,-0.17596161,0.23272929,0.028412227,9.764189,0.22331901,-4.568554
1403636862391666500,-0.19336596,0.23550382,0.025629986,9.878605,0.2151254,-4.5849886
1403636862396666500,-0.20592606,0.24385403,0.015885536,9.838116,0.109181605,-4.617732
1403636862401666500,-0.2114982,0.2487305,0.0026547946,9.8383465,0.09306463,-4.6996264
1403636862406666500,-0.21707168,0.25636208,-0.019647982,9.781509,0.08491411,-4.6262617
1403636862411666500,-0.22125444,0.25355694,-0.039184254,9.76535,0.15022343,-4.6674604
1403636862416666500,-0.2365838,0.26188004,-0.057302814,9.708503,0.15838571,-4.651232
1403636862421666500,-0.24423167,0.26951993,-0.066342905,9.675876,0.21551377,-4.667594
1403636862426666500,-0.25328335,0.27574915,-0.06561801,9.545124,0.26447552,-4.7000556
1403636862431666500,-0.26235306,0.27990484,-0.06561154,9.463616,0.2237671,-4.7162676
1403636862436666500,-0.27211535,0.28824258,-0.0690808,9.390379,0.16677405,-4.7161183
1403636862441666500,-0.27701858,0.2917043,-0.07326941,9.292683,0.093426496,-4.683292
1403636862446666500,-0.2783992,0.30635878,-0.07951027,9.325634,0.0040354314,-4.699554
1403636862451666500,-0.27636096,0.31053662,-0.08230752,9.17107,-0.17495377,-4.707508
1403636862456666500,-0.27220982,0.31266755,-0.08091475,9.147046,-0.32124174,-4.789249
1403636862461666500,-0.2569197,0.31754094,-0.06202532,8.926739,-0.47628924,-4.682244
1403636862466666500,-0.24021658,0.31761122,-0.028510641,8.91811,-0.54180664,-4.6081276
1403636862471666500,-0.21445796,0.3141716,0.013359804,8.80306,-0.52602404,-4.5013804
1403636862476666500,-0.19563457,0.31496036,0.048235137,8.900178,-0.46105686,-4.4848747
1403636862481666500,-0.18099421,0.32129204,0.06917857,8.956813,-0.43672043,-4.4683495
1403636862486666500,-0.17467579,0.32828504,0.06987691,9.15217,-0.34705672,-4.4520802
1403636862491666500,-0.16837052,0.32613742,0.057317484,9.086691,-0.23298007,-4.3786645
1403636862496666500,-0.16761568,0.32540208,0.033599366,9.176418,-0.11881362,-4.35446
1403636862501666500,-0.16481608,0.32046884,0.011270929,9.062478,-0.069925085,-4.2810884
1403636862506666500,-0.16129506,0.31281835,-0.0020129047,9.250034,0.036098227,-4.338756
1403636862511666500,-0.16756469,0.31001842,-0.0055070184,9.225684,0.036178764,-4.3960686
1403636862516666500,-0.16406801,0.30587745,-0.0062247925,9.388852,0.05267571,-4.519004
1403636862521666500,-0.15920597,0.31495464,-0.0041139685,9.331915,-0.05319047,-4.535247
1403636862526666500,-0.14806068,0.31637347,0.005650673,9.364312,-0.036949884,-4.5106525
1403636862531666500,-0.14598224,0.32402366,0.017551694,9.135751,-0.045131583,-4.493994
1403636862536666500,-0.14392406,0.3191475,0.026599634,9.062389,-0.09416118,-4.4611955
1403636862541666500,-0.14049727,0.31634748,0.032871995,8.834344,-0.22472346,-4.436542
1403636862546666500,-0.13287988,0.31149727,0.04400568,8.818061,-0.3227016,-4.411927
1403636862551666500,-0.122512884,0.31011936,0.064923644,8.671137,-0.486037,-4.297036
1403636862556666500,-0.10446165,0.3017879,0.095582634,8.556383,-0.5027082,-4.1906514
1403636862561666500,-0.08500428,0.30321538,0.1332675,8.343483,-0.45398924,-4.0516195
1403636862566666500,-0.06626477,0.29351765,0.17719747,8.236728,-0.42958635,-3.8392797
1403636862571666500,-0.05029673,0.28382248,0.22673096,8.211946,-0.40534338,-3.741504
1403636862576666500,-0.030823357,0.27061298,0.26853368,8.301749,-0.27525675,-3.7012565
1403636862581666500,-0.014823072,0.26435673,0.3061661,8.375325,-0.12878281,-3.7099507
1403636862586666500,-0.0057767853,0.2567089,0.32910454,8.604193,0.04205003,-3.7757587
1403636862591666500,-0.0071704164,0.24838944,0.32760817,8.898082,0.26203084,-3.8412457
1403636862596666500,-0.012710996,0.23728307,0.30380297,9.167198,0.45787182,-3.9145796
1403636862601666500,-0.025144301,0.2282325,0.26050237,9.444163,0.59687394,-4.077513
1403636862606666500,-0.038298152,0.21704684,0.21793711,9.476713,0.58905464,-4.159149
1403636862611666500,-0.046592616,0.20241165,0.18096612,9.566545,0.6791553,-4.2736964
1403636862616666500,-0.053587295,0.1821716,0.15999219,9.354984,0.57318324,-4.265952
1403636862621666500,-0.06404898,0.16888735,0.15017991,9.273804,0.48338023,-4.233417
1403636862626666500,-0.07247267,0.15072931,0.15360859,9.01319,0.32010356,-4.200987
1403636862631666500,-0.07735967,0.14164658,0.14939527,9.005214,0.24656238,-4.233738
1403636862636666500,-0.08436208,0.14092113,0.15149367,8.793168,0.21400242,-4.1520233
1403636862641666500,-0.08716229,0.14368798,0.14941214,8.678971,0.19775476,-4.0784316
1403636862646666500,-0.09418552,0.14293878,0.15780717,8.344368,0.08371008,-3.9148877
1403636862651666500,-0.0997914,0.14151925,0.16549648,8.287127,-0.038671594,-3.8412242
1403636862656666500,-0.1019307,0.13592522,0.18576707,8.099075,-0.15291648,-3.8411715
1403636862661666500,-0.09636868,0.12968083,0.2081057,8.213358,-0.24305543,-3.890307
1403636862666666500,-0.08800628,0.13528305,0.23468578,8.172444,-0.30024278,-3.8821356
1403636862671666500,-0.07545429,0.13321991,0.26052448,8.24611,-0.34133047,-3.8823197
1403636862676666500,-0.0670887,0.13600865,0.28361344,8.213519,-0.4312285,-3.8577554
1403636862681666500,-0.053820275,0.13742715,0.30454636,8.2872715,-0.39058468,-3.890738
1403636862686666500,-0.04336322,0.14440203,0.32344595,8.090959,-0.34126213,-3.8417165
1403636862691666500,-0.03428548,0.14583828,0.33040437,8.099153,-0.18606421,-3.907555
1403636862696666500,-0.03289681,0.15215746,0.3373845,7.9847026,0.010269,-3.9160874
1403636862701666500,-0.03500641,0.14873077,0.33384255,8.050158,0.21447155,-3.9656353
1403636862706666500,-0.044078447,0.1543401,0.307295,8.058119,0.3452201,-3.9736733
1403636862711666500,-0.057324626,0.1515213,0.26954672,8.0988245,0.3859211,-3.8914962
1403636862716666500,-0.0670732,0.14868483,0.23182239,8.066209,0.40221664,-3.7930682
1403636862721666500,-0.06847725,0.13539416,0.2052566,8.001042,0.36140868,-3.6785767
1403636862726666500,-0.06288979,0.14024206,0.18783036,7.9192348,0.2718025,-3.5640185
1403636862731666500,-0.0538254,0.14300306,0.18926206,7.8616257,0.05972742,-3.580141
1403636862736666500,-0.042671226,0.15414642,0.19211385,7.8120756,-0.11156455,-3.5227413
1403636862741666500,-0.021064825,0.16530322,0.19986133,7.6641264,-0.29122192,-3.4980493
1403636862746666500,-0.005718462,0.18063213,0.20412531,7.4507337,-0.42201668,-3.4733014
1403636862751666500,0.010317154,0.18832004,0.21181288,7.1394315,-0.37314597,-3.3836296
1403636862756666500,0.0151840225,0.1855493,0.22016062,7.000319,-0.30788213,-3.342955
1403636862761666500,0.014470629,0.18205683,0.23339693,6.705594,-0.2916749,-3.26951
1403636862766666500,0.012370996,0.18275213,0.24457471,6.697346,-0.29159772,-3.261191
1403636862771666500,0.008180223,0.18761456,0.25995427,6.5744557,-0.2995178,-3.1955943
1403636862776666500,0.010266818,0.19668163,0.2669448,6.533646,-0.23366992,-3.122057
1403636862781666500,0.013754584,0.20709716,0.27392098,6.2470775,-0.20031343,-2.9585328
1403636862786666500,0.015152626,0.21754171,0.27323315,6.1817718,-0.1343821,-2.8850732
1403636862791666500,0.018671326,0.2286297,0.26206163,5.911987,-0.07636959,-2.746258
1403636862796666500,0.02213078,0.23353364,0.2522312,5.8965054,0.11146838,-2.7715132
1403636862801666500,0.027033366,0.23069198,0.24733077,5.7164326,0.0708085,-2.7141738
1403636862806666500,0.033310898,0.23347867,0.23128667,5.7251883,0.14454171,-2.6737032
1403636862811666500,0.038237803,0.23900755,0.21112816,5.643364,0.070834786,-2.6657023
1403636862816666500,0.046624728,0.24042696,0.18675844,5.766297,0.07061727,-2.674344
1403636862821666500,0.05364182,0.23898025,0.16241279,5.693175,0.038247373,-2.6010242
1403636862826666500,0.060648777,0.24386384,0.13038594,5.808128,0.0791834,-2.5851393
1403636862831666500,0.06276586,0.24658196,0.10466054,5.68603,0.08732874,-2.5772676
1403636862836666500,0.05999898,0.24102063,0.07743916,5.784603,0.16924518,-2.5528486
1403636862841666500,0.059364356,0.24863721,0.055193234,5.8339148,0.1534578,-2.4956045
1403636862846666500,0.055206828,0.24586038,0.040514264,5.956727,0.19455673,-2.4464905
1403636862851666500,0.03714808,0.24924736,0.027367432,5.957742,0.18737344,-2.2992895
1403636862856666500,0.028816022,0.24850659,0.0078568645,6.0399866,0.20395137,-2.2093914
1403636862861666500,0.01909829,0.2519078,-0.007393401,6.0079746,0.1553955,-2.1684394
1403636862866666500,0.009336121,0.25257814,-0.017160814,6.057408,0.19615315,-2.1276262
1403636862871666500,0.0002995506,0.25595495,-0.024009194,5.9192066,0.1558904,-2.102951
1403636862876666500,-0.010853879,0.25723818,-0.032999825,5.8382916,0.20517336,-2.0048664
1403636862881666500,-0.021303274,0.25782254,-0.04195496,5.7245965,0.1973858,-1.9720361
1403636862886666500,-0.026168577,0.24936132,-0.051620137,5.635201,0.14062603,-1.914623
1403636862891666500,-0.03384886,0.24308072,-0.055802774,5.627077,0.11607684,-1.9472718
1403636862896666500,-0.042917468,0.2381594,-0.055061158,5.5865526,0.10800671,-1.9063655
1403636862901666500,-0.04921622,0.2360838,-0.061390948,5.6190886,0.13222119,-1.9636424
1403636862906666500,-0.05622036,0.23054856,-0.062878415,5.6760297,0.16446842,-2.012735
1403636862911666500,-0.07089775,0.2291959,-0.069948,5.7904987,0.17200087,-2.119017
1403636862916666500,-0.079264306,0.22497986,-0.075476825,5.7662783,0.090396345,-2.1598504
1403636862921666500,-0.086962946,0.22566167,-0.09367846,5.8563724,0.097993046,-2.2414966
1403636862926666500,-0.08974821,0.21861264,-0.10263443,5.758594,0.00031396747,-2.2252045
1403636862931666500,-0.093260236,0.21376225,-0.11602272,5.9056177,-0.016644364,-2.3067882
1403636862936666500,-0.09118704,0.20673849,-0.118748784,5.7828655,-0.049300488,-2.315056
1403636862941666500,-0.08981196,0.19914038,-0.12242,5.929499,0.007529524,-2.322962
1403636862946666500,-0.089091934,0.19423452,-0.12023336,5.8642917,-0.06542148,-2.2413814
1403636862951666500,-0.087704666,0.1838476,-0.12456389,6.027471,-0.10651164,-2.2494144
1403636862956666500,-0.08979336,0.1775684,-0.121035025,5.9867053,-0.1388979,-2.1759152
1403636862961666500,-0.08838806,0.17623155,-0.12600386,6.1584945,-0.18805017,-2.1677575
1403636862966666500,-0.084893174,0.17273545,-0.12665945,6.1259427,-0.23683822,-2.1187441
1403636862971666500,-0.084210135,0.16719495,-0.12884198,6.199191,-0.22073345,-2.1268861
1403636862976666500,-0.08141152,0.1664476,-0.12873349,6.076847,-0.2530474,-2.0696816
1403636862981666500,-0.076542474,0.16018331,-0.13018104,6.068213,-0.23681062,-2.085934
1403636862986666500,-0.07585896,0.15245648,-0.123753995,5.872318,-0.29364327,-2.036817
1403636862991666500,-0.06612191,0.13997744,-0.1218414,5.920155,-0.23683442,-2.0939174
1403636862996666500,-0.06197246,0.13301234,-0.11770128,5.8458962,-0.19630575,-2.1756496
1403636863001666500,-0.059916414,0.12122807,-0.106651455,5.8451467,-0.14757654,-2.2000988
1403636863006666500,-0.06065365,0.11497272,-0.09478402,5.746748,-0.13149367,-2.2493122
1403636863011666500,-0.06142374,0.096246935,-0.08875853,5.835533,-0.01781948,-2.3143535
1403636863016666500,-0.06984363,0.08444765,-0.08543563,5.9495807,0.014173076,-2.3958135
1403636863021666500,-0.081739105,0.070527904,-0.091871604,6.104735,0.013570112,-2.4608502
1403636863026666500,-0.08943633,0.053836055,-0.09758769,6.2517366,-0.01134182,-2.4851346
1403636863031666500,-0.092214055,0.037170216,-0.100442514,6.3825707,-0.101143084,-2.395332
1403636863036666500,-0.08593012,0.028165996,-0.101911485,6.570762,-0.20758113,-2.3954458
1403636863041666500,-0.07686687,0.014291609,-0.0998894,6.7097554,-0.29770017,-2.3711007
1403636863046666500,-0.061508812,0.009486666,-0.091549546,6.873469,-0.37959367,-2.3142757
1403636863051666500,-0.047563575,0.0018518958,-0.081791356,6.939158,-0.5022703,-2.2981591
1403636863056666500,-0.028041385,-0.005062336,-0.065777496,6.9882536,-0.54343826,-2.2575624
1403636863061666500,-0.0050460026,-0.009898366,-0.04905693,6.9063773,-0.54369366,-2.2249112
1403636863066666500,0.017934613,-0.009182399,-0.04211944,6.8076015,-0.48670784,-2.3227205
1403636863071666500,0.031138904,-0.009143902,-0.031691592,6.700737,-0.38894802,-2.4124808
1403636863076666500,0.02757845,-0.0077157374,-0.026894104,6.6097283,-0.07067546,-2.5428603
1403636863081666500,0.016287006,-0.013263388,-0.008142661,6.429853,0.37014875,-2.5668256
1403636863086666500,-0.010999121,-0.017470667,0.00015257671,6.4717603,0.7207956,-2.6562169
1403636863091666500,-0.04453907,-0.030034365,0.0021921135,6.415626,0.9980972,-2.6235964
1403636863096666500,-0.087705456,-0.041780308,-0.002667021,6.7110066,1.1031497,-2.6408362
1403636863101666500,-0.12593353,-0.05285471,-0.012337428,6.874915,0.9885955,-2.5841112
1403636863106666500,-0.15852594,-0.05833035,-0.032465916,7.317506,0.69412804,-2.658261
1403636863111666500,-0.17516929,-0.061114773,-0.0603395,7.588039,0.37572172,-2.6261778
1403636863116666500,-0.17858958,-0.06317059,-0.07848409,7.9810796,0.130563,-2.68428
1403636863121666500,-0.16255951,-0.053488,-0.086177334,8.111245,-0.097456746,-2.774032
1403636863126666500,-0.13468248,-0.04378497,-0.090380624,8.282117,-0.2522328,-2.8883348
1403636863131666500,-0.1054656,-0.034845546,-0.08550903,8.125882,-0.36589885,-2.96109
1403636863136666500,-0.06577457,-0.032132044,-0.081352636,8.125077,-0.43940032,-3.0751932
1403636863141666500,-0.026804604,-0.032272905,-0.07368763,7.8870106,-0.5947429,-3.1401114
1403636863146666500,0.009388618,-0.033716902,-0.06394938,7.837382,-0.6200907,-3.3036242
1403636863151666500,0.03863273,-0.032991484,-0.04722729,7.6405716,-0.52248424,-3.34443
1403636863156666500,0.05672083,-0.03913164,-0.022884931,7.4687915,-0.17119434,-3.376706
1403636863161666500,0.060147934,-0.03755478,0.004952822,7.2815027,0.3680811,-3.1962852
1403636863166666500,0.042665847,-0.04576789,0.043338645,7.4955792,0.7267293,-3.148285
1403636863171666500,0.0043294057,-0.04701394,0.058793027,7.7257557,1.0113968,-2.9784906
1403636863176666500,-0.031127699,-0.05525638,0.06799054,8.135833,1.0756892,-2.923001
1403636863181666500,-0.06447495,-0.050994188,0.06252208,8.439339,1.1487696,-2.850497
1403636863186666500,-0.10059383,-0.05164074,0.047254313,8.693607,1.1731578,-2.8101408
1403636863191666500,-0.13532603,-0.04673268,0.02642091,8.89882,1.2632296,-2.7777011
1403636863196666500,-0.16240636,-0.050239377,0.00690173,9.029756,1.1410521,-2.8346853
1403636863201666500,-0.18252304,-0.053075895,-0.014735047,9.193172,0.9617982,-2.9162853
1403636863206666500,-0.19783136,-0.06426668,-0.033635776,9.184709,0.7005823,-2.9651637
1403636863211666500,-0.20407686,-0.07063373,-0.051164668,9.289933,0.32524255,-3.128284
1403636863216666500,-0.19577307,-0.07769214,-0.051244136,9.19062,0.015397257,-3.3153284
1403636863221666500,-0.18120286,-0.07917975,-0.045003828,9.140764,-0.19661133,-3.4699411
1403636863226666500,-0.16110414,-0.07649937,-0.03805731,8.960337,-0.34337404,-3.6408825
1403636863231666500,-0.14166442,-0.06959355,-0.021313187,8.83741,-0.3842658,-3.7385418
1403636863236666500,-0.12505081,-0.062014565,0.008713994,8.558955,-0.42517614,-3.8196704
1403636863241666500,-0.10345972,-0.05922225,0.04080114,8.509733,-0.31096667,-3.8766835
1403636863246666500,-0.09026555,-0.059917413,0.08545627,8.305089,-0.15556227,-3.835518
1403636863251666500,-0.07843598,-0.06541401,0.12030397,8.305452,0.11392974,-3.7948914
1403636863256666500,-0.07637944,-0.07443408,0.1509923,8.321874,0.21982002,-3.7217271
1403636863261666500,-0.07356361,-0.07225433,0.16352259,8.591853,0.35800922,-3.6488528
1403636863266666500,-0.079164185,-0.073584475,0.15864763,8.534922,0.49669653,-3.567371
1403636863271666500,-0.08258986,-0.07070389,0.14121565,8.707065,0.6022777,-3.4126961
1403636863276666500,-0.08397468,-0.0748667,0.117522046,8.535673,0.5859782,-3.249221
1403636863281666500,-0.07976162,-0.08177376,0.09659296,8.585269,0.65907013,-3.1680455
1403636863286666500,-0.07349909,-0.08876515,0.07913324,8.405303,0.6103345,-3.118648
1403636863291666500,-0.065803684,-0.10412112,0.068620995,8.429753,0.49607196,-3.1593966
1403636863296666500,-0.060908414,-0.11601114,0.05951846,8.380514,0.3737955,-3.1754618
1403636863301666500,-0.05184231,-0.12652917,0.058777977,8.404907,0.2597732,-3.314132
1403636863306666500,-0.042825304,-0.13563463,0.06292081,8.290344,0.26815873,-3.4200053
1403636863311666500,-0.03730104,-0.15167259,0.08592193,8.241435,0.30870712,-3.477399
1403636863316666500,-0.03528499,-0.16630635,0.11381039,8.233608,0.4308397,-3.600478
1403636863321666500,-0.04440122,-0.18373702,0.15430182,8.340147,0.4874392,-3.7241027
1403636863326666500,-0.051376067,-0.19148444,0.18783309,8.446011,0.34844518,-3.7817051
1403636863331666500,-0.052097134,-0.21113293,0.23252533,8.66625,0.1356595,-3.8069506
1403636863336666500,-0.043054886,-0.21407628,0.26329654,8.83766,-0.12579128,-3.8398583
1403636863341666500,-0.019374795,-0.21909027,0.2947644,9.042404,-0.30548525,-3.9222481
1403636863346666500,0.009217322,-0.21074705,0.31428653,9.263587,-0.32982868,-3.9634838
1403636863351666500,0.044049017,-0.20659515,0.33034495,9.288029,-0.35390276,-3.9472253
1403636863356666500,0.081684045,-0.20728077,0.3331001,9.3862095,-0.3290315,-3.9720998
1403636863361666500,0.117200024,-0.21074319,0.32818493,9.304141,-0.23879391,-3.9805176
1403636863366666500,0.14441979,-0.21556824,0.31277272,9.39438,-0.13226545,-4.0956116
1403636863371666500,0.1667149,-0.21691707,0.2966903,9.279932,-0.009451151,-4.128418
1403636863376666500,0.18835184,-0.22310714,0.27216974,9.3704605,0.22781429,-4.235279
1403636863381666500,0.20436078,-0.22657342,0.25260645,9.149909,0.35869148,-4.243302
1403636863386666500,0.21413535,-0.23421721,0.23788069,9.215686,0.5141375,-4.309104
1403636863391666500,0.215502,-0.24398251,0.23086438,9.150383,0.5957193,-4.284677
1403636863396666500,0.20225275,-0.25023496,0.23014069,9.289926,0.76710886,-4.3181005
1403636863401666500,0.19248879,-0.25443703,0.24273127,9.289844,0.7181352,-4.3509917
1403636863406666500,0.17995492,-0.26418546,0.24898289,9.559897,0.742762,-4.433419
1403636863411666500,0.16600752,-0.27048516,0.25667235,9.584239,0.61182755,-4.359651
1403636863416666500,0.15415817,-0.2774595,0.26013634,9.755894,0.4889557,-4.2613726
1403636863421666500,0.14855626,-0.28167197,0.26084733,9.714644,0.2924018,-4.1053452
1403636863426666500,0.14574432,-0.29214567,0.26153594,9.78002,0.17770544,-4.0151434
1403636863431666500,0.14853078,-0.29078698,0.2664537,9.796295,-0.0020781725,-3.998428
1403636863436666500,0.15343168,-0.29217756,0.26574883,9.886496,-0.0591974,-4.047544
1403636863441666500,0.15763196,-0.28381675,0.26368335,9.771841,-0.07532087,-4.1047583
1403636863446666500,0.15973836,-0.28659758,0.255304,9.70648,-0.058855176,-4.162087
1403636863451666500,0.15972841,-0.2768332,0.23995419,9.51811,-0.034328766,-4.1043563
1403636863456666500,0.15903413,-0.2872875,0.2322544,9.420119,0.080161154,-4.1618347
1403636863461666500,0.15626794,-0.2922021,0.22599007,9.289381,0.07213001,-4.2353935
1403636863466666500,0.15074033,-0.29847634,0.22457795,9.379752,0.088563435,-4.366582
1403636863471666500,0.14870566,-0.2970635,0.2266535,9.519254,0.10506381,-4.530392
1403636863476666500,0.14872307,-0.29982266,0.23571213,9.683091,0.096923,-4.612503
1403636863481666500,0.14315158,-0.2927828,0.24263796,9.928538,0.18674581,-4.669947
1403636863486666500,0.14172983,-0.29693738,0.25237757,10.108396,0.21927825,-4.6212287
1403636863491666500,0.13963291,-0.29689318,0.25023353,10.29657,0.2435753,-4.588446
1403636863496666500,0.14102942,-0.3052249,0.24810465,10.493252,0.13694064,-4.539154
1403636863501666500,0.1438461,-0.29959446,0.24458463,10.698065,0.054929413,-4.5631976
1403636863506666500,0.14662853,-0.30029637,0.24598363,10.771908,0.005744071,-4.497559
1403636863511666500,0.15152335,-0.28772017,0.23898324,10.845379,0.030255876,-4.4807415
1403636863516666500,0.15358987,-0.2801113,0.23832183,10.648681,0.07132326,-4.3417234
1403636863521666500,0.14801875,-0.27453405,0.23552234,10.640395,0.15306367,-4.3171473
1403636863526666500,0.14173305,-0.27316868,0.23136893,10.435634,0.14492199,-4.2681236
1403636863531666500,0.13338321,-0.27663934,0.22856952,10.484855,0.11207872,-4.308941
1403636863536666500,0.12433284,-0.28154385,0.22792831,10.395067,-0.08428997,-4.3333473
1403636863541666500,0.11390539,-0.28290042,0.22720572,10.526183,-0.06817826,-4.41508
1403636863546666500,0.10277543,-0.27523416,0.23140995,10.542542,-0.07649379,-4.455864
1403636863551666500,0.08817079,-0.27310848,0.23627697,10.673505,-0.03586443,-4.578507
1403636863556666500,0.076341204,-0.2640708,0.24958126,10.624418,-0.052244116,-4.6522403
1403636863561666500,0.061725087,-0.26194447,0.25652698,10.77958,0.037543353,-4.7748694
1403636863566666500,0.05130092,-0.25704923,0.2642355,10.845337,-0.060852155,-4.8401356
1403636863571666500,0.042967953,-0.26256517,0.26001093,10.976165,-0.036554575,-4.9789615
1403636863576666500,0.038112737,-0.26184168,0.2488309,11.000525,-0.020392407,-5.011293
1403636863581666500,0.036037333,-0.27224255,0.23832719,11.106897,-0.012461588,-5.076504
1403636863586666500,0.03190083,-0.27148634,0.22853182,11.188359,0.020134514,-5.2230663
1403636863591666500,0.029838525,-0.27283975,0.21735644,11.278424,-0.0128836185,-5.2471957
1403636863596666500,0.02848076,-0.26932496,0.20549473,11.311175,-0.037596364,-5.2875457
1403636863601666500,0.033373393,-0.271384,0.19361436,11.360242,-0.045890506,-5.303565
1403636863606666500,0.03897064,-0.2720551,0.178966,11.295287,-0.10316781,-5.319505
1403636863611666500,0.04178012,-0.27759483,0.16570847,11.246888,-0.16867241,-5.3518934
1403636863616666500,0.045992635,-0.27823448,0.15032256,11.3774805,-0.16063237,-5.424765
1403636863621666500,0.044631176,-0.28512803,0.14333075,11.47626,-0.23450887,-5.4980764
1403636863626666500,0.042569764,-0.28230673,0.13353455,11.590177,-0.18546939,-5.587295
1403636863631666500,0.04119619,-0.27949077,0.13492994,11.639337,-0.20181808,-5.644247
1403636863636666500,0.031469814,-0.27529433,0.12724172,11.744988,-0.14461882,-5.725431
1403636863641666500,0.023134597,-0.27807266,0.1251596,11.655484,-0.14438196,-5.7904463
1403636863646666500,0.008555837,-0.2703558,0.11399388,11.818825,-0.15274988,-5.887889
1403636863651666500,-0.0046339706,-0.26755306,0.10843921,11.745757,-0.16884656,-5.9608126
1403636863656666500,-0.01781977,-0.26260948,0.097271755,11.843909,-0.18510011,-6.0662932
1403636863661666500,-0.019851916,-0.25908625,0.08473778,11.771665,-0.29123974,-6.098343
1403636863666666500,-0.016349338,-0.2541599,0.06935416,11.910399,-0.31582382,-6.1387205
1403636863671666500,-0.012154393,-0.24097715,0.068695724,11.836598,-0.30738196,-6.121902
1403636863676666500,-0.00868585,-0.23540251,0.06588334,11.949986,-0.2583466,-6.1380405
1403636863681666500,-0.0017036125,-0.22918473,0.069426626,11.779377,-0.33188063,-6.0646296
1403636863686666500,0.008705549,-0.2257278,0.06800714,11.884629,-0.2912944,-6.007795
1403636863691666500,0.017094366,-0.2173449,0.07362272,11.860844,-0.3810656,-6.0075936
1403636863696666500,0.022620283,-0.21665828,0.07848522,11.9906435,-0.34059885,-5.951023
1403636863701666500,0.028935052,-0.20408687,0.08060841,11.990915,-0.39737952,-6.0074544
1403636863706666500,0.04284043,-0.19295171,0.08407524,12.119775,-0.30718637,-6.0314417
1403636863711666500,0.047030218,-0.17423183,0.0904066,12.012408,-0.22487314,-6.0226192
1403636863716666500,0.0470101,-0.16939941,0.09179351,12.043461,-0.09373798,-6.063015
1403636863721666500,0.04494659,-0.1624752,0.08276288,11.937489,-0.10176694,-6.038185
1403636863726666500,0.039369665,-0.16594023,0.068783835,12.035087,-0.0691371,-6.078779
1403636863731666500,0.035223506,-0.16105595,0.05415376,12.01931,-0.12635526,-6.0784597
1403636863736666500,0.03384938,-0.15964566,0.04088809,12.051708,-0.11785134,-6.1430664
1403636863741666500,0.033180304,-0.15198351,0.03742786,12.027386,-0.15037075,-6.150885
1403636863746666500,0.036671825,-0.14637434,0.036732797,12.109025,-0.19122572,-6.1670537
1403636863751666500,0.038801916,-0.13519286,0.034673695,12.142089,-0.27272046,-6.1911254
1403636863756666500,0.047892682,-0.1268191,0.035396952,12.126152,-0.3377026,-6.2070394
1403636863761666500,0.057641484,-0.11502002,0.04381569,12.077234,-0.37042555,-6.1339483
1403636863766666500,0.068110414,-0.10875048,0.051504675,12.036386,-0.38631296,-6.1580243
1403636863771666500,0.07717662,-0.0955244,0.060615096,12.028313,-0.43513525,-6.1336412
1403636863776666500,0.08972073,-0.09063713,0.06968878,12.020252,-0.46750823,-6.141747
1403636863781666500,0.09735908,-0.07742098,0.07946718,12.100574,-0.41836393,-6.1417193
1403636863786666500,0.10360623,-0.073950075,0.08923258,12.108345,-0.40206805,-6.117543
1403636863791666500,0.10360307,-0.058656618,0.089960605,12.172486,-0.352889,-6.125468
1403636863796666500,0.10221315,-0.048952483,0.09000869,12.107254,-0.36113188,-6.0604763
1403636863801666500,0.095965154,-0.03576436,0.07959317,12.098076,-0.29547268,-6.0842853
1403636863806666500,0.09181129,-0.023999998,0.072691575,11.918368,-0.27072012,-6.0351124
1403636863811666500,0.08346274,-0.016399624,0.060874183,11.835071,-0.12324939,-6.075012
1403636863816666500,0.070957236,-0.008082489,0.051191676,11.623851,-0.19674107,-5.993637
1403636863821666500,0.059146427,0.0044600796,0.040084664,11.688674,-0.19639607,-6.042045
1403636863826666500,0.055718146,0.017678825,0.03179686,11.510084,-0.30195507,-6.033706
1403636863831666500,0.04738792,0.026732562,0.017893765,11.518122,-0.31784394,-6.065956
1403636863836666500,0.042553686,0.04552973,0.019384656,11.307194,-0.4561205,-6.0255327
1403636863841666500,0.03906969,0.059449583,0.018737812,11.31504,-0.4640711,-6.009334
1403636863846666500,0.043936573,0.07475128,0.02298211,11.086944,-0.5372596,-5.944618
1403636863851666500,0.055042394,0.08239203,0.032057602,11.038177,-0.57831854,-5.8718295
1403636863856666500,0.06126214,0.0976904,0.037680928,10.874653,-0.61098754,-5.7827096
1403636863861666500,0.06607377,0.10672319,0.049553264,10.824812,-0.5786695,-5.6853065
1403636863866666500,0.07435579,0.12272754,0.057268355,10.586705,-0.5295583,-5.5959225
1403636863871666500,0.08405887,0.12758437,0.06215148,10.536919,-0.4806579,-5.5390105
1403636863876666500,0.0902574,0.14427866,0.057312835,10.40522,-0.43965945,-5.4414825
1403636863881666500,0.088855825,0.14845301,0.04826716,10.420524,-0.33329108,-5.4250746
1403636863886666500,0.08398361,0.15682667,0.03296465,10.410997,-0.19390412,-5.4412146
1403636863891666500,0.07214116,0.15198132,0.016228024,10.434283,-0.022082938,-5.4491673
1403636863896666500,0.055416368,0.15201196,-0.0039834194,10.449875,0.092627995,-5.441045
1403636863901666500,0.03312991,0.14155099,-0.025617894,10.621601,0.14138635,-5.416636
1403636863906666500,0.011515804,0.14154191,-0.058379274,10.769043,0.1739815,-5.351971
1403636863911666500,-0.001743637,0.1338619,-0.08489174,10.892376,0.17363949,-5.2710986
1403636863916666500,-0.01635141,0.13243255,-0.10929218,11.14704,0.034298684,-5.2149115
1403636863921666500,-0.024684928,0.1407812,-0.11556658,11.213299,-0.15343839,-5.231574
1403636863926666500,-0.02816265,0.16168843,-0.11413461,11.172653,-0.24285376,-5.207251
1403636863931666500,-0.030281551,0.17563216,-0.09878583,10.911154,-0.29969445,-5.1011972
1403636863936666500,-0.031714164,0.1861054,-0.09390172,10.66573,-0.29114547,-5.0440516
1403636863941666500,-0.035251178,0.19380356,-0.08554144,10.297488,-0.24166456,-5.003175
1403636863946666500,-0.041543417,0.20149249,-0.087645486,10.052151,-0.22480999,-5.0277705
1403636863951666500,-0.05483251,0.2049687,-0.0848864,9.692637,-0.24913092,-4.9707913
1403636863956666500,-0.07366828,0.20633738,-0.08978172,9.537129,-0.17553002,-4.9300475
1403636863961666500,-0.07999853,0.205588,-0.083525315,9.218411,-0.14315471,-4.7992234
1403636863966666500,-0.08977497,0.19720958,-0.07795149,9.22648,-0.086240076,-4.7337184
1403636863971666500,-0.0967604,0.19509177,-0.061884653,9.0957,0.0032740235,-4.6107826
1403636863976666500,-0.10578611,0.1923262,-0.05836154,9.33242,0.060348272,-4.578082
1403636863981666500,-0.118318535,0.19370289,-0.057643455,9.373374,0.060254302,-4.520854
1403636863986666500,-0.12733546,0.19581692,-0.06947933,9.610062,0.11756147,-4.643688
1403636863991666500,-0.13500696,0.20207134,-0.08413622,9.593955,0.068711124,-4.64386
1403636863996666500,-0.14755794,0.1992705,-0.09042522,9.626866,0.060409315,-4.594989
1403636864001666500,-0.1489856,0.20132454,-0.089045405,9.447461,-0.037643533,-4.439475
1403636864006666500,-0.14901888,0.18669717,-0.07861945,9.447612,-0.09502905,-4.398637
1403636864011666500,-0.14625478,0.18600498,-0.06466262,9.415093,-0.22572055,-4.3984404
1403636864016666500,-0.1441451,0.1832482,-0.054186385,9.570266,-0.27490306,-4.4066057
1403636864021666500,-0.14275083,0.19022988,-0.04998028,9.603074,-0.38099822,-4.4391494
1403636864026666500,-0.13928047,0.19649227,-0.04926857,9.513267,-0.42168796,-4.3980966
1403636864031666500,-0.13583818,0.20759855,-0.03736761,9.194814,-0.47043762,-4.2831087
1403636864036666500,-0.1296047,0.20755404,-0.020605441,8.876399,-0.43780458,-4.168325
1403636864041666500,-0.12268061,0.20332374,-0.0017595403,8.509059,-0.41355693,-4.110901
1403636864046666500,-0.11852691,0.1942494,0.017062683,8.296697,-0.36477122,-4.020891
1403636864051666500,-0.116464354,0.19142467,0.026842643,8.076095,-0.38962457,-4.0453944
1403636864056666500,-0.11090932,0.18236177,0.033791993,7.961558,-0.3491241,-4.053678
1403636864061666500,-0.10741285,0.18029694,0.03865965,7.994093,-0.28391406,-4.1027527
1403636864066666500,-0.10325918,0.17329735,0.041437823,7.79795,-0.26791975,-4.0701475
1403636864071666500,-0.09766287,0.17403014,0.043519188,7.855104,-0.20250347,-4.0783114
1403636864076666500,-0.0914023,0.16498648,0.047666017,7.797826,-0.12920974,-4.086554
1403636864081666500,-0.088607974,0.15806247,0.042041246,8.002043,-0.08813768,-4.102978
1403636864086666500,-0.07819501,0.14552902,0.037816036,8.018159,-0.18608648,-4.0378237
1403636864091666500,-0.062159233,0.13863906,0.036379877,8.27116,-0.16158241,-4.127963
1403636864096666500,-0.051728033,0.12959193,0.032857943,8.295594,-0.19430424,-4.0954313
1403636864101666500,-0.040571995,0.12822828,0.02517094,8.49978,-0.22695942,-4.1283007
1403636864106666500,-0.02594956,0.124066934,0.037720952,8.483326,-0.25968382,-4.0466266
1403636864111666500,-0.014806144,0.121987715,0.045390908,8.491389,-0.29244706,-4.030349
1403636864116666500,-0.0015814081,0.121976465,0.05866425,8.26223,-0.37411603,-3.8995624
1403636864121666500,0.0095702335,0.11643701,0.074693784,8.204909,-0.30881745,-3.850619
1403636864126666500,0.020720921,0.116442,0.082382575,7.9674616,-0.32522154,-3.7852888
1403636864131666500,0.029783554,0.11578165,0.08865063,7.9838395,-0.24355209,-3.7935543
1403636864136666500,0.03606563,0.11998217,0.10053803,7.697252,-0.21117504,-3.8345068
1403636864141666500,0.04094828,0.12072909,0.109599546,7.6975093,-0.072184265,-3.8427205
1403636864146666500,0.04373517,0.12214825,0.119375855,7.517621,0.009329945,-3.875507
1403636864151666500,0.03886182,0.12145952,0.11727862,7.5914955,0.07476799,-3.9490104
1403636864156666500,0.032597147,0.12354072,0.11449835,7.58342,0.0992322,-4.0143414
1403636864161666500,0.026329182,0.1193361,0.108214945,7.73051,0.042027395,-4.136942
1403636864166666500,0.02006761,0.12212448,0.104033604,7.8369236,0.06664069,-4.2022486
1403636864171666500,0.013794385,0.11931262,0.09355256,8.024954,-0.006812583,-4.2185326
1403636864176666500,0.008921735,0.12417198,0.09706092,8.033072,-0.07212972,-4.1694226
1403636864181666500,0.007524632,0.12486546,0.102639616,8.13937,-0.12103563,-4.079455
1403636864186666500,0.012395613,0.1241788,0.11100121,8.270127,-0.14551757,-4.005904
1403636864191666500,0.01100681,0.12977636,0.12984402,8.400876,-0.11282399,-3.9404233
1403636864196666500,0.018672727,0.14303644,0.14313722,8.376103,-0.09641437,-3.86679
1403636864201666500,0.020064957,0.15210953,0.15223312,8.35146,-0.06365932,-3.7768114
1403636864206666500,0.020771928,0.16398384,0.15786286,8.171538,0.018201716,-3.7358935
1403636864211666500,0.015898906,0.1730505,0.16418153,8.024333,0.051070534,-3.6295621
1403636864216666500,0.011729069,0.18630172,0.16771549,7.9261856,0.108366095,-3.5967782
1403636864221666500,0.004075952,0.19327721,0.17193545,7.656586,0.17386591,-3.5559092
1403636864226666500,-0.0014819279,0.2037328,0.16847582,7.599595,0.24729034,-3.6130297
1403636864231666500,-0.009127252,0.21416388,0.1713088,7.485254,0.2227424,-3.686418
1403636864236666500,-0.02233214,0.2266834,0.15459709,7.60017,0.3041887,-3.79237
1403636864241666500,-0.037625246,0.23917596,0.13929337,7.600609,0.32035393,-3.841103
1403636864246666500,-0.055004276,0.2502715,0.121196866,7.7397747,0.32034934,-3.865266
1403636864251666500,-0.07380534,0.25441483,0.119823426,7.8052487,0.27975824,-3.7915099
1403636864256666500,-0.08355344,0.2537018,0.114236,8.090827,0.19843408,-3.7504818
1403636864261666500,-0.09054557,0.26067203,0.12750526,8.245614,0.068160005,-3.6685145
1403636864266666500,-0.09124992,0.27393094,0.13867372,8.62881,-0.0543355,-3.7089214
1403636864271666500,-0.08295057,0.298348,0.16594194,8.742864,-0.23377186,-3.618542
1403636864276666500,-0.070443906,0.32275453,0.18621701,8.889593,-0.27478024,-3.5691998
1403636864281666500,-0.0579535,0.34854686,0.20446005,8.685159,-0.29074672,-3.495562
1403636864286666500,-0.049618416,0.36945468,0.2128928,8.586724,-0.1846212,-3.4220953
1403636864291666500,-0.048259147,0.38619322,0.22416905,8.219002,-0.13502617,-3.332449
1403636864296666500,-0.047555394,0.3952683,0.22353663,7.9738536,-0.069738604,-3.4059677
1403636864301666500,-0.05452002,0.4120052,0.2278542,7.5413227,-0.085553505,-3.405985
1403636864306666500,-0.056604184,0.417576,0.22158946,7.3454328,0.020406717,-3.3899853
1403636864311666500,-0.063569285,0.42732137,0.21534581,6.986586,0.12653211,-3.333369
1403636864316666500,-0.07331658,0.43427837,0.21046136,6.9299364,0.21583614,-3.3824239
1403636864321666500,-0.08239279,0.44333866,0.21398754,6.709821,0.23257309,-3.3092241
1403636864326666500,-0.07891909,0.44612613,0.22103313,6.5623794,0.10294979,-3.2194335
1403636864331666500,-0.07265378,0.45169634,0.23370408,6.4307795,-0.075418346,-3.1048083
1403636864336666500,-0.06081233,0.4530921,0.24912027,6.4297748,-0.20531896,-3.0308094
1403636864341666500,-0.048979975,0.46355042,0.2554234,6.61741,-0.24616145,-3.054938
1403636864346666500,-0.036475904,0.46704584,0.25883198,6.7315884,-0.09135417,-3.0390732
1403636864351666500,-0.028799541,0.47398365,0.2602881,6.8048472,-0.20494409,-2.9652631
1403636864356666500,-0.020423375,0.4704567,0.25889266,6.9435368,-0.30203786,-2.8345644
1403636864361666500,-0.009945877,0.4731952,0.26100656,7.049612,-0.448339,-2.7607746
1403636864366666500,0.0047089234,0.46966702,0.2700629,7.139166,-0.5950024,-2.7195945
1403636864371666500,0.027002297,0.47313005,0.28189462,7.195953,-0.6114908,-2.7114365
1403636864376666500,0.04650695,0.47519976,0.29932714,7.1628447,-0.6033405,-2.678777
1403636864381666500,0.06389383,0.47730714,0.30485302,7.1872716,-0.45671898,-2.654866
1403636864386666500,0.0729532,0.47521782,0.30834806,6.9498863,-0.32588613,-2.5733714
1403636864391666500,0.07640072,0.4745559,0.30690598,6.8844576,-0.15495653,-2.5901225
1403636864396666500,0.0764408,0.46825427,0.30692708,6.606179,-0.16288136,-2.5815358
1403636864401666500,0.07571351,0.46409887,0.2907897,6.4837737,0.040488515,-2.6312373
1403636864406666500,0.06388014,0.462695,0.27540076,6.230911,0.16284777,-2.6560812
1403636864411666500,0.040850468,0.45786706,0.251592,6.2157006,0.3495111,-2.7794065
1403636864416666500,0.02204495,0.4501878,0.2222158,6.0701504,0.52049834,-2.7964032
1403636864421666500,-0.0057980493,0.43903995,0.18939327,6.0555463,0.64230067,-2.8295271
1403636864426666500,-0.030108728,0.42152965,0.15522611,5.861287,0.66742736,-2.7319
1403636864431666500,-0.055113442,0.40057108,0.11202356,6.001507,0.6754175,-2.675045
1403636864436666500,-0.07522599,0.38301268,0.075862795,5.912899,0.52061504,-2.67506
1403636864441666500,-0.087011136,0.3697262,0.046597842,6.101372,0.43875203,-2.6831334
1403636864446666500,-0.094597824,0.3647594,0.032079626,6.1590343,0.21123089,-2.6259656
1403636864451666500,-0.08896042,0.35497898,0.025846366,6.2406416,0.02435161,-2.5604892
1403636864456666500,-0.07634083,0.3590423,0.02185053,6.0694175,-0.16190456,-2.3887908
1403636864461666500,-0.06306968,0.34161735,0.023222554,6.0280995,-0.24328654,-2.3231492
1403636864466666500,-0.044945575,0.33391726,0.03440239,5.831227,-0.25944036,-2.26555
1403636864471666500,-0.03310775,0.31932354,0.041984204,5.797714,-0.24336335,-2.2654889
1403636864476666500,-0.027543627,0.30811596,0.044094313,5.6178017,-0.21890892,-2.2408164
1403636864481666500,-0.023395367,0.29004818,0.042574752,5.5927296,-0.12138158,-2.273966
1403636864486666500,-0.029721193,0.2851822,0.041108597,5.5272036,0.008727419,-2.339818
1403636864491666500,-0.038113542,0.26914686,0.028482143,5.535663,0.106640145,-2.3236332
1403636864496666500,-0.051417656,0.2558718,0.011692438,5.49509,0.19582239,-2.3809912
1403636864501666500,-0.06468748,0.23908839,-0.009246703,5.5117173,0.19564393,-2.380948
1403636864506666500,-0.07447562,0.22719951,-0.03439265,5.5935597,0.14602657,-2.4462893
1403636864511666500,-0.08428354,0.20348024,-0.055454906,5.6995797,0.13755383,-2.4541352
1403636864516666500,-0.08642853,0.17907755,-0.07795344,5.8216343,0.12077306,-2.478229
1403636864521666500,-0.084386565,0.15469445,-0.0990974,5.968078,0.12852997,-2.4858565
1403636864526666500,-0.0844088,0.13728875,-0.11600512,6.098428,0.18557712,-2.403763
1403636864531666500,-0.077452935,0.11433293,-0.12521005,6.179406,0.16917647,-2.3301015
1403636864536666500,-0.07748587,0.09767013,-0.13514997,6.3343062,0.23378062,-2.2972622
1403636864541666500,-0.06910435,0.07888758,-0.13867314,6.3582783,0.119765155,-2.191263
1403636864546666500,-0.0600281,0.069155656,-0.14918506,6.431661,0.046249893,-2.150549
1403636864551666500,-0.05167932,0.051737934,-0.14713342,6.3328915,0.038187645,-2.1177337
1403636864556666500,-0.046830244,0.04062976,-0.14585008,6.373318,0.08669547,-2.1828532
1403636864561666500,-0.046850927,0.028770208,-0.13885245,6.2176185,0.08704098,-2.1500762
1403636864566666500,-0.053172432,0.01483495,-0.13820933,6.151957,0.119529754,-2.2314818
1403636864571666500,-0.05738864,-0.001165526,-0.12278888,5.9719424,0.030292239,-2.2072384
1403636864576666500,-0.0664886,-0.019920493,-0.117998034,6.02904,-0.019131863,-2.256245
1403636864581666500,-0.07143014,-0.034522176,-0.10612066,5.955617,-0.13372715,-2.338419
1403636864586666500,-0.07843549,-0.049812466,-0.104168504,6.0944085,-0.14270362,-2.4444382
1403636864591666500,-0.084061064,-0.056802027,-0.10136032,6.0946116,-0.25768027,-2.52669
1403636864596666500,-0.08756996,-0.06169088,-0.099353984,6.274546,-0.32393017,-2.6573985
1403636864601666500,-0.084108986,-0.06653391,-0.08466056,6.2175684,-0.39769056,-2.633347
1403636864606666500,-0.07570658,-0.08175016,-0.07502274,6.3401365,-0.32392257,-2.5836818
1403636864611666500,-0.06663116,-0.095552824,-0.05486701,6.3646145,-0.21762326,-2.509814
1403636864616666500,-0.050538458,-0.112151295,-0.03405526,6.749542,-0.17794427,-2.4202116
1403636864621666500,-0.042158507,-0.12671044,-0.013841581,6.9220295,-0.20348889,-2.2984548
1403636864626666500,-0.013544403,-0.13857487,-0.011119034,7.249581,-0.22942282,-2.2587156
1403636864631666500,0.0108761415,-0.14350607,-0.011864286,7.437935,-0.2791063,-2.2267478
1403636864636666500,0.026921757,-0.1442213,-0.016077127,7.593189,-0.18988767,-2.2516613
1403636864641666500,0.039444618,-0.13933328,-0.025862511,7.5517144,-0.07543127,-2.35746
1403636864646666500,0.044291534,-0.13372423,-0.030750718,7.543267,0.08794945,-2.4877748
1403636864651666500,0.03727909,-0.12955488,-0.03495189,7.362994,0.09707203,-2.6500168
1403636864656666500,0.028187327,-0.13726237,-0.03426605,7.1829166,-0.024642868,-2.7636375
1403636864661666500,0.01631289,-0.140798,-0.034948375,7.092849,-0.13046123,-2.9022305
1403636864666666500,0.0099750385,-0.14921415,-0.03422406,6.9453583,-0.25317556,-3.0330846
1403636864671666500,-0.00049381703,-0.15271857,-0.034902345,6.945215,-0.27787566,-3.106747
1403636864676666500,-0.009557195,-0.15687235,-0.009745177,7.0192485,-0.30248722,-3.1315827
1403636864681666500,-0.010204472,-0.16863726,0.012573544,7.200038,-0.22078668,-3.0663624
1403636864686666500,-0.015767433,-0.17272258,0.049601335,7.3808556,-0.14765379,-2.9770317
1403636864691666500,-0.017841138,-0.17335153,0.07685511,7.667805,-0.06692005,-2.888162
1403636864696666500,-0.015076242,-0.18171264,0.1061793,7.8891134,-0.11721961,-2.660527
1403636864701666500,-0.010193326,-0.18108332,0.1236189,8.224903,-0.13458025,-2.5551865
1403636864706666500,-0.002531819,-0.1755874,0.13686778,8.429479,-0.18379356,-2.547153
1403636864711666500,0.0107244775,-0.16302717,0.14174668,8.699441,-0.037195873,-2.6701295
1403636864716666500,0.016979925,-0.15181442,0.14385039,8.641959,0.085508235,-2.7844987
1403636864721666500,0.012107499,-0.14818604,0.13895854,8.666791,0.37133706,-2.9564617
1403636864726666500,-0.0074127987,-0.1460234,0.12153509,8.37241,0.46198648,-3.070141
1403636864731666500,-0.022013612,-0.15568443,0.09428769,8.39762,0.64180017,-3.2092407
1403636864736666500,-0.057479195,-0.16468629,0.06846811,8.381449,0.617731,-3.339604
1403636864741666500,-0.08244679,-0.17369923,0.026572753,8.561625,0.5689409,-3.5276093
1403636864746666500,-0.10333512,-0.18134955,-0.0076477267,8.406156,0.56102467,-3.5677564
1403636864751666500,-0.11998699,-0.1896182,-0.035542022,8.553894,0.6095107,-3.5439293
1403636864756666500,-0.12902883,-0.19721355,-0.04179949,8.505262,0.6580694,-3.4133995
1403636864761666500,-0.13938746,-0.20831034,-0.039665427,8.759376,0.60848284,-3.3410034
1403636864766666500,-0.14559206,-0.2097625,-0.029169198,8.873655,0.36360207,-3.2349246
1403636864771666500,-0.13790777,-0.21265274,-0.01242533,9.077952,0.1510612,-3.0882974
1403636864776666500,-0.1205296,-0.20521529,-0.001275029,9.159101,-0.19139376,-2.9898226
1403636864781666500,-0.09480683,-0.20043398,0.014754195,9.117855,-0.25657204,-2.9487147
1403636864786666500,-0.077434786,-0.1865031,0.032913018,8.986453,-0.19896755,-3.087111
1403636864791666500,-0.058666475,-0.17814684,0.04685611,8.888007,-0.1006909,-3.24204
1403636864796666500,-0.058713593,-0.17119978,0.055940095,8.691478,-0.06755404,-3.3966444
1403636864801666500,-0.0601658,-0.17051598,0.06989843,8.503265,0.006185086,-3.5187552
1403636864806666500,-0.07416131,-0.17397948,0.07339153,8.241491,0.12079687,-3.59171
1403636864811666500,-0.08464394,-0.18578817,0.07476653,8.143516,0.23501341,-3.665223
1403636864816666500,-0.10484854,-0.1891566,0.06706759,8.233939,0.41423064,-3.7392251
1403636864821666500,-0.1271331,-0.19675799,0.053804908,8.225906,0.46300155,-3.7883368
1403636864826666500,-0.14864853,-0.20081149,0.033575807,8.439043,0.51142144,-3.7808225
1403636864831666500,-0.16179281,-0.20772058,0.01894613,8.562091,0.43766737,-3.699378
1403636864836666500,-0.1763185,-0.21390912,0.00012807176,8.816195,0.46158898,-3.6185524
1403636864841666500,-0.17137802,-0.22087996,-0.00894649,8.947256,0.3960886,-3.5290587
1403636864846666500,-0.16155308,-0.2244288,-0.015241291,9.200637,0.27356306,-3.4887106
1403636864851666500,-0.14691737,-0.23496293,-0.01248287,9.257675,0.09398616,-3.415157
1403636864856666500,-0.121128716,-0.23927028,-0.017425869,9.494404,-0.036481705,-3.4317656
1403636864861666500,-0.0912321,-0.24845473,-0.012592945,9.42033,-0.20755404,-3.4640734
1403636864866666500,-0.059934147,-0.24784853,0.0020156093,9.460964,-0.25635034,-3.5783665
1403636864871666500,-0.033525355,-0.24095981,0.019448508,9.28101,-0.23978353,-3.6679795
1403636864876666500,-0.016142674,-0.23473875,0.038971905,9.305706,-0.20717593,-3.8151166
1403636864881666500,-0.0029680505,-0.22655089,0.056477655,9.011321,-0.3052645,-4.051785
1403636864886666500,0.010941155,-0.22523092,0.06764677,8.896857,-0.2726081,-4.1907244
1403636864891666500,0.017860495,-0.22042142,0.081640586,8.634658,-0.2070453,-4.2722487
1403636864896666500,0.016454242,-0.22802754,0.08922458,8.67599,0.07092934,-4.3460717
1403636864901666500,0.017091192,-0.23635738,0.10173291,8.643501,0.307982,-4.354687
1403636864906666500,0.0072979107,-0.243183,0.10867266,8.88951,0.56079894,-4.3066354
1403636864911666500,-0.010121055,-0.25138336,0.116370425,9.151729,0.6907422,-4.1769485
1403636864916666500,-0.024694078,-0.2498817,0.113586575,9.487285,0.7474316,-4.0958323
1403636864921666500,-0.035078622,-0.24564402,0.10730812,9.66721,0.7145575,-3.9813757
1403636864926666500,-0.038499035,-0.24423315,0.09961355,9.838891,0.6409856,-3.8749545
1403636864931666500,-0.035669647,-0.22964342,0.10240497,9.928197,0.4615067,-3.8741338
1403636864936666500,-0.028705738,-0.22757788,0.1024023,9.895289,0.37178853,-3.865679
1403636864941666500,-0.016908161,-0.21998043,0.11777766,9.755874,0.21681528,-3.8406856
1403636864946666500,-0.0037673637,-0.22148956,0.14922044,9.60005,0.020914907,-3.7586474
1403636864951666500,0.020535268,-0.22375068,0.16884312,9.378789,-0.23999426,-3.7583888
1403636864956666500,0.047626905,-0.23158632,0.19545017,9.304926,-0.50109816,-3.8239393
1403636864961666500,0.06852431,-0.22470428,0.22624446,9.346024,-0.63994974,-3.9960191
1403636864966666500,0.092222415,-0.21152829,0.26824254,9.26415,-0.71313345,-4.127096
1403636864971666500,0.114572816,-0.19828966,0.32139716,9.231375,-0.6388682,-4.258483
1403636864976666500,0.12788281,-0.19135115,0.38087544,9.124864,-0.54798436,-4.365508
1403636864981666500,0.13352138,-0.1829536,0.4248703,9.272139,-0.40849242,-4.415624
1403636864986666500,0.13706735,-0.18016115,0.4563098,9.370357,-0.32621828,-4.4901853
1403636864991666500,0.13847694,-0.18010762,0.47228858,9.681369,-0.21170337,-4.54854
1403636864996666500,0.1412799,-0.17868203,0.4792384,9.804023,-0.121575505,-4.6064196
1403636865001666500,0.14338502,-0.1730123,0.46518302,10.06603,-0.03990001,-4.7049384
1403636865006666500,0.14686424,-0.16321677,0.45609167,10.090393,-0.0073960517,-4.680037
1403636865011666500,0.15453014,-0.15268897,0.4399673,10.237475,0.09060758,-4.7207975
1403636865016666500,0.15940228,-0.14430755,0.4295056,10.138928,0.18051115,-4.6960025
1403636865021666500,0.16776639,-0.1428896,0.41481373,10.171639,0.2049914,-4.7040033
1403636865026666500,0.17473722,-0.1429196,0.4085798,10.008027,0.09858498,-4.6217155
1403636865031666500,0.18869856,-0.14849757,0.39320877,10.016489,-0.01579585,-4.6460805
1403636865036666500,0.20825472,-0.14154066,0.38349348,9.91019,-0.17087252,-4.6538544
1403636865041666500,0.2229101,-0.14642344,0.3751096,9.902124,-0.21152098,-4.6948156
1403636865046666500,0.23337832,-0.1408677,0.3688713,9.771068,-0.2767543,-4.6862526
1403636865051666500,0.2424613,-0.13387479,0.3667702,9.779098,-0.21119544,-4.727274
1403636865056666500,0.24528486,-0.12412439,0.3717184,9.664392,-0.2109469,-4.7517066
1403636865061666500,0.23834983,-0.12131904,0.38220105,9.713626,-0.16991387,-4.8093305
1403636865066666500,0.23281917,-0.112235755,0.38430974,9.754759,-0.19432794,-4.8747087
1403636865071666500,0.22310728,-0.10661793,0.39826515,9.885935,-0.14498372,-4.981573
1403636865076666500,0.2126643,-0.09961127,0.409422,9.967719,-0.0630581,-5.0473676
1403636865081666500,0.20636895,-0.09750092,0.41428074,10.049384,-0.014125689,-5.047539
1403636865086666500,0.19310859,-0.08631109,0.4121569,10.139334,-0.022719124,-5.0388947
1403636865091666500,0.17634046,-0.09118925,0.40444422,10.20515,-0.1379684,-4.948265
1403636865096666500,0.16513598,-0.08418113,0.38900283,10.3522005,-0.13058901,-4.8819933
1403636865101666500,0.15677229,-0.07788405,0.37083778,10.426249,-0.29464906,-4.8482623
1403636865106666500,0.15537786,-0.069519654,0.34219855,10.385239,-0.35218886,-4.822712
1403636865111666500,0.15606049,-0.061865598,0.32404634,10.360559,-0.40962717,-4.7647805
1403636865116666500,0.15188426,-0.048622712,0.29890114,10.352106,-0.43436182,-4.763827
1403636865121666500,0.15117943,-0.04446517,0.27445278,10.278224,-0.41813824,-4.738682
1403636865126666500,0.14490491,-0.04099123,0.25279227,10.294435,-0.42650932,-4.7217007
1403636865131666500,0.13514724,-0.04031965,0.23674645,10.179827,-0.41845226,-4.6967783
1403636865136666500,0.12542203,-0.03402573,0.22345982,10.26946,-0.35324392,-4.761529
1403636865141666500,0.11566561,-0.02636082,0.22347285,10.187226,-0.2796866,-4.7367716
1403636865146666500,0.097573645,-0.022859616,0.21646748,10.284766,-0.18183185,-4.7607183
1403636865151666500,0.07460063,-0.01589859,0.20882271,10.2435665,-0.19833456,-4.7519956
1403636865156666500,0.05027043,-0.009630097,0.19698995,10.366047,-0.2721773,-4.80032
1403636865161666500,0.032162435,0.00010297261,0.18588652,10.333335,-0.37844294,-4.742806
1403636865166666500,0.016181521,0.009154884,0.17335625,10.430994,-0.3621173,-4.758668
1403636865171666500,0.00083778054,0.0077523757,0.16917855,10.349038,-0.34580714,-4.7014494
1403636865176666500,-0.010281555,0.009134637,0.15733474,10.430717,-0.354016,-4.7013035
1403636865181666500,-0.024939172,0.011911338,0.1482993,10.299892,-0.3947568,-4.644099
1403636865186666500,-0.034007244,0.0063183624,0.13784938,10.324896,-0.4928831,-4.595303
1403636865191666500,-0.038228355,0.009792471,0.12813255,10.219293,-0.6807102,-4.579086
1403636865196666500,-0.03752031,0.004902968,0.11348343,10.277051,-0.7461415,-4.595614
1403636865201666500,-0.03543461,0.0062836464,0.09884314,10.236401,-0.7869266,-4.6038275
1403636865206666500,-0.029843204,0.0007058587,0.08278705,10.171202,-0.72166556,-4.685481
1403636865211666500,-0.03124509,0.0020955,0.07232347,10.072621,-0.62346274,-4.685352
1403636865216666500,-0.035374872,-0.014627254,0.051370163,10.1797285,-0.6238219,-4.79173
1403636865221666500,-0.033984013,-0.022307957,0.0297287,10.12301,-0.6483785,-4.8327017
1403636865226666500,-0.029047556,-0.035548493,0.012244631,10.270866,-0.63222814,-4.9307766
1403636865231666500,-0.030402042,-0.04181117,-0.0017381124,10.34441,-0.5504879,-5.020377
1403636865236666500,-0.030364685,-0.050166734,-0.009442236,10.483911,-0.5669912,-5.06137
1403636865241666500,-0.02545806,-0.0536568,-0.025519561,10.582313,-0.5668856,-5.110381
1403636865246666500,-0.028927378,-0.061319344,-0.038810607,10.631915,-0.599635,-5.143272
1403636865251666500,-0.02611,-0.061309926,-0.049994852,10.786665,-0.49323493,-5.2001333
1403636865256666500,-0.026122846,-0.07177937,-0.06120601,10.7950115,-0.49331424,-5.1597786
1403636865261666500,-0.03657741,-0.08501303,-0.07311013,10.917767,-0.49354264,-5.095292
1403636865266666500,-0.036599316,-0.09758182,-0.07873146,10.925888,-0.5017526,-4.9653826
1403636865271666500,-0.040076308,-0.10522939,-0.08294304,11.032168,-0.4773471,-4.9574733
1403636865276666500,-0.042171694,-0.11567354,-0.08227953,11.040757,-0.5265838,-4.9495683
1403636865281666500,-0.0449451,-0.11147334,-0.08365919,11.155026,-0.49387908,-4.965886
1403636865286666500,-0.049834855,-0.11427133,-0.087167636,10.999918,-0.49394846,-5.014709
1403636865291666500,-0.05401335,-0.117041916,-0.09416601,11.024572,-0.47766647,-5.0718136
1403636865296666500,-0.06240412,-0.12403953,-0.09628348,10.779761,-0.5430951,-5.0637665
1403636865301666500,-0.063801385,-0.13656582,-0.10331774,10.771642,-0.47779804,-5.1289563
1403636865306666500,-0.07496648,-0.14352193,-0.09983908,10.60006,-0.46969628,-5.1858535
1403636865311666500,-0.07912473,-0.16295181,-0.10131009,10.772084,-0.38827658,-5.3325143
1403636865316666500,-0.08398887,-0.17195974,-0.10413754,10.8543215,-0.4047538,-5.422209
1403636865321666500,-0.085378475,-0.18232815,-0.11397168,11.140645,-0.3723484,-5.512099
1403636865326666500,-0.08955128,-0.18995602,-0.116795585,11.149367,-0.41321734,-5.577338
1403636865331666500,-0.08539488,-0.19617184,-0.12242718,11.369513,-0.30717358,-5.6343966
1403636865336666500,-0.08889017,-0.19967617,-0.12382616,11.345082,-0.32365432,-5.5777183
1403636865341666500,-0.0798514,-0.21216054,-0.11971168,11.541255,-0.29954112,-5.6104574
1403636865346666500,-0.07357899,-0.22193134,-0.11765914,11.492801,-0.36501193,-5.578069
1403636865351666500,-0.061043955,-0.23096149,-0.111428425,11.615726,-0.4389323,-5.537611
1403636865356666500,-0.052674465,-0.23372833,-0.10306509,11.656846,-0.48813128,-5.529457
1403636865361666500,-0.0345727,-0.23789744,-0.1003152,11.730065,-0.44724673,-5.5373435
1403636865366666500,-0.021312319,-0.22887136,-0.10239491,11.64836,-0.4304256,-5.5856314
1403636865371666500,-0.010838069,-0.23236059,-0.103818476,11.567258,-0.47100633,-5.6342564
1403636865376666500,-0.005947642,-0.23105176,-0.09470673,11.3222475,-0.4788951,-5.577022
1403636865381666500,-0.0003498122,-0.22618888,-0.09259601,11.24902,-0.5113453,-5.601208
1403636865386666500,0.0017729327,-0.2268848,-0.08910698,11.126951,-0.5273153,-5.6823034
1403636865391666500,0.0059808567,-0.22546963,-0.08001535,11.086689,-0.58444715,-5.7147193
1403636865396666500,0.004631765,-0.2191487,-0.075106025,11.11163,-0.60869616,-5.803905
1403636865401666500,0.006714694,-0.22262229,-0.06462976,11.087087,-0.6006703,-5.795731
1403636865406666500,0.0018732175,-0.2106971,-0.05901606,11.258326,-0.55965775,-5.8928337
1403636865411666500,0.010225005,-0.2065295,-0.047823202,11.241739,-0.5515673,-5.8601108
1403636865416666500,0.007438861,-0.19537579,-0.042194556,11.306599,-0.52713484,-5.851781
1403636865421666500,0.010229446,-0.18216427,-0.030262586,11.257278,-0.5270921,-5.818955
1403636865426666500,0.013717689,-0.17310865,-0.024636071,11.273727,-0.5680014,-5.786399
1403636865431666500,0.021392755,-0.16474386,-0.009929728,11.216877,-0.6169184,-5.778075
1403636865436666500,0.022817515,-0.15079643,-0.002206128,11.216577,-0.60017896,-5.834444
1403636865441666500,0.030462481,-0.14040011,0.010417853,11.045054,-0.6409764,-5.761181
1403636865446666500,0.038848065,-0.12506156,0.02024046,11.02883,-0.6814404,-5.785212
1403636865451666500,0.05066102,-0.11465828,0.034253065,10.808429,-0.7466478,-5.720141
1403636865456666500,0.063907854,-0.10559186,0.04265276,10.751601,-0.8034523,-5.7362494
1403636865461666500,0.075717665,-0.09032685,0.051766504,10.513247,-0.73766005,-5.7115064
1403636865466666500,0.08547459,-0.07918163,0.06014492,10.503553,-0.6146022,-5.751732
1403636865471666500,0.094541796,-0.063174345,0.06368178,10.298154,-0.57297814,-5.7922006
1403636865476666500,0.0959465,-0.050645895,0.060910378,10.304678,-0.44992065,-5.82433
1403636865481666500,0.09941339,-0.036723845,0.065146506,10.165034,-0.4414596,-5.800058
1403636865486666500,0.10288971,-0.026279835,0.070038214,10.343957,-0.35974327,-5.783455
1403636865491666500,0.10356427,-0.015155004,0.070080414,10.294914,-0.4006896,-5.7185006
1403636865496666500,0.10636223,-0.0054220464,0.06381856,10.4662895,-0.40067637,-5.7019672
1403636865501666500,0.10633274,0.011273975,0.06804636,10.530599,-0.34351343,-5.636813
1403636865506666500,0.10561355,0.027264563,0.06599572,10.6195965,-0.30269036,-5.563512
1403636865511666500,0.10419222,0.04744508,0.068847805,10.602645,-0.30260792,-5.482184
1403636865516666500,0.10903669,0.06066306,0.0737593,10.60239,-0.31893137,-5.409066
1403636865521666500,0.10552166,0.0843381,0.07592951,10.487706,-0.36769512,-5.3358665
1403636865526666500,0.10964111,0.092673875,0.074549094,10.438073,-0.3268865,-5.2137847
1403636865531666500,0.10470449,0.11706884,0.07602261,10.233015,-0.31835872,-5.1241593
