#timestamp [ns],w_RS_S_x [rad s^-1],w_RS_S_y [rad s^-1],w_RS_S_z [rad s^-1],a_RS_S_x [m s^-2],a_RS_S_y [m s^-2],a_RS_S_z [m s^-2]
1403637130498319000,-0.032114058236695664,0.05445427266222308,0.07749261878854824,9.447072833333333,-0.9398039583333333,-2.4516625
1403637130503319000,-0.017453292519943295,0.04328416544945937,0.06632251157578452,9.250939833333334,-1.1359369583333332,-2.4108014583333333
1403637130508319000,0.003490658503988659,0.033510321638291124,0.05375614096142535,9.16921775,-1.1849702083333333,-2.4434902916666665
1403637130513319000,0.019547687622336492,0.017453292519943295,0.05026548245743669,9.144701125,-1.0296982499999998,-2.435318083333333
1403637130518319000,0.029321531433504733,0.004886921905584123,0.056548667764616284,9.226423208333333,-0.7436709583333333,-2.4925235416666665
1403637130523319000,0.025132741228718346,0.0006981317007977319,0.06492624817418906,9.487933875,-0.4494714583333333,-2.459834708333333
1403637130528319000,0.0027925268031909274,0.004886921905584123,0.07539822368615504,9.422556208333333,-0.3350605416666666,-2.3944570416666666
1403637130533319000,-0.017453292519943295,0.0013962634015954637,0.09215338450530061,9.46341725,-0.43312704166666666,-2.4189736666666666
1403637130538319000,-0.030019663134302467,0.014660765716752367,0.10262536001726656,9.586000375,-0.661948875,-2.3862848333333333
1403637130543319000,-0.0307177948351002,0.025132741228718346,0.11519173063162574,9.635033625,-0.8417374583333332,-2.3535959999999996
1403637130548319000,-0.02024581932313422,0.03630284844148206,0.11309733552923257,9.659550249999999,-0.9970094166666666,-2.4108014583333333
1403637130553319000,-0.0006981317007977319,0.04258603374866164,0.1075122819228507,9.577828166666666,-1.0133538333333332,-2.3045627499999997
1403637130558319000,0.017453292519943295,0.03700098014227979,0.08936085770210968,9.316317499999998,-0.8662540833333333,-2.2718739166666664
1403637130563319000,0.029321531433504733,0.0153588974175501,0.07051130178057091,9.332661916666666,-0.6782932916666666,-2.3699404166666667
1403637130568319000,0.030019663134302467,0.020943951023931952,0.06422811647339133,9.422556208333333,-0.4739880833333333,-2.476179125
1403637130573319000,0.017453292519943295,0.014660765716752367,0.07051130178057091,9.414383999999998,-0.220649625,-2.6151066666666667
1403637130578319000,-0.0020943951023931952,0.01884955592153876,0.07539822368615504,9.520622708333333,-0.14709974999999997,-2.6477955
1403637130583319000,-0.020943951023931952,0.021642082724729686,0.0879645943005142,9.340834124999999,-0.2778550833333333,-2.59876225
1403637130588319000,-0.0307177948351002,0.02024581932313422,0.08656833089891874,9.389867375,-0.6782932916666666,-2.549729
1403637130593319000,-0.02722713633111154,0.02234021442552742,0.07749261878854824,9.430728416666666,-0.9724927916666666,-2.582417833333333
1403637130598319000,-0.004886921905584123,0.024434609527920613,0.06911503837897544,9.389867375,-1.0869037083333333,-2.557901208333333
1403637130603319000,0.012566370614359173,0.01884955592153876,0.06911503837897544,9.316317499999998,-1.103248125,-2.459834708333333
1403637130608319000,0.030019663134302467,0.016057029118347832,0.07120943348136866,9.389867375,-0.8580818749999999,-2.4680069166666665
1403637130613319000,0.03560471674068433,0.0013962634015954637,0.08237954069413235,9.210078791666666,-0.7273265416666667,-2.3209071666666663
1403637130618319000,0.02583087292951608,-0.006283185307179587,0.08307767239493008,9.381695166666667,-0.6782932916666666,-2.280046125
1403637130623319000,0.025132741228718346,-0.009773843811168246,0.08377580409572781,9.536967125,-0.73549875,-2.1656352083333332
1403637130628319000,0.02583087292951608,-0.01117010721276371,0.07260569688296412,9.814822208333332,-0.563882375,-2.214668458333333
1403637130633319000,0.024434609527920613,0.0041887902047863905,0.07819075048934597,9.782133375,-0.4739880833333333,-2.157463
1403637130638319000,0.016057029118347832,0.009075712110370514,0.06562437987498679,9.724927916666667,-0.34323275000000003,-2.2718739166666664
1403637130643319000,0.004966385662555695,0.026554664596915245,0.04858968406915665,9.551281929016113,-0.45603227615356445,-2.3290512561798096
1403637130648319000,-0.0055570825934410095,0.03842339664697647,0.026893172413110733,9.403974533081055,-0.45606324076652527,-2.5557827949523926
1403637130653319000,-0.008933782577514648,0.038351237773895264,0.039413854479789734,9.380475044250488,-0.3494226932525635,-2.7845914363861084
1403637130658319000,-0.012242399156093597,0.04736228287220001,0.06105334684252739,9.577171325683594,-0.284657746553421,-2.9977216720581055
1403637130663319000,-0.017784330993890762,0.056341081857681274,0.07703078538179398,9.356833457946777,-0.3086645305156708,-2.99765682220459
1403637130668319000,-0.032403379678726196,0.05424945056438446,0.07205730676651001,9.250720977783203,-0.3322019875049591,-2.915757179260254
1403637130673319000,-0.04986032098531723,0.04307284951210022,0.05955839529633522,8.997513771057129,-0.5755272507667542,-2.8409290313720703
1403637130678319000,-0.049931854009628296,0.02771606482565403,0.04784249886870384,8.996668815612793,-0.7214866876602173,-2.7589285373687744
1403637130683319000,-0.04642132669687271,0.010118944570422173,0.06884649395942688,8.956002235412598,-0.7782675623893738,-2.644625425338745
1403637130688319000,-0.04288753122091293,-0.00112178735435009,0.08894277364015579,9.233936309814453,-0.8199568390846252,-2.5226361751556396
1403637130693319000,-0.03578469157218933,-0.010766902938485146,0.09860602021217346,9.395953178405762,-1.1568390130996704,-2.2623491287231445
1403637130698319000,-0.02294347807765007,-0.010122103616595268,0.09034614264965057,9.605899810791016,-1.4876435995101929,-1.9394302368164062
1403637130703319000,0.006734311580657959,-0.01358029805123806,0.08135686814785004,9.521554946899414,-1.7031172513961792,-1.6889982223510742
1403637130708319000,0.04887310415506363,-0.012032190337777138,0.07509198039770126,9.794108390808105,-1.318855881690979,-1.884164810180664
1403637130713319000,0.06020096689462662,0.004878636449575424,0.09101777523756027,9.928268432617188,-0.47479796409606934,-2.184305191040039
1403637130718319000,0.041309453547000885,0.034191228449344635,0.10751277953386307,10.019383430480957,0.22750148177146912,-2.5190622806549072
1403637130723319000,-0.00533757358789444,0.06905429065227509,0.12555724382400513,9.783175468444824,0.30202028155326843,-2.6488089561462402
1403637130728319000,-0.04032433032989502,0.08183510601520538,0.12002913653850555,9.578786849975586,-0.16256742179393768,-2.613905668258667
1403637130733319000,-0.0422850027680397,0.07431349158287048,0.11089494824409485,9.111971855163574,-0.9474595785140991,-2.440014600753784
1403637130738319000,-0.012905225157737732,0.054544709622859955,0.09566640853881836,9.070391654968262,-1.2413296699523926,-2.4484169483184814
1403637130743319000,0.020502209663391113,0.031966619193553925,0.07987764477729797,8.947383880615234,-1.0282970666885376,-2.497530460357666
1403637130748319000,0.028738312423229218,0.011506345123052597,0.06322762370109558,9.144064903259277,-0.2998368442058563,-2.7610790729522705
1403637130753319000,0.01832781732082367,0.0044741276651620865,0.05487848073244095,9.210123062133789,-0.029414445161819458,-2.794670343399048
1403637130758319000,-0.008072920143604279,-0.00807800330221653,0.04487175866961479,9.21863842010498,-0.037037573754787445,-2.597607374191284
1403637130763319000,-0.035806380212306976,-0.022763846442103386,0.04047497361898422,9.275213241577148,-0.2899312973022461,-2.4410974979400635
1403637130768319000,-0.04273994266986847,-0.015008652582764626,0.037721119821071625,9.714879035949707,-0.5271413922309875,-2.4413111209869385
1403637130773319000,-0.044967636466026306,0.008164728060364723,0.0498594231903553,9.73005199432373,-0.8385257124900818,-2.426144599914551
1403637130778319000,-0.030496925115585327,0.023685911670327187,0.057866308838129044,9.795412063598633,-0.9621060490608215,-2.493445634841919
1403637130783319000,-0.015847600996494293,0.04211887717247009,0.06692028045654297,9.656643867492676,-0.9450613856315613,-2.5012171268463135
1403637130788319000,-0.005416207015514374,0.05333768576383591,0.07149825990200043,9.518272399902344,-0.8149691820144653,-2.4834885597229004
1403637130793319000,-0.008814029395580292,0.055964432656764984,0.07475151121616364,9.315058708190918,-0.6940892934799194,-2.3924918174743652
1403637130798319000,-0.009399831295013428,0.04337141662836075,0.06641761213541031,9.24187183380127,-0.7783257365226746,-2.2043402194976807
1403637130803319000,-0.006996996700763702,0.015497306361794472,0.0562487468123436,9.076292991638184,-1.3118971586227417,-2.033681631088257
1403637130808319000,0.014633916318416595,-0.016142135486006737,0.04668828472495079,9.361730575561523,-1.4020394086837769,-2.075664758682251
1403637130813319000,0.049906112253665924,-0.028107384219765663,0.06333710253238678,9.477994918823242,-0.8999828696250916,-2.262862205505371
1403637130818319000,0.05031967908143997,-0.02253514714539051,0.0769563689827919,9.8630952835083,-0.11219029128551483,-2.558690071105957
1403637130823319000,0.018934279680252075,0.015843776986002922,0.0891939178109169,9.928083419799805,0.23196201026439667,-2.7221179008483887
1403637130828319000,-0.01800893247127533,0.04454328864812851,0.0850355327129364,9.887370109558105,0.04395047947764397,-2.712764263153076
1403637130833319000,-0.03545118123292923,0.06214319169521332,0.08246909081935883,9.568557739257812,-0.6018127202987671,-2.5069985389709473
1403637130838319000,-0.020594172179698944,0.05944453179836273,0.07996873557567596,9.355372428894043,-1.0273009538650513,-2.4010767936706543
1403637130843319000,-0.00231943279504776,0.04891543090343475,0.08498062938451767,9.044857025146484,-1.0437004566192627,-2.3764777183532715
1403637130848319000,0.010021023452281952,0.03414131700992584,0.08060857653617859,9.110754013061523,-0.774458646774292,-2.5399863719940186
1403637130853319000,0.004980437457561493,0.023708274587988853,0.07418877631425858,9.086957931518555,-0.6841145157814026,-2.6865930557250977
1403637130858319000,0.00017046183347702026,0.014699576422572136,0.06788524240255356,9.315756797790527,-0.7250651717185974,-2.6452744007110596
1403637130863319000,0.0010915473103523254,0.0075769927352666855,0.07695664465427399,9.22589111328125,-0.7492142915725708,-2.513085126876831
1403637130868319000,0.00047311931848526,-0.0009845029562711716,0.08048047870397568,9.470671653747559,-0.6591055393218994,-2.4321813583374023
1403637130873319000,-0.008622780442237854,-0.002396652474999428,0.08675786852836609,9.453506469726562,-0.7334131002426147,-2.3024158477783203
1403637130878319000,-0.01096467673778534,-0.002347644418478012,0.0916651040315628,9.592166900634766,-0.9213256239891052,-2.320580244064331
1403637130883319000,-0.0020032599568367004,0.01253742165863514,0.1014712005853653,9.616158485412598,-1.0766252279281616,-2.3297340869903564
1403637130888319000,0.012687534093856812,0.026617126539349556,0.1167403906583786,9.731250762939453,-0.9629705548286438,-2.5006699562072754
1403637130893319000,0.02607022225856781,0.046153053641319275,0.12770719826221466,9.544092178344727,-0.7110574841499329,-2.491422176361084
1403637130898319000,0.023248054087162018,0.051578424870967865,0.12544065713882446,9.447700500488281,-0.3201935291290283,-2.4091928005218506
1403637130903319000,0.009202435612678528,0.04659756273031235,0.11717753112316132,9.170723915100098,-0.2388041764497757,-2.3105173110961914
1403637130908319000,-0.0032822415232658386,0.023557832464575768,0.10687009990215302,9.235690116882324,-0.36887258291244507,-2.327390670776367
1403637130913319000,-0.007388748228549957,0.007539624348282814,0.08741657435894012,9.406133651733398,-0.5224999785423279,-2.4506168365478516
1403637130918319000,-0.00042742490768432617,0.00197809562087059,0.06996871531009674,9.552070617675781,-0.5216386914253235,-2.606127977371216
1403637130923319000,0.0002179369330406189,0.01250147633254528,0.06082770973443985,9.510519981384277,-0.5043393969535828,-2.63017201423645
1403637130928319000,-0.0026793554425239563,0.027187513187527657,0.05667204037308693,9.633064270019531,-0.46186739206314087,-2.6297008991241455
1403637130933319000,-0.0026621073484420776,0.03550507873296738,0.06175495684146881,9.477862358093262,-0.5272125601768494,-2.49019193649292
1403637130938319000,-0.0011485442519187927,0.031139319762587547,0.06521989405155182,9.41293716430664,-0.5686745047569275,-2.417078971862793
1403637130943319000,-0.0010319724678993225,0.026238514110445976,0.06025386229157448,9.265902519226074,-0.6831587553024292,-2.376457691192627
1403637130948319000,-0.005292326211929321,0.014438552781939507,0.05543355643749237,9.429244995117188,-0.6508965492248535,-2.450671911239624
1403637130953319000,-0.00817863643169403,0.013922890648245811,0.054101698100566864,9.420955657958984,-0.6515289545059204,-2.410064458847046
1403637130958319000,-0.009552977979183197,0.00841440074145794,0.048570044338703156,9.510991096496582,-0.6684680581092834,-2.4342517852783203
1403637130963319000,-0.011511385440826416,0.012609923258423805,0.05699530243873596,9.445405960083008,-0.7261804938316345,-2.424978733062744
1403637130968319000,-0.00591568648815155,0.01741194911301136,0.06239026039838791,9.608505249023438,-0.7183513641357422,-2.50647234916687
1403637130973319000,-0.003257185220718384,0.027844415977597237,0.06644347310066223,9.535001754760742,-0.6522529721260071,-2.547455310821533
1403637130978319000,-0.00405547022819519,0.03413692116737366,0.0623616985976696,9.584310531616211,-0.5289053916931152,-2.548308849334717
1403637130983319000,-0.011672869324684143,0.03278110921382904,0.06791697442531586,9.33132266998291,-0.471075177192688,-2.5235023498535156
1403637130988319000,-0.018582560122013092,0.02649150975048542,0.06377815455198288,9.404916763305664,-0.47994178533554077,-2.556419610977173
1403637130993319000,-0.01992480829358101,0.025728223845362663,0.06598517298698425,9.298917770385742,-0.545708179473877,-2.5230963230133057
1403637130998319000,-0.018548157066106796,0.024947071447968483,0.062423091381788254,9.33983039855957,-0.6270895004272461,-2.579895257949829
1403637131003319000,-0.019951671361923218,0.020716095343232155,0.07002148777246475,9.250222206115723,-0.5607646107673645,-2.555290460586548
1403637131008319000,-0.01996605098247528,0.020718781277537346,0.06869608908891678,9.364492416381836,-0.560529351234436,-2.539306640625
1403637131013319000,-0.022728152573108673,0.02147122286260128,0.07350725680589676,9.31531810760498,-0.5930362939834595,-2.5068202018737793
1403637131018319000,-0.02686646580696106,0.020139778032898903,0.0763104110956192,9.494863510131836,-0.7077437043190002,-2.4176712036132812
1403637131023319000,-0.022557560354471207,0.014007655903697014,0.07920855283737183,9.363210678100586,-0.9868761897087097,-2.229900360107422
1403637131028319000,-0.007076054811477661,0.0013974029570817947,0.06392582505941391,9.574235916137695,-1.2257510423660278,-2.085175037384033
1403637131033319000,0.016555018723011017,-0.0042644888162612915,0.05974595621228218,9.598686218261719,-1.1441060304641724,-2.0691165924072266
1403637131038319000,0.02958410233259201,0.0033408552408218384,0.059665579348802567,9.690596580505371,-0.5957754254341125,-2.1754097938537598
1403637131043319000,0.019036509096622467,0.0180212389677763,0.0692908763885498,9.667152404785156,-0.13771745562553406,-2.3790318965911865
1403637131048319000,-0.00887908786535263,0.038257285952568054,0.06859613209962845,9.765275001525879,0.05876375734806061,-2.6482365131378174
1403637131053319000,-0.031227603554725647,0.050267741084098816,0.06374160945415497,9.479179382324219,-0.2846146523952484,-2.613605499267578
1403637131058319000,-0.034676916897296906,0.057384103536605835,0.05478065088391304,9.396871566772461,-0.7752302885055542,-2.6285462379455566
1403637131063319000,-0.013640068471431732,0.0476921945810318,0.04514790326356888,9.052734375,-1.1106905937194824,-2.4805755615234375
1403637131068319000,0.010076992213726044,0.029404694214463234,0.03465918451547623,9.12576675415039,-0.9880619645118713,-2.5869367122650146
1403637131073319000,0.021136857569217682,0.01595335640013218,0.03116845339536667,9.134367942810059,-0.7013024091720581,-2.6939494609832764
1403637131078319000,0.015501350164413452,0.009545689448714256,0.029760248959064484,9.347356796264648,-0.5536428093910217,-2.74383807182312
1403637131083319000,0.004404254257678986,-0.0037449710071086884,0.046449705958366394,9.184513092041016,-0.5774636268615723,-2.571774482727051
1403637131088319000,-0.007283039391040802,-0.007946552708745003,0.061757393181324005,9.34809398651123,-0.765480637550354,-2.457134246826172
1403637131093319000,-0.00995122641324997,-0.008609618991613388,0.08187738060951233,9.396418571472168,-0.9291390776634216,-2.310275077819824
1403637131098319000,-0.009326212108135223,-0.003011748194694519,0.10133765637874603,9.64148998260498,-0.8886613249778748,-2.303616762161255
1403637131103319000,-0.006703175604343414,0.007638631388545036,0.12363684177398682,9.608865737915039,-0.954171895980835,-2.2964158058166504
1403637131108319000,-0.004729896783828735,0.02383936010301113,0.14313413202762604,9.781375885009766,-0.8477186560630798,-2.4031050205230713
1403637131113319000,-0.0019314661622047424,0.03923486918210983,0.16050957143306732,9.708281517028809,-0.8478127121925354,-2.443467140197754
1403637131118319000,-0.0018563345074653625,0.05670034885406494,0.1575414538383484,9.683904647827148,-0.9147087931632996,-2.4265730381011963
1403637131123319000,0.004548557102680206,0.06031108647584915,0.14293354749679565,9.315325736999512,-1.185762882232666,-2.237983465194702
1403637131128319000,0.024001680314540863,0.048391133546829224,0.13193261623382568,8.89906120300293,-1.251259207725525,-2.2764573097229004
1403637131133319000,0.05241828411817551,0.01461884193122387,0.13750532269477844,8.933185577392578,-0.8502422571182251,-2.455579996109009
1403637131138319000,0.06290338188409805,0.004601446911692619,0.1374044567346573,9.301775932312012,-0.1785915195941925,-2.7360076904296875
1403637131143319000,0.04765590280294418,0.0030402112752199173,0.13514044880867004,9.530010223388672,0.3366561532020569,-2.812683582305908
1403637131148319000,0.005094483494758606,0.016323288902640343,0.11202848702669144,9.643369674682617,0.3448689579963684,-2.779792308807373
1403637131153319000,-0.024285517632961273,0.020651472732424736,0.09617432951927185,9.552989959716797,-0.14475831389427185,-2.5569441318511963
1403637131158319000,-0.022768087685108185,0.023456035181879997,0.08815179765224457,9.494872093200684,-0.6684530377388,-2.376537561416626
1403637131163319000,-0.000311143696308136,0.016426371410489082,0.07918153703212738,9.3551664352417,-0.8818181753158569,-2.2304399013519287
1403637131168319000,0.019861817359924316,0.01293402723968029,0.062439050525426865,9.436766624450684,-0.570641279220581,-2.2966246604919434
1403637131173319000,0.023875996470451355,0.007502177730202675,0.05193863809108734,9.510455131530762,-0.2845020890235901,-2.3465185165405273
1403637131178319000,0.004967264831066132,0.013893233612179756,0.0330158993601799,9.617757797241211,-0.14553678035736084,-2.32232666015625
1403637131183319000,-0.013694114983081818,0.012577062472701073,0.0268620066344738,9.569196701049805,-0.366274893283844,-2.2474477291107178
1403637131188319000,-0.02322085201740265,0.019603805616497993,0.026234231889247894,9.535595893859863,-0.6442096829414368,-2.3105854988098145
1403637131193319000,-0.01486986130475998,0.02027473784983158,0.03521832451224327,9.673002243041992,-0.9225220680236816,-2.3923046588897705
1403637131198319000,-0.00878499448299408,0.034236982464790344,0.04444211348891258,9.582939147949219,-0.9459227323532104,-2.4660558700561523
1403637131203319000,-0.008267484605312347,0.03563942760229111,0.05490072816610336,9.4695463180542,-0.7974574565887451,-2.442359447479248
1403637131208319000,-0.006915375590324402,0.03435280919075012,0.06934989988803864,9.290200233459473,-0.8138766288757324,-2.4415526390075684
1403637131213319000,-0.004730738699436188,0.027347633615136147,0.07490326464176178,9.289848327636719,-0.8884620666503906,-2.416773557662964
1403637131218319000,-0.0024792924523353577,0.026514923200011253,0.08253823220729828,9.273707389831543,-0.9223858118057251,-2.4650092124938965
1403637131223319000,0.001057557761669159,0.018714984878897667,0.09444200992584229,9.291009902954102,-0.8660770654678345,-2.489363670349121
1403637131228319000,0.004484325647354126,0.011715518310666084,0.10707677155733109,9.357001304626465,-0.7919646501541138,-2.4816861152648926
1403637131233319000,0.0002737194299697876,0.005413008853793144,0.107648566365242,9.471233367919922,-0.7179860472679138,-2.4744982719421387
1403637131238319000,0.003761500120162964,0.013113321736454964,0.10744435340166092,9.479117393493652,-0.6436570286750793,-2.4341626167297363
1403637131243319000,0.00234859436750412,0.015992002561688423,0.1045953631401062,9.699172973632812,-0.6183860898017883,-2.4756903648376465
1403637131248319000,0.0022845789790153503,0.02869393862783909,0.09984158724546432,9.470139503479004,-0.5603203177452087,-2.376969575881958
1403637131253319000,0.00019987672567367554,0.03350216895341873,0.09513331204652786,9.576708793640137,-0.40485259890556335,-2.516249895095825
1403637131258319000,-0.004681430757045746,0.03971582651138306,0.09238719940185547,9.39724063873291,-0.5033847093582153,-2.474944829940796
1403637131263319000,-0.012317918241024017,0.03472508490085602,0.08816436678171158,9.560583114624023,-0.5937754511833191,-2.557025194168091
1403637131268319000,-0.006715834140777588,0.037554942071437836,0.08326178789138794,9.36414909362793,-0.6838712692260742,-2.466477155685425
1403637131273319000,-0.003918789327144623,0.020062895491719246,0.08109625428915024,9.21794319152832,-0.6030401587486267,-2.310878276824951
1403637131278319000,0.002297036349773407,0.0053558386862277985,0.08183081448078156,9.267319679260254,-0.4232655465602875,-2.384568691253662
1403637131283319000,-0.007369346916675568,0.0151482243090868,0.0770173892378807,9.658914566040039,-0.2193158119916916,-2.6306209564208984
1403637131288319000,-0.022727571427822113,0.022154582664370537,0.06236153468489647,9.413451194763184,-0.18661664426326752,-2.5327212810516357
1403637131293319000,-0.03943493217229843,0.017303211614489555,0.045004624873399734,9.527353286743164,-0.5629479885101318,-2.5159995555877686
1403637131298319000,-0.02617407962679863,0.023034745827317238,0.05136635899543762,9.354791641235352,-0.9795376062393188,-2.375810146331787
1403637131303319000,-0.009432859718799591,0.019516775384545326,0.05552678927779198,9.403362274169922,-1.0694977045059204,-2.383777379989624
1403637131308319000,0.0072756484150886536,0.01878913678228855,0.0631367638707161,9.477242469787598,-0.9960505366325378,-2.3606021404266357
1403637131313319000,0.013529963791370392,0.027914809063076973,0.06099927797913551,9.641133308410645,-0.6855531334877014,-2.483302593231201
1403637131318319000,0.011297382414340973,0.024478739127516747,0.05815719813108444,9.22465705871582,-0.5216234922409058,-2.4579639434814453
1403637131323319000,-0.006753779947757721,0.015951091423630714,0.06521221995353699,9.397647857666016,-0.5380700826644897,-2.507380247116089
1403637131328319000,-0.008052296936511993,0.0236987117677927,0.07710456103086472,9.27500057220459,-0.6684592962265015,-2.4083516597747803
1403637131333319000,-0.0024827569723129272,0.016711661592125893,0.08811700344085693,9.388702392578125,-0.7662070393562317,-2.448957920074463
1403637131338319000,0.00019360333681106567,0.013898322358727455,0.09160792082548141,9.559784889221191,-0.8477121591567993,-2.5801444053649902
1403637131343319000,0.006507977843284607,0.030000029131770134,0.08877380192279816,9.559625625610352,-0.7657985687255859,-2.572262763977051
1403637131348319000,0.011300928890705109,0.03415931761264801,0.09920366108417511,9.372461318969727,-0.5772476196289062,-2.589010238647461
1403637131353319000,0.005019761621952057,0.037561625242233276,0.0915718749165535,9.487251281738281,-0.33170783519744873,-2.7119698524475098
1403637131358319000,-0.00807846337556839,0.03895147144794464,0.08521071076393127,9.348252296447754,-0.2661398649215698,-2.646040678024292
1403637131363319000,-0.021984614431858063,0.035332344472408295,0.06998318433761597,9.258188247680664,-0.4059615433216095,-2.555885076522827
1403637131368319000,-0.024811599403619766,0.016503358259797096,0.068044513463974,9.14402961730957,-0.7990975975990295,-2.375636100769043
1403637131373319000,-0.017685994505882263,0.0019585564732551575,0.07090673595666885,9.225052833557129,-1.1105105876922607,-2.2616477012634277
1403637131378319000,0.003335326910018921,-0.015488727018237114,0.08546951413154602,9.379219055175781,-1.3319337368011475,-2.222106695175171
1403637131383319000,0.02274630218744278,-0.007870711386203766,0.08877833932638168,9.673046112060547,-1.2172660827636719,-2.215546131134033
1403637131388319000,0.031006313860416412,-0.007747160270810127,0.08881703019142151,9.698210716247559,-0.955493688583374,-2.158785581588745
1403637131393319000,0.03159501403570175,0.00976601429283619,0.09031076729297638,9.846625328063965,-0.612328290939331,-2.1998040676116943
1403637131398319000,0.030091017484664917,0.02727179415524006,0.09374465048313141,9.790008544921875,-0.30959048867225647,-2.280522108078003
1403637131403319000,0.01758711040019989,0.04605114459991455,0.09648092091083527,9.6674222946167,-0.18683357536792755,-2.426793098449707
1403637131408319000,-0.007429875433444977,0.05232127755880356,0.09773698449134827,9.60984992980957,-0.17055422067642212,-2.573967933654785
1403637131413319000,-0.02354409545660019,0.06427839398384094,0.08793209493160248,9.405489921569824,-0.38342776894569397,-2.6136670112609863
1403637131418319000,-0.025709856301546097,0.053133442997932434,0.07839559018611908,9.241958618164062,-0.7596712708473206,-2.539407253265381
1403637131423319000,-0.005387023091316223,0.042598940432071686,0.07016671448945999,9.045328140258789,-1.0952905416488647,-2.4569222927093506
1403637131428319000,0.01574554294347763,0.012525858357548714,0.061732660979032516,9.036544799804688,-1.1613577604293823,-2.4076666831970215
1403637131433319000,0.03311289846897125,-0.004374712705612183,0.05268680304288864,9.158970832824707,-0.8989753127098083,-2.40790057182312
1403637131438319000,0.041332535445690155,-0.017085561528801918,0.054031770676374435,9.290645599365234,-0.4888361692428589,-2.46589994430542
1403637131443319000,0.02455199509859085,-0.012143345549702644,0.05536336451768875,9.462834358215332,-0.21771004796028137,-2.5567028522491455
1403637131448319000,-0.000459820032119751,-0.004346802830696106,0.05957220122218132,9.609549522399902,-0.19237020611763,-2.5244083404541016
1403637131453319000,-0.017111562192440033,0.006879206746816635,0.06443048268556595,9.568221092224121,-0.41301530599594116,-2.3934407234191895
1403637131458319000,-0.02064737305045128,0.017351442947983742,0.06996268779039383,9.698287963867188,-0.6509086489677429,-2.3855552673339844
1403637131463319000,-0.016510043293237686,0.032091014087200165,0.07360386848449707,9.575240135192871,-0.8555231094360352,-2.4097108840942383
1403637131468319000,-0.009591840207576752,0.03843536227941513,0.06949062645435333,9.624260902404785,-0.8476142883300781,-2.557145833969116
1403637131473319000,-0.006111055612564087,0.051797084510326385,0.06316864490509033,9.3223876953125,-0.8721837401390076,-2.6051087379455566
1403637131478319000,0.0029431283473968506,0.03983371704816818,0.06312121450901031,9.037723541259766,-0.6275103092193604,-2.5794639587402344
1403637131483319000,0.00582442432641983,0.021607687696814537,0.07137173414230347,9.014142990112305,-0.4236144721508026,-2.579033851623535
1403637131488319000,0.004481449723243713,0.006072331219911575,0.07897453010082245,9.439082145690918,-0.3017734885215759,-2.628936290740967
1403637131493319000,-0.01637541875243187,0.008068196475505829,0.07902758568525314,9.463095664978027,-0.2519260346889496,-2.5888311862945557
1403637131498319000,-0.03523693233728409,0.004590475931763649,0.0672038123011589,9.683116912841797,-0.4396853744983673,-2.5490899085998535
1403637131503319000,-0.0401557981967926,0.013829177245497704,0.06728017330169678,9.54330062866211,-0.8389875292778015,-2.491086959838867
1403637131508319000,-0.0304512158036232,0.015940168872475624,0.0792001336812973,9.600032806396484,-0.9443051218986511,-2.483290433883667
1403637131513319000,-0.01084873080253601,0.02777976728975773,0.08890774846076965,9.502086639404297,-0.8949950337409973,-2.3609421253204346
1403637131518319000,-0.0018449649214744568,0.028471020981669426,0.08394290506839752,9.543601989746094,-0.6582978367805481,-2.4014649391174316
1403637131523319000,-0.003995247185230255,0.034863367676734924,0.07623297721147537,9.323375701904297,-0.49534282088279724,-2.3358120918273926
1403637131528319000,-0.010959066450595856,0.02647891454398632,0.06857027113437653,9.357060432434082,-0.39025214314460754,-2.417647123336792
1403637131533319000,-0.017156198620796204,0.02718437649309635,0.07148882746696472,9.35710620880127,-0.4559313654899597,-2.5236566066741943
1403637131538319000,-0.02196229249238968,0.025784017518162727,0.07077556103467941,9.56069564819336,-0.4724067747592926,-2.6055445671081543
1403637131543319000,-0.02680734544992447,0.02510012872517109,0.07558389753103256,9.494888305664062,-0.6361706852912903,-2.539766788482666
1403637131548319000,-0.026875920593738556,0.02857314981520176,0.07774150371551514,9.633355140686035,-0.8896859884262085,-2.5234713554382324
1403637131553319000,-0.021327458322048187,0.03630468249320984,0.08611089736223221,9.330705642700195,-1.0361140966415405,-2.311018943786621
1403637131558319000,-0.007333986461162567,0.027935361489653587,0.09303748607635498,9.289700508117676,-1.1752301454544067,-2.2950503826141357
1403637131563319000,0.007346592843532562,0.022365612909197807,0.10485413670539856,9.224361419677734,-1.190944790840149,-2.32741379737854
1403637131568319000,0.022567816078662872,0.02157268114387989,0.1103840246796608,9.363890647888184,-0.9703847169876099,-2.416944980621338
1403637131573319000,0.025278590619564056,0.022917358204722404,0.12015444785356522,9.397924423217773,-0.6602196097373962,-2.48242449760437
1403637131578319000,0.013449065387248993,0.026370620355010033,0.12083610147237778,9.472579956054688,-0.3823355436325073,-2.5315418243408203
1403637131583319000,0.0016826987266540527,0.020817140117287636,0.12832629680633545,9.399203300476074,-0.2679904103279114,-2.4744749069213867
1403637131588319000,-0.015727121382951736,0.021418901160359383,0.12265171110630035,9.520939826965332,-0.3420447111129761,-2.442535877227783
1403637131593319000,-0.0206136554479599,0.013773703947663307,0.10947223007678986,9.544279098510742,-0.6778671145439148,-2.3125460147857666
1403637131598319000,-0.009457089006900787,0.010357547551393509,0.09089101850986481,9.649324417114258,-0.9315769076347351,-2.305046319961548
1403637131603319000,0.010003291070461273,0.01677982322871685,0.08409185707569122,9.575289726257324,-1.0138201713562012,-2.3133177757263184
1403637131608319000,0.026039667427539825,0.02445271424949169,0.07848402857780457,9.616543769836426,-0.8500181436538696,-2.3700296878814697
1403637131613319000,0.03369513154029846,0.02161894552409649,0.08183091133832932,9.462224006652832,-0.563102662563324,-2.434020519256592
1403637131618319000,0.02875731885433197,0.025711817666888237,0.07470626384019852,9.45510482788086,-0.3102628290653229,-2.4419400691986084
1403637131623319000,0.008546322584152222,0.019430095329880714,0.07055877894163132,9.34089469909668,-0.37500301003456116,-2.4575705528259277
1403637131628319000,-0.0053165629506111145,0.019365621730685234,0.0610315166413784,9.381376266479492,-0.4883088767528534,-2.4903576374053955
1403637131633319000,-0.006699621677398682,0.018122484907507896,0.06042539328336716,9.38862133026123,-0.7173975110054016,-2.457838773727417
1403637131638319000,-0.0018948689103126526,0.01960885338485241,0.05763116478919983,9.444897651672363,-0.8640941381454468,-2.5395045280456543
1403637131643319000,0.008593402802944183,0.016782568767666817,0.05898664519190788,9.37076187133789,-0.9454092383384705,-2.498586416244507
1403637131648319000,0.01685211807489395,0.02369881235063076,0.060979414731264114,9.411945343017578,-0.7571665048599243,-2.5718979835510254
1403637131653319000,0.019598327577114105,0.020185956731438637,0.06653954088687897,9.428951263427734,-0.594254195690155,-2.5639424324035645
1403637131658319000,0.012058719992637634,0.019407017156481743,0.06791864335536957,9.486618041992188,-0.48065412044525146,-2.5641748905181885
1403637131663319000,0.005186192691326141,0.015193620696663857,0.07483155280351639,9.405296325683594,-0.4163073003292084,-2.4827566146850586
1403637131668319000,-0.005956441164016724,0.015899570658802986,0.07626733183860779,9.299172401428223,-0.5227409601211548,-2.417111873626709
1403637131673319000,-0.006701759994029999,0.0040426794439554214,0.08050180226564407,9.43791675567627,-0.5626958012580872,-2.4257678985595703
1403637131678319000,-0.008812151849269867,0.018748914822936058,0.08052894473075867,9.535636901855469,-0.5621645450592041,-2.474862813949585
1403637131683319000,-0.008900940418243408,0.021527165547013283,0.08044391870498657,9.592670440673828,-0.5614470839500427,-2.4835057258605957
1403637131688319000,-0.010275684297084808,0.032000832259655,0.07692357897758484,9.559907913208008,-0.5686460733413696,-2.5076029300689697
1403637131693319000,-0.009577423334121704,0.0327584445476532,0.07905091345310211,9.494638442993164,-0.6014837622642517,-2.4745848178863525
1403637131698319000,-0.00956019014120102,0.035537101328372955,0.07212984561920166,9.43751335144043,-0.5854308605194092,-2.4498744010925293
1403637131703319000,-0.008828766644001007,0.027107546105980873,0.06383214890956879,9.356030464172363,-0.5281162858009338,-2.4660489559173584
1403637131708319000,-0.010177932679653168,0.023616882041096687,0.060360200703144073,9.347909927368164,-0.48775649070739746,-2.4743359088897705
1403637131713319000,-0.01090136170387268,0.015959003940224648,0.05540461093187332,9.478338241577148,-0.5375716090202332,-2.499175786972046
1403637131718319000,-0.016464870423078537,0.022212183102965355,0.04847327619791031,9.470041275024414,-0.64338219165802,-2.490814685821533
1403637131723319000,-0.01782923936843872,0.020124269649386406,0.04924165457487106,9.469911575317383,-0.7499054670333862,-2.441833019256592
1403637131728319000,-0.014320380985736847,0.02159484662115574,0.05063693970441818,9.306203842163086,-0.8233638405799866,-2.3759217262268066
1403637131733319000,-0.006692349910736084,0.01458829827606678,0.05209261178970337,9.412252426147461,-0.7905716896057129,-2.3844311237335205
1403637131738319000,-0.0038993284106254578,0.020214172080159187,0.06045643240213394,9.428690910339355,-0.7743787169456482,-2.4008092880249023
1403637131743319000,-0.006710179150104523,0.018797213211655617,0.0603061243891716,9.535331726074219,-0.6846656799316406,-2.417935609817505
1403637131748319000,-0.0067486390471458435,0.025850126519799232,0.07216443121433258,9.453768730163574,-0.6431669592857361,-2.49908709526062
1403637131753319000,-0.012307249009609222,0.02793881483376026,0.07499074935913086,9.51095962524414,-0.6602179408073425,-2.547987699508667
1403637131758319000,-0.01570882275700569,0.0356108620762825,0.07839514315128326,9.437230110168457,-0.8566248416900635,-2.5636978149414062
1403637131763319000,-0.007302217185497284,0.03984083980321884,0.07919701933860779,9.4938325881958,-1.0940003395080566,-2.506850004196167
1403637131768319000,0.0010987520217895508,0.03642961382865906,0.08475685864686966,9.15869426727295,-1.1433367729187012,-2.2051310539245605
1403637131773319000,0.017737582325935364,0.010463187471032143,0.09369954466819763,9.135224342346191,-1.0122960805892944,-2.261787176132202
1403637131778319000,0.028830580413341522,0.0026937127113342285,0.10765842348337173,9.29936408996582,-0.8073895573616028,-2.360023260116577
1403637131783319000,0.021776773035526276,-0.0022761449217796326,0.10473266988992691,9.585492134094238,-0.5210753083229065,-2.540590524673462
1403637131788319000,0.014818526804447174,0.01310267485678196,0.10884322226047516,9.618261337280273,-0.3823966085910797,-2.549206256866455
1403637131793319000,0.0050879791378974915,0.02362917549908161,0.10963451117277145,9.708312034606934,-0.3581387996673584,-2.5161373615264893
1403637131798319000,-0.010226719081401825,0.03342019021511078,0.10889000445604324,9.495738983154297,-0.4070579409599304,-2.4825665950775146
1403637131803319000,-0.012957416474819183,0.03612806648015976,0.11036074161529541,9.585570335388184,-0.48960891366004944,-2.4670565128326416
1403637131808319000,-0.01019381731748581,0.03966834396123886,0.11036902666091919,9.4136381149292,-0.6446456909179688,-2.4749257564544678
1403637131813319000,-0.005417048931121826,0.0362294539809227,0.09844117611646652,9.372336387634277,-0.668998122215271,-2.4506986141204834
1403637131818319000,0.0009226575493812561,0.022305862978100777,0.08673644810914993,9.2335844039917,-0.652691662311554,-2.4013869762420654
1403637131823319000,0.009328551590442657,0.011770782992243767,0.07138760387897491,9.397306442260742,-0.6038409471511841,-2.4257712364196777
1403637131828319000,0.007878988981246948,0.008205344900488853,0.06508037447929382,9.274954795837402,-0.43987128138542175,-2.3844571113586426
1403637131833319000,0.0030309483408927917,0.0018270686268806458,0.05477443337440491,9.5443754196167,-0.32546859979629517,-2.466651678085327
1403637131838319000,-0.006000854074954987,0.004673309624195099,0.05261873081326485,9.54381275177002,-0.37383806705474854,-2.482727527618408
1403637131843319000,-0.012404784560203552,0.011657925322651863,0.05050644278526306,9.674419403076172,-0.3570577800273895,-2.5243802070617676
1403637131848319000,-0.019312892109155655,0.02086959220468998,0.05336145684123039,9.592580795288086,-0.5124222040176392,-2.5161092281341553
1403637131853319000,-0.022774074226617813,0.030714528635144234,0.05608075484633446,9.62477970123291,-0.6351451873779297,-2.572960138320923
1403637131858319000,-0.02002064138650894,0.04057304561138153,0.06032118201255798,9.477099418640137,-0.7820911407470703,-2.5722930431365967
1403637131863319000,-0.013738162815570831,0.045419447124004364,0.06180274486541748,9.38757038116455,-0.8969897627830505,-2.539175033569336
1403637131868319000,-0.009477697312831879,0.03907639533281326,0.07086072117090225,9.143513679504395,-0.872176468372345,-2.4813389778137207
1403637131873319000,-0.002503223717212677,0.025044897571206093,0.07843984663486481,9.168828964233398,-0.6762510538101196,-2.4325788021087646
1403637131878319000,-0.005278423428535461,0.008224092423915863,0.08459989726543427,9.144487380981445,-0.6030715703964233,-2.408299684524536
1403637131883319000,-0.011563345789909363,-0.0009503383189439774,0.08522255718708038,9.479256629943848,-0.5044975876808167,-2.4585487842559814
1403637131888319000,-0.017801526933908463,0.004755554720759392,0.0789966732263565,9.494744300842285,-0.6592839360237122,-2.4091689586639404
1403637131893319000,-0.012294463813304901,0.006922772154211998,0.07492206245660782,9.68234920501709,-0.7167885899543762,-2.499268054962158
1403637131898319000,-0.005289427936077118,0.020963987335562706,0.08131150156259537,9.632743835449219,-0.8552629351615906,-2.4177324771881104
1403637131903319000,0.0016620755195617676,0.028573593124747276,0.08121836185455322,9.632795333862305,-0.8389126062393188,-2.426103115081787
1403637131908319000,0.009269975125789642,0.03901403397321701,0.08810588717460632,9.485969543457031,-0.7653795480728149,-2.4422242641448975
1403637131913319000,0.005718700587749481,0.040472082793712616,0.08599849045276642,9.494766235351562,-0.7003251910209656,-2.4910805225372314
1403637131918319000,0.0023117586970329285,0.04051104933023453,0.09155628085136414,9.217702865600586,-0.6842932105064392,-2.4576938152313232
1403637131923319000,0.0037712901830673218,0.025805404409766197,0.09236941486597061,9.299914360046387,-0.660668671131134,-2.4904990196228027
1403637131928319000,0.003054611384868622,0.018772216513752937,0.09166114032268524,9.291611671447754,-0.6770347356796265,-2.4900095462799072
1403637131933319000,-0.0004032924771308899,0.013131806626915932,0.08881431818008423,9.389254570007324,-0.6032437682151794,-2.4985876083374023
1403637131938319000,-0.00042109936475753784,0.011707499623298645,0.08469921350479126,9.315393447875977,-0.6519007682800293,-2.4739694595336914
1403637131943319000,0.0015852153301239014,0.014531722292304039,0.07697521150112152,9.511183738708496,-0.627332329750061,-2.4744999408721924
1403637131948319000,0.0016107410192489624,0.016000861302018166,0.06516488641500473,9.436739921569824,-0.7004696726799011,-2.4661738872528076
1403637131953319000,0.006553925573825836,0.01875193975865841,0.061004795134067535,9.567506790161133,-0.6521607637405396,-2.466949701309204
1403637131958319000,0.009293623268604279,0.02225368656218052,0.06309691071510315,9.371548652648926,-0.6277957558631897,-2.4255318641662598
1403637131963319000,0.011335574090480804,0.017338568344712257,0.0596487820148468,9.535394668579102,-0.5383644104003906,-2.409942388534546
1403637131968319000,0.004470594227313995,0.020148439332842827,0.05827391520142555,9.47835636138916,-0.5473666787147522,-2.303952693939209
1403637131973319000,0.0009728595614433289,0.014544961974024773,0.05472436547279358,9.429763793945312,-0.5556321740150452,-2.2794978618621826
1403637131978319000,-0.0018005967140197754,0.005496188998222351,0.0561254657804966,9.356030464172363,-0.661879301071167,-2.230583667755127
1403637131983319000,-0.0025198832154273987,0.0027231164276599884,0.04851677641272545,9.592510223388672,-0.6454953551292419,-2.3123950958251953
1403637131988319000,-0.0032439902424812317,0.009757721796631813,0.04224683344364166,9.575858116149902,-0.5216708779335022,-2.385572671890259
1403637131993319000,-0.008178949356079102,0.017457222566008568,0.03949350863695145,9.641549110412598,-0.44800472259521484,-2.450894594192505
1403637131998319000,-0.015124183148145676,0.030090438202023506,0.0492708757519722,9.421026229858398,-0.5129031538963318,-2.466094970703125
1403637132003319000,-0.016515739262104034,0.03779352456331253,0.05197390168905258,9.535079002380371,-0.5616292953491211,-2.5233166217803955
1403637132008319000,-0.017222486436367035,0.03979405760765076,0.05749945715069771,9.428823471069336,-0.708431601524353,-2.6614127159118652
1403637132013319000,-0.013716809451580048,0.04599916934967041,0.056800827383995056,9.380064010620117,-0.7244555354118347,-2.6780378818511963
1403637132018319000,-0.010176070034503937,0.0348624512553215,0.05894496291875839,9.143298149108887,-0.749363899230957,-2.5632455348968506
1403637132023319000,-0.008126892149448395,0.021497340872883797,0.0653093010187149,9.290712356567383,-0.6758043766021729,-2.6043038368225098
1403637132028319000,-0.006748989224433899,0.011690454557538033,0.06947208940982819,9.119300842285156,-0.6507193446159363,-2.5629451274871826
1403637132033319000,-0.014370344579219818,0.0018606968224048615,0.07074122130870819,9.323857307434082,-0.6509350538253784,-2.523113965988159
1403637132038319000,-0.013637125492095947,-0.002267308533191681,0.07354884594678879,9.306781768798828,-0.7818935513496399,-2.433002233505249
1403637132043319000,-0.013640925288200378,-0.00014039687812328339,0.0804784744977951,9.543478012084961,-0.7577826976776123,-2.384899854660034
1403637132048319000,-0.005267083644866943,0.005479592829942703,0.08887069672346115,9.59244441986084,-0.774610161781311,-2.3121449947357178
1403637132053319000,-0.001041114330291748,0.011032933369278908,0.08677957206964493,9.715279579162598,-0.6934449076652527,-2.2886533737182617
1403637132058319000,0.003763914108276367,0.018794236704707146,0.09017553925514221,9.600664138793945,-0.6361173987388611,-2.296396017074585
1403637132063319000,0.0002584382891654968,0.029303910210728645,0.07837545871734619,9.690674781799316,-0.5627740025520325,-2.3617453575134277
1403637132068319000,-0.0039839670062065125,0.04046950489282608,0.0812031552195549,9.544137001037598,-0.47245264053344727,-2.4181928634643555
1403637132073319000,-0.01091526448726654,0.040506988763809204,0.07423317432403564,9.536360740661621,-0.44791972637176514,-2.458946466445923
1403637132078319000,-0.015101194381713867,0.03979911655187607,0.07417511940002441,9.29947566986084,-0.521583080291748,-2.417219400405884
1403637132083319000,-0.014354251325130463,0.02998996712267399,0.07146207988262177,9.3726806640625,-0.6771639585494995,-2.425290107727051
1403637132088319000,-0.006715826690196991,0.027169307693839073,0.07009461522102356,9.298588752746582,-0.8158652186393738,-2.424705743789673
1403637132093319000,0.0030067935585975647,0.020878134295344353,0.06798350811004639,9.35584831237793,-0.7420358061790466,-2.4577343463897705
1403637132098319000,0.008597694337368011,0.014608697965741158,0.07011264562606812,9.315034866333008,-0.6763761639595032,-2.4496140480041504
1403637132103319000,0.008604690432548523,0.011032670736312866,0.06162743270397186,9.519278526306152,-0.471811980009079,-2.4830195903778076
1403637132108319000,-0.0004575476050376892,0.00744999386370182,0.06372842192649841,9.453916549682617,-0.4227825403213501,-2.450394868850708
1403637132113319000,-0.010228388011455536,0.01161724142730236,0.05892505869269371,9.64196491241455,-0.3248763084411621,-2.483924388885498
1403637132118319000,-0.018572695553302765,0.020043199881911278,0.06583048403263092,9.535807609558105,-0.3162393569946289,-2.4428153038024902
1403637132123319000,-0.03251807391643524,0.02638828568160534,0.057491619139909744,9.59286880493164,-0.2835703492164612,-2.4839529991149902
1403637132128319000,-0.038778334856033325,0.028563881292939186,0.055383410304784775,9.519166946411133,-0.5049071311950684,-2.4917943477630615
1403637132133319000,-0.03808891773223877,0.0342007577419281,0.05053345113992691,9.527040481567383,-0.7096402049064636,-2.515876531600952
1403637132138319000,-0.027634475380182266,0.03497464209794998,0.05066835880279541,9.403865814208984,-0.9548739194869995,-2.4987916946411133
1403637132143319000,-0.015714049339294434,0.03636983782052994,0.04928606003522873,9.428258895874023,-1.0364139080047607,-2.5471723079681396
1403637132148319000,-0.002464599907398224,0.03851033002138138,0.0624900721013546,9.289600372314453,-1.0353810787200928,-2.5709245204925537
1403637132153319000,0.0002681910991668701,0.03634129464626312,0.07077766954898834,9.32297420501709,-0.8799185156822205,-2.6036953926086426
1403637132158319000,0.003720514476299286,0.02860991470515728,0.08816994726657867,9.045687675476074,-0.9693157076835632,-2.521167516708374
1403637132163319000,0.009320192039012909,0.018056316301226616,0.10000509023666382,9.217511177062988,-0.9281365275382996,-2.5054714679718018
1403637132168319000,0.012776307761669159,0.011043446138501167,0.11177913844585419,9.201220512390137,-0.9036859273910522,-2.49711275100708
1403637132173319000,0.015579305589199066,0.004675662145018578,0.11804230511188507,9.471060752868652,-0.7491418719291687,-2.474184989929199
1403637132178319000,0.015546910464763641,0.008189532905817032,0.12358514964580536,9.503584861755371,-0.6760273575782776,-2.3932647705078125
1403637132183319000,0.013394735753536224,0.006802549585700035,0.12141680717468262,9.650893211364746,-0.5872119665145874,-2.377877712249756
1403637132188319000,0.012741975486278534,0.015891170129179955,0.11658613383769989,9.585136413574219,-0.5550457835197449,-2.3046648502349854
1403637132193319000,0.012814551591873169,0.022921735420823097,0.10888385772705078,9.642581939697266,-0.5066928863525391,-2.3212757110595703
1403637132198319000,0.0162995383143425,0.024369923397898674,0.1012164056301117,9.51986312866211,-0.5481296181678772,-2.312636137008667
1403637132203319000,0.018335483968257904,0.029279818758368492,0.09431540966033936,9.675180435180664,-0.35202261805534363,-2.4270126819610596
1403637132208319000,0.007884956896305084,0.03625359386205673,0.08248838782310486,9.56890869140625,-0.3181469142436981,-2.4837453365325928
1403637132213319000,0.004373215138912201,0.03690914809703827,0.06994947791099548,9.544453620910645,-0.3011384606361389,-2.5081305503845215
1403637132218319000,-0.006782211363315582,0.03478813171386719,0.06236373633146286,9.315805435180664,-0.3079490065574646,-2.5317630767822266
1403637132223319000,-0.01168689876794815,0.026379400864243507,0.053295962512493134,9.364723205566406,-0.32366013526916504,-2.5398292541503906
1403637132228319000,-0.020706694573163986,0.022111570462584496,0.044292982667684555,9.306939125061035,-0.4704379141330719,-2.5883419513702393
1403637132233319000,-0.023544620722532272,0.01999574340879917,0.03667487949132919,9.413016319274902,-0.5195009708404541,-2.572441816329956
1403637132238319000,-0.02280467376112938,0.01872042752802372,0.03180922940373421,9.322593688964844,-0.6262593865394592,-2.539257287979126
1403637132243319000,-0.019272640347480774,0.017361672595143318,0.03255598992109299,9.403894424438477,-0.7659942507743835,-2.555462121963501
1403637132248319000,-0.0121832937002182,0.014609130099415779,0.041649915277957916,9.248381614685059,-0.954815685749054,-2.432523250579834
1403637132253319000,-0.005158849060535431,0.011142479255795479,0.04225849360227585,9.378745079040527,-1.0788251161575317,-2.3029532432556152
1403637132258319000,0.006010614335536957,0.009085794910788536,0.054821427911520004,9.329521179199219,-1.136050820350647,-2.262084484100342
1403637132263319000,0.016390740871429443,0.002771912142634392,0.07361998409032822,9.534687042236328,-0.9560228586196899,-2.2792956829071045
1403637132268319000,0.01771210879087448,0.00836028903722763,0.09092655032873154,9.510912895202637,-0.8084464073181152,-2.2956793308258057
1403637132273319000,0.010724417865276337,0.011143764480948448,0.0943957045674324,9.617883682250977,-0.6201452612876892,-2.2802438735961914
1403637132278319000,0.005763731896877289,0.013968965038657188,0.10267774015665054,9.560705184936523,-0.5462176203727722,-2.304013729095459
1403637132283319000,0.0008382424712181091,0.023735037073493004,0.10123254358768463,9.642406463623047,-0.5377814769744873,-2.361154794692993
1403637132288319000,0.002973787486553192,0.026520980522036552,0.09789639711380005,9.560479164123535,-0.6033168435096741,-2.393512010574341
1403637132293319000,0.005114667117595673,0.032068975269794464,0.09023335576057434,9.593128204345703,-0.5459986329078674,-2.5403997898101807
1403637132298319000,0.00855659693479538,0.04044792056083679,0.08523919433355331,9.421558380126953,-0.4640347957611084,-2.580766439437866
1403637132303319000,0.00019512325525283813,0.041110552847385406,0.07555066049098969,9.397266387939453,-0.3571465313434601,-2.6462697982788086
1403637132308319000,-0.010224439203739166,0.03823038190603256,0.07559097558259964,9.217930793762207,-0.3483274281024933,-2.645805835723877
1403637132313319000,-0.013683304190635681,0.027023864910006523,0.0720602497458458,9.242538452148438,-0.40582743287086487,-2.5884616374969482
1403637132318319000,-0.019928637892007828,0.02354968525469303,0.07494715601205826,9.176807403564453,-0.6751638054847717,-2.5386884212493896
1403637132323319000,-0.019170984625816345,0.010237054899334908,0.0770781859755516,9.413305282592773,-0.8386624455451965,-2.5393102169036865
1403637132328319000,-0.00943060964345932,0.007520629093050957,0.08331042528152466,9.371726036071777,-0.9618512392044067,-2.4332988262176514
1403637132333319000,-0.0018314793705940247,0.008250242099165916,0.09173096716403961,9.51060676574707,-0.9944353103637695,-2.409646987915039
1403637132338319000,0.007262587547302246,0.011775655671954155,0.10006256401538849,9.486066818237305,-0.953606367111206,-2.3443105220794678
1403637132343319000,0.014238230884075165,0.01320410706102848,0.10964936763048172,9.650114059448242,-0.7830024361610413,-2.3691346645355225
1403637132348319000,0.013466842472553253,0.02227347530424595,0.11381731182336807,9.6095552444458,-0.661083459854126,-2.336794853210449
1403637132353319000,0.006501726806163788,0.025754982605576515,0.11657721549272537,9.585672378540039,-0.5716173648834229,-2.3205018043518066
1403637132358319000,0.006520159542560577,0.034142524003982544,0.12072306126356125,9.471359252929688,-0.5805986523628235,-2.2956926822662354
1403637132363319000,0.011332906782627106,0.0307148490101099,0.11795590817928314,9.544721603393555,-0.6383052468299866,-2.401643991470337
1403637132368319000,0.011332891881465912,0.03561040014028549,0.1158624142408371,9.430180549621582,-0.6866016387939453,-2.466364860534668
1403637132373319000,0.019715674221515656,0.03830975294113159,0.11027221381664276,9.48742389678955,-0.5634998679161072,-2.5642850399017334
1403637132378319000,0.016169041395187378,0.037551626563072205,0.11164557188749313,9.299880981445312,-0.3991812765598297,-2.5964579582214355
1403637132383319000,0.009889014065265656,0.031895898282527924,0.10679894685745239,9.32452392578125,-0.2920377254486084,-2.686560869216919
1403637132388319000,0.0023592859506607056,0.026974709704518318,0.1012372076511383,9.316290855407715,-0.34077197313308716,-2.629493236541748
1403637132393319000,-0.006035633385181427,0.02343912236392498,0.08381977677345276,9.340263366699219,-0.3971715569496155,-2.5723557472229004
1403637132398319000,-0.009520478546619415,0.01227470301091671,0.07135127484798431,9.233580589294434,-0.4618947207927704,-2.4906132221221924
1403637132403319000,-0.010189279913902283,0.005338231101632118,0.06446179747581482,9.413214683532715,-0.48657387495040894,-2.458484172821045
1403637132408319000,-0.011582396924495697,0.004651771858334541,0.059611983597278595,9.445564270019531,-0.5439711809158325,-2.401700258255005
1403637132413319000,-0.015785396099090576,0.001806415617465973,0.0519283302128315,9.55180835723877,-0.47879624366760254,-2.3615810871124268
1403637132418319000,-0.01502278447151184,0.006836466491222382,0.0435657761991024,9.559686660766602,-0.5366554260253906,-2.279979944229126
1403637132423319000,-0.010849125683307648,0.011122331023216248,0.03593505546450615,9.665322303771973,-0.684796929359436,-2.328601598739624
1403637132428319000,-0.010867670178413391,0.02446753717958927,0.035358726978302,9.656883239746094,-0.7261470556259155,-2.3123741149902344
1403637132433319000,-0.012241281569004059,0.03150251507759094,0.0353764072060585,9.673629760742188,-0.6856236457824707,-2.3855202198028564
1403637132438319000,-0.014388315379619598,0.03784306347370148,0.044377341866493225,9.461477279663086,-0.6444844007492065,-2.4255599975585938
1403637132443319000,-0.0165301114320755,0.037119634449481964,0.04577244073152542,9.445188522338867,-0.685188889503479,-2.4579505920410156
1403637132448319000,-0.015777841210365295,0.035642921924591064,0.055508360266685486,9.298323631286621,-0.80784010887146,-2.489837884902954
1403637132453319000,-0.012267984449863434,0.024405846372246742,0.05966721102595329,9.266098022460938,-0.7912904620170593,-2.473437547683716
1403637132458319000,-0.009493134915828705,0.020906491205096245,0.06451266258955002,9.200769424438477,-0.7824159264564514,-2.432403564453125
1403637132463319000,0.0016452968120574951,0.007591433823108673,0.07009607553482056,9.306784629821777,-0.8071069717407227,-2.457181215286255
1403637132468319000,0.0051306262612342834,0.00893457792699337,0.07567356526851654,9.372042655944824,-0.7330968976020813,-2.49837327003479
1403637132473319000,0.005124233663082123,0.009651655331254005,0.07774633169174194,9.486626625061035,-0.659112811088562,-2.531571388244629
1403637132478319000,0.0030829906463623047,0.01809648983180523,0.08123402297496796,9.42109489440918,-0.7082214951515198,-2.4905712604522705
1403637132483319000,-0.00042588263750076294,0.013193769380450249,0.08739754557609558,9.535572052001953,-0.6922194361686707,-2.4584062099456787
1403637132488319000,-0.0039006397128105164,0.023700380697846413,0.09296166151762009,9.478193283081055,-0.7988100647926331,-2.425546884536743
1403637132493319000,0.002401880919933319,0.020889325067400932,0.09929369390010834,9.45408821105957,-0.7583926916122437,-2.320192813873291
1403637132498319000,0.007940776646137238,0.021575337275862694,0.10067298263311386,9.421667098999023,-0.6683403849601746,-2.3039610385894775
1403637132503319000,0.012764796614646912,0.016702985391020775,0.10344237089157104,9.519930839538574,-0.6117916107177734,-2.3287599086761475
1403637132508319000,0.012755833566188812,0.017358148470520973,0.09021572768688202,9.544278144836426,-0.4970511198043823,-2.42659330368042
1403637132513319000,0.002984188497066498,0.018720300868153572,0.07901319116353989,9.536276817321777,-0.47241517901420593,-2.4509518146514893
1403637132518319000,-0.003959067165851593,0.01945442147552967,0.06793105602264404,9.43826675415039,-0.42412084341049194,-2.3770382404327393
1403637132523319000,-0.0073889195919036865,0.013879982754588127,0.06173184514045715,9.397151947021484,-0.4569251835346222,-2.384705066680908
1403637132528319000,-0.0088048055768013,0.01874740980565548,0.05758211389183998,9.519364356994629,-0.48147153854370117,-2.4177050590515137
1403637132533319000,-0.0074361711740493774,0.017319826409220695,0.06102995201945305,9.519207954406738,-0.4895460307598114,-2.4506144523620605
1403637132538319000,-0.009547777473926544,0.022936871275305748,0.050479378551244736,9.47830581665039,-0.4238346219062805,-2.4427695274353027
1403637132543319000,-0.013759464025497437,0.019454816356301308,0.04772503301501274,9.478365898132324,-0.43994444608688354,-2.458847761154175
1403637132548319000,-0.017908811569213867,0.022958939895033836,0.03736836835741997,9.510793685913086,-0.5050848722457886,-2.4585440158843994
1403637132553319000,-0.015799008309841156,0.027108220383524895,0.029722191393375397,9.526826858520508,-0.5129114985466003,-2.5073506832122803
1403637132558319000,-0.022749867290258408,0.02649918757379055,0.025681115686893463,9.461457252502441,-0.5783672332763672,-2.523277521133423
1403637132563319000,-0.01926320791244507,0.026549456641077995,0.024234265089035034,9.395697593688965,-0.7577804923057556,-2.555266857147217
1403637132568319000,-0.019940681755542755,0.02864084206521511,0.0338989719748497,9.338662147521973,-0.798054575920105,-2.5308139324188232
1403637132573319000,-0.011640682816505432,0.02444169484078884,0.04858390986919403,9.289870262145996,-0.8632873892784119,-2.5223801136016846
1403637132578319000,-0.010862626135349274,0.023024743422865868,0.05539930611848831,9.347274780273438,-0.7408245801925659,-2.5064268112182617
1403637132583319000,-0.008091188967227936,0.015994464978575706,0.06585537642240524,9.322765350341797,-0.7735650539398193,-2.506143808364868
1403637132588319000,-0.008793778717517853,0.014531081542372704,0.07292615622282028,9.404705047607422,-0.7736946940422058,-2.51472806930542
1403637132593319000,-0.009492620825767517,0.010991696268320084,0.07564863562583923,9.453885078430176,-0.75789475440979,-2.3929173946380615
1403637132598319000,-0.007334321737289429,0.011071823537349701,0.08057551085948944,9.462068557739258,-0.7419294714927673,-2.3442397117614746
1403637132603319000,-0.005950696766376495,0.010368486866354942,0.08191163837909698,9.445478439331055,-0.7420769333839417,-2.3198983669281006
1403637132608319000,-0.006663687527179718,0.011098945513367653,0.0762341171503067,9.584281921386719,-0.7179396152496338,-2.3936052322387695
1403637132613319000,0.0009545460343360901,0.013211766257882118,0.08193381130695343,9.568100929260254,-0.7095887660980225,-2.4180402755737305
1403637132618319000,0.0016166791319847107,0.027925537899136543,0.08607304096221924,9.625504493713379,-0.6932825446128845,-2.4751334190368652
1403637132623319000,0.00372970849275589,0.03215561807155609,0.09228434413671494,9.462505340576172,-0.6764730215072632,-2.466204881668091
1403637132628319000,0.005855567753314972,0.03703540563583374,0.0937376320362091,9.438074111938477,-0.6274417042732239,-2.4336764812469482
1403637132633319000,0.006475605070590973,0.03281625360250473,0.09571020305156708,9.397149085998535,-0.7172324657440186,-2.4986588954925537
1403637132638319000,0.0029963552951812744,0.03487394005060196,0.09017998725175858,9.4053316116333,-0.7253350019454956,-2.4824955463409424
1403637132643319000,0.004407867789268494,0.02783249132335186,0.0951891839504242,9.291075706481934,-0.6927362084388733,-2.4497485160827637
1403637132648319000,0.0037293285131454468,0.022245196625590324,0.0999634712934494,9.381072998046875,-0.7008922100067139,-2.482626438140869
1403637132653319000,0.00023468583822250366,0.01663547195494175,0.1110924482345581,9.348416328430176,-0.7255250811576843,-2.449702024459839
1403637132658319000,-0.00041190534830093384,0.0144833754748106,0.11460109055042267,9.479193687438965,-0.7505455017089844,-2.474558115005493
1403637132663319000,0.004418008029460907,0.015889978036284447,0.12281040847301483,9.43836784362793,-0.767227053642273,-2.4172468185424805
1403637132668319000,0.009259410202503204,0.017324237152934074,0.12906458973884583,9.569189071655273,-0.7180693745613098,-2.450239896774292
1403637132673319000,0.01210860162973404,0.02570892684161663,0.1290639340877533,9.47934341430664,-0.6281445622444153,-2.4095191955566406
1403637132678319000,0.010679014027118683,0.029905421659350395,0.11647012829780579,9.544769287109375,-0.48144859075546265,-2.4997787475585938
1403637132683319000,0.0050391629338264465,0.03199591487646103,0.10611123591661453,9.405661582946777,-0.4402184784412384,-2.5157501697540283
1403637132688319000,-0.0005327463150024414,0.03410670906305313,0.09224061667919159,9.511744499206543,-0.3336799442768097,-2.540659189224243
1403637132693319000,-0.0025918856263160706,0.03195265680551529,0.08460885286331177,9.397199630737305,-0.4235803186893463,-2.556264638900757
1403637132698319000,-0.003979258239269257,0.0256489384919405,0.07555112987756729,9.429914474487305,-0.5134699940681458,-2.5315444469451904
1403637132703319000,0.0016035884618759155,0.02427526004612446,0.06991862505674362,9.30700397491455,-0.6033571362495422,-2.4658663272857666
1403637132708319000,0.005086518824100494,0.017322072759270668,0.05812776833772659,9.445455551147461,-0.6274509429931641,-2.5150949954986572
1403637132713319000,0.002285480499267578,0.01588759385049343,0.060326069593429565,9.453387260437012,-0.6922578811645508,-2.539449453353882
1403637132718319000,0.0016479939222335815,0.017308561131358147,0.06242254376411438,9.48624324798584,-0.7005930542945862,-2.5070080757141113
1403637132723319000,0.0030867084860801697,0.01385248638689518,0.07913413643836975,9.396674156188965,-0.7987679243087769,-2.3926680088043213
1403637132728319000,0.0002888813614845276,0.018757110461592674,0.09162157773971558,9.478506088256836,-0.8148218393325806,-2.392563819885254
1403637132733319000,0.0024177804589271545,0.01807466708123684,0.11171089857816696,9.437847137451172,-0.8312246203422546,-2.2950408458709717
1403637132738319000,0.004468381404876709,0.020172039046883583,0.1207863837480545,9.544351577758789,-0.7989091277122498,-2.312039852142334
1403637132743319000,0.003004111349582672,0.023673376068472862,0.12215089797973633,9.462745666503906,-0.7169589400291443,-2.287539482116699
1403637132748319000,0.0023084506392478943,0.020187722519040108,0.11303349584341049,9.593677520751953,-0.5377324819564819,-2.304516077041626
1403637132753319000,0.00856105238199234,0.02437152899801731,0.10404316335916519,9.536261558532715,-0.49741077423095703,-2.3287081718444824
1403637132758319000,0.0008760020136833191,0.02294047735631466,0.09015633165836334,9.642562866210938,-0.36666837334632874,-2.3699493408203125
1403637132763319000,-0.0011925697326660156,0.02434445731341839,0.07623538374900818,9.536023139953613,-0.30957329273223877,-2.4101719856262207
1403637132768319000,-0.0046532899141311646,0.027813883498311043,0.06020274758338928,9.63377571105957,-0.32645565271377563,-2.4919111728668213
1403637132773319000,-0.009614400565624237,0.03413715213537216,0.04628012701869011,9.486405372619629,-0.4318806529045105,-2.4994049072265625
1403637132778319000,-0.013698883354663849,0.03413800150156021,0.04217952862381935,9.42125415802002,-0.47235652804374695,-2.4992077350616455
1403637132783319000,-0.01089564710855484,0.03272488713264465,0.04298307001590729,9.257658004760742,-0.5862196087837219,-2.482192039489746
1403637132788319000,-0.011648543179035187,0.02643756754696369,0.0430060550570488,9.339264869689941,-0.6263020038604736,-2.5635786056518555
1403637132793319000,-0.009526260197162628,0.02431301958858967,0.04165390133857727,9.3225679397583,-0.7731741070747375,-2.563291311264038
1403637132798319000,-0.009448915719985962,0.02085397206246853,0.04089908301830292,9.420501708984375,-0.8630248308181763,-2.587977886199951
1403637132803319000,-0.008786961436271667,0.019540676847100258,0.04578477144241333,9.346596717834473,-1.0098201036453247,-2.5142581462860107
1403637132808319000,0.0037938058376312256,0.01183597557246685,0.0611586719751358,9.509932518005371,-1.026806354522705,-2.4658727645874023
1403637132813319000,0.016339801251888275,0.012507790699601173,0.08198622614145279,9.371415138244629,-0.9125475287437439,-2.4329469203948975
1403637132818319000,0.015577159821987152,0.012439200654625893,0.09718175232410431,9.437882423400879,-0.659122109413147,-2.482466697692871
1403637132823319000,0.004433102905750275,0.02153187058866024,0.1089434027671814,9.454629898071289,-0.4961405396461487,-2.4747021198272705
1403637132828319000,-0.005369074642658234,0.02995479293167591,0.10957525670528412,9.576998710632324,-0.4968838393688202,-2.581188201904297
1403637132833319000,-0.008916586637496948,0.03553095459938049,0.10958768427371979,9.430021286010742,-0.5136088132858276,-2.515613079071045
1403637132838319000,-0.008109025657176971,0.03413751721382141,0.10270543396472931,9.413829803466797,-0.5797942876815796,-2.376779079437256
1403637132843319000,-0.0024706795811653137,0.03409890830516815,0.10133539140224457,9.348197937011719,-0.6042752861976624,-2.39264178276062
1403637132848319000,0.00022763758897781372,0.02286769635975361,0.09649500250816345,9.421677589416504,-0.5633317828178406,-2.4418742656707764
1403637132853319000,-0.004696108400821686,0.026352426037192345,0.08671494573354721,9.462664604187012,-0.4976670742034912,-2.40995454788208
1403637132858319000,-0.006731607019901276,0.02147979475557804,0.08315590023994446,9.544360160827637,-0.47234922647476196,-2.451122760772705
1403637132863319000,-0.018514826893806458,0.028495339676737785,0.08803664147853851,9.495235443115234,-0.5369285345077515,-2.4016287326812744
1403637132868319000,-0.019911404699087143,0.029212502762675285,0.09572124481201172,9.601588249206543,-0.5939269661903381,-2.4179279804229736
1403637132873319000,-0.0199032761156559,0.03691890835762024,0.10206964612007141,9.56870174407959,-0.7081078290939331,-2.41778564453125
1403637132878319000,-0.013739064335823059,0.03971658647060394,0.10414709150791168,9.56033992767334,-0.7403020262718201,-2.4258384704589844
1403637132883319000,-0.009537167847156525,0.04533493518829346,0.10410352796316147,9.445980072021484,-0.7485259771347046,-2.474544048309326
1403637132888319000,-0.004669792950153351,0.044654883444309235,0.09574493020772934,9.446176528930664,-0.6347020268440247,-2.458590269088745
1403637132893319000,-0.006764635443687439,0.042511411011219025,0.08736515790224075,9.42173957824707,-0.5207279324531555,-2.4504475593566895
1403637132898319000,-0.006096638739109039,0.0361727774143219,0.07836202532052994,9.348173141479492,-0.488925039768219,-2.4256675243377686
1403637132903319000,-0.010207101702690125,0.029166268184781075,0.06311985850334167,9.388800621032715,-0.4815692901611328,-2.4256513118743896
1403637132908319000,-0.01716410368680954,0.02704477123916149,0.050566934049129486,9.404989242553711,-0.4407889246940613,-2.3930723667144775
1403637132913319000,-0.01992059126496315,0.014509888365864754,0.03451604023575783,9.355746269226074,-0.4981333315372467,-2.393069267272949
1403637132918319000,-0.02132916823029518,0.00819362886250019,0.03171297162771225,9.543336868286133,-0.6208621263504028,-2.4017529487609863
1403637132923319000,-0.02133045345544815,0.01666969247162342,0.02969694510102272,9.52629566192627,-0.7350402474403381,-2.3687055110931396
1403637132928319000,-0.018457919359207153,0.02090916968882084,0.03672971948981285,9.501435279846191,-0.9227710366249084,-2.352433681488037
1403637132933319000,-0.019112907350063324,0.030119789764285088,0.047252051532268524,9.476987838745117,-1.052680253982544,-2.3684370517730713
1403637132938319000,-0.006616741418838501,0.025972815230488777,0.06465786695480347,9.338540077209473,-1.1337960958480835,-2.3922219276428223
1403637132943319000,-0.0024488791823387146,0.028716346248984337,0.08474717289209366,9.257364273071289,-1.0924593210220337,-2.40832781791687
1403637132948319000,-0.003197215497493744,0.022371450439095497,0.10835323482751846,9.225800514221191,-1.08338463306427,-2.4894449710845947
1403637132953319000,-0.003901369869709015,0.02380792610347271,0.12778271734714508,9.36521053314209,-0.9688471555709839,-2.5388193130493164
1403637132958319000,-0.005372181534767151,0.023830292746424675,0.1444682776927948,9.349223136901855,-0.936670184135437,-2.5875542163848877
1403637132963319000,-0.002569623291492462,0.02234531380236149,0.1639559268951416,9.374463081359863,-0.9209558963775635,-2.5633130073547363
1403637132968319000,-0.0017938241362571716,0.008304549381136894,0.17430758476257324,9.30108642578125,-0.9139135479927063,-2.4083118438720703
1403637132973319000,0.006556510925292969,-0.00019659101963043213,0.17282205820083618,9.349998474121094,-0.8414273262023926,-2.3437037467956543
1403637132978319000,0.01065044105052948,-0.008685383945703506,0.1692919135093689,9.39905071258545,-0.5963894724845886,-2.360832929611206
1403637132983319000,0.009251542389392853,-0.012898670509457588,0.1553545892238617,9.537906646728516,-0.4008394181728363,-2.3295772075653076
1403637132988319000,0.0030569657683372498,-0.021945258602499962,0.13527411222457886,9.554015159606934,-0.26221928000450134,-2.3058347702026367
1403637132993319000,-0.0060272738337516785,-0.01836441271007061,0.11170767992734909,9.659791946411133,-0.25421833992004395,-2.3710122108459473
1403637132998319000,-0.01155545562505722,-0.016299499198794365,0.09912088513374329,9.59441089630127,-0.3274710774421692,-2.28896427154541
1403637133003319000,-0.01712876930832863,-0.0043576061725616455,0.0845617800951004,9.553289413452148,-0.40861690044403076,-2.3048460483551025
1403637133008319000,-0.012963362038135529,-0.004931621253490448,0.08672812581062317,9.32435417175293,-0.5713906288146973,-2.279235363006592
1403637133013319000,-0.0074140578508377075,-0.0013580378144979477,0.08389749377965927,9.3814115524292,-0.6528021693229675,-2.352280616760254
1403637133018319000,-0.004671409726142883,0.007727216929197311,0.08528608083724976,9.405597686767578,-0.6272344589233398,-2.458383321762085
1403637133023319000,-0.006771959364414215,0.023808443918824196,0.08117160946130753,9.568727493286133,-0.5281788110733032,-2.6382718086242676
1403637133028319000,-0.01166834682226181,0.03291530907154083,0.07836051285266876,9.486732482910156,-0.5443060398101807,-2.7193596363067627
1403637133033319000,-0.020001206547021866,0.042640961706638336,0.07423410564661026,9.421441078186035,-0.5445113778114319,-2.743403911590576
1403637133038319000,-0.020666439086198807,0.0390397384762764,0.06942860782146454,9.20907974243164,-0.618022620677948,-2.6934831142425537
1403637133043319000,-0.020645365118980408,0.030565867200493813,0.06446225196123123,9.111063957214355,-0.7242814898490906,-2.6930341720581055
1403637133048319000,-0.015800558030605316,0.015155157074332237,0.06586237251758575,9.143630981445312,-0.8224397897720337,-2.758761405944824
1403637133053319000,-0.0011891573667526245,0.003972221165895462,0.06235712766647339,9.518702507019043,-0.8146522045135498,-2.8904545307159424
1403637133058319000,0.012037880718708038,0.007422588765621185,0.05602448433637619,9.681434631347656,-0.7573680281639099,-2.8991215229034424
1403637133063319000,0.018336087465286255,0.017232486978173256,0.04142335429787636,9.967164993286133,-0.5772736668586731,-2.9980990886688232
1403637133068319000,0.0211682990193367,0.04101815074682236,0.03171026334166527,10.129908561706543,-0.5032227039337158,-3.104456663131714
1403637133073319000,0.012067161500453949,0.06824557483196259,0.022715121507644653,10.137582778930664,-0.39602047204971313,-3.186389684677124
1403637133078319000,-0.0005302280187606812,0.10039298981428146,0.030457189306616783,9.868001937866211,-0.5584104061126709,-3.1206064224243164
1403637133083319000,0.00089254230260849,0.11380238831043243,0.04226596653461456,9.672298431396484,-0.8109849691390991,-3.078817129135132
1403637133088319000,0.014760755002498627,0.11598536372184753,0.06872999668121338,9.296769142150879,-1.136451244354248,-2.9138267040252686
1403637133093319000,0.03981051594018936,0.10479742288589478,0.09657497704029083,9.24803638458252,-1.2996442317962646,-2.7746424674987793
1403637133098319000,0.06913415342569351,0.08850757777690887,0.11528132855892181,9.077515602111816,-1.1937274932861328,-2.700087547302246
1403637133103319000,0.08652711659669876,0.07158485800027847,0.13332785665988922,9.241876602172852,-0.8768157362937927,-2.675698757171631
1403637133108319000,0.09275930374860764,0.06522294133901596,0.14443975687026978,9.324212074279785,-0.68174809217453,-2.6107025146484375
1403637133113319000,0.08933980017900467,0.06171663850545883,0.1443675309419632,9.50407600402832,-0.6421592831611633,-2.5218544006347656
1403637133118319000,0.08861830085515976,0.05889330059289932,0.15274730324745178,9.471549034118652,-0.503982424736023,-2.415949821472168
1403637133123319000,0.08231384307146072,0.06525203585624695,0.158928781747818,9.643141746520996,-0.42357173562049866,-2.368013381958008
1403637133128319000,0.06352757662534714,0.06597927212715149,0.15601953864097595,9.454764366149902,-0.36699390411376953,-2.3598697185516357
1403637133133319000,0.05022946745157242,0.062465108931064606,0.14563976228237152,9.64309024810791,-0.27805617451667786,-2.3453116416931152
1403637133138319000,0.03276694566011429,0.055547505617141724,0.12406475841999054,9.511958122253418,-0.42594659328460693,-2.271965980529785
1403637133143319000,0.016827642917633057,0.032444462180137634,0.09632397443056107,9.60181999206543,-0.4180821478366852,-2.2891082763671875
1403637133148319000,0.0030350908637046814,0.025430569425225258,0.0784701555967331,9.740592002868652,-0.3935363292694092,-2.281386137008667
1403637133153319000,-0.006703667342662811,0.0185075756162405,0.05962156131863594,9.854948043823242,-0.4266793131828308,-2.208547830581665
1403637133158319000,-0.018493805080652237,0.011603036895394325,0.046382494270801544,9.82207202911377,-0.3770352005958557,-2.070991039276123
1403637133163319000,-0.02827732264995575,0.020139219239354134,0.03669322282075882,10.026188850402832,-0.31087785959243774,-2.160644769668579
1403637133168319000,-0.03938586264848709,0.03005053661763668,0.022660620510578156,9.845696449279785,-0.42442786693573,-2.135721206665039
1403637133173319000,-0.045768216252326965,0.03495466709136963,0.009516097605228424,9.829419136047363,-0.3251446485519409,-2.128112316131592
1403637133178319000,-0.052008770406246185,0.048289187252521515,-0.0014830753207206726,9.486579895019531,-0.3245833218097687,-2.0371782779693604
1403637133183319000,-0.06114131957292557,0.04065743088722229,-0.024583637714385986,9.453972816467285,-0.34960058331489563,-2.1092898845672607
1403637133188319000,-0.08334668725728989,0.03358856588602066,-0.03073105961084366,9.151948928833008,-0.4146765470504761,-1.954370141029358
1403637133193319000,-0.09031534940004349,0.020324984565377235,-0.04326736927032471,9.144002914428711,-0.4809072017669678,-2.002547025680542
1403637133198319000,-0.10141904652118683,0.016925277188420296,-0.051797471940517426,9.135000228881836,-0.6207385063171387,-2.058715581893921
1403637133203319000,-0.10703478753566742,0.012748638167977333,-0.05868079513311386,9.322466850280762,-0.6205966472625732,-2.164318323135376
1403637133208319000,-0.1152709573507309,0.022651011124253273,-0.06217809021472931,9.305500030517578,-0.7270584106445312,-2.2616519927978516
1403637133213319000,-0.11397621035575867,0.022016851231455803,-0.061488837003707886,9.501070022583008,-0.9479529857635498,-2.464897394180298
1403637133218319000,-0.11123830825090408,0.03173937648534775,-0.055042847990989685,9.606817245483398,-1.0523030757904053,-2.644388198852539
1403637133223319000,-0.10005219280719757,0.03097124584019184,-0.03912670165300369,9.55006217956543,-1.0431469678878784,-2.7341761589050293
1403637133228319000,-0.08886405825614929,0.020299741998314857,-0.03223400563001633,9.57568645477295,-0.9272289872169495,-2.8490262031555176
1403637133233319000,-0.08269806951284409,0.009670190513134003,-0.026631087064743042,9.715091705322266,-0.6888198852539062,-2.898932695388794
1403637133238319000,-0.08549080789089203,-0.006510604172945023,-0.030886434018611908,9.739797592163086,-0.5500079393386841,-2.916083335876465
1403637133243319000,-0.0904117077589035,-0.017118390649557114,-0.044079408049583435,9.97691535949707,-0.49390384554862976,-2.916921377182007
1403637133248319000,-0.0945916622877121,-0.01565062813460827,-0.05509912222623825,10.00924015045166,-0.5517736077308655,-2.8512661457061768
1403637133253319000,-0.09035228192806244,-0.015583677217364311,-0.055150166153907776,10.057831764221191,-0.5858206748962402,-2.7860138416290283
1403637133258319000,-0.08680377900600433,-0.0036101993173360825,-0.04750949144363403,10.016656875610352,-0.6520017385482788,-2.720334529876709
1403637133263319000,-0.07494508475065231,0.0006637629121541977,-0.03144614398479462,9.902389526367188,-0.6928588151931763,-2.6383910179138184
1403637133268319000,-0.06444600969552994,0.005621958523988724,-0.015500113368034363,9.747060775756836,-0.6933294534683228,-2.5729622840881348
1403637133273319000,-0.05601762235164642,-0.0028169602155685425,0.004716850817203522,9.592257499694824,-0.7508017420768738,-2.474583625793457
1403637133278319000,-0.043433502316474915,-0.004921529442071915,0.019482649862766266,9.666037559509277,-0.7748199105262756,-2.515218734741211
1403637133283319000,-0.03094668686389923,-0.004254570230841637,0.03550800681114197,9.625411033630371,-0.6357924342155457,-2.4747939109802246
1403637133288319000,-0.02892269939184189,-0.009857535362243652,0.04384254664182663,9.723747253417969,-0.5292506814002991,-2.573195695877075
1403637133293319000,-0.02963869273662567,-0.018236612901091576,0.05077322944998741,9.846259117126465,-0.5371745228767395,-2.5899617671966553
1403637133298319000,-0.03179056942462921,-0.02036852203309536,0.04438067227602005,10.066543579101562,-0.5054516792297363,-2.5907275676727295
1403637133303319000,-0.04298222064971924,-0.020387211814522743,0.041523657739162445,10.148005485534668,-0.5550570487976074,-2.6076292991638184
1403637133308319000,-0.05132054537534714,-0.024550024420022964,0.03944988176226616,10.2052583694458,-0.5309080481529236,-2.6160755157470703
1403637133313319000,-0.058321915566921234,-0.02733484096825123,0.03803902864456177,10.352170944213867,-0.48246335983276367,-2.6984076499938965
1403637133318319000,-0.06329624354839325,-0.021081434562802315,0.03178698569536209,10.433507919311523,-0.34398502111434937,-2.7805697917938232
1403637133323319000,-0.07644400745630264,-0.027517542243003845,0.031770773231983185,10.37702751159668,-0.33542826771736145,-2.821521520614624
1403637133328319000,-0.09314722567796707,-0.02540956810116768,0.018453869968652725,10.287637710571289,-0.310712993144989,-2.7965822219848633
1403637133333319000,-0.10642623156309128,-0.033068638294935226,0.017780851572752,10.092074394226074,-0.34277430176734924,-2.698047399520874
1403637133338319000,-0.1176103949546814,-0.03938858211040497,0.02059255540370941,10.108643531799316,-0.3171006143093109,-2.6818082332611084
1403637133343319000,-0.1238241195678711,-0.04774611070752144,0.02753463387489319,10.08428955078125,-0.40654778480529785,-2.665346622467041
1403637133348319000,-0.13568483293056488,-0.044171616435050964,0.03734870254993439,10.076165199279785,-0.3488336205482483,-2.6495254039764404
1403637133353319000,-0.1461392045021057,-0.046235498040914536,0.05259883403778076,9.91291618347168,-0.3805563449859619,-2.5430831909179688
1403637133358319000,-0.15241515636444092,-0.04697921872138977,0.06848254054784775,9.970605850219727,-0.45451435446739197,-2.5264813899993896
1403637133363319000,-0.1552053689956665,-0.050490982830524445,0.08942608535289764,9.856422424316406,-0.454353928565979,-2.501546859741211
1403637133368319000,-0.1599995195865631,-0.040735676884651184,0.10956239700317383,9.791449546813965,-0.47110024094581604,-2.5095160007476807
1403637133373319000,-0.16270676255226135,-0.04353052377700806,0.11929677426815033,9.408052444458008,-0.5694254040718079,-2.418471336364746
1403637133378319000,-0.16416813433170319,-0.051156722009181976,0.10200810432434082,9.35929012298584,-0.5696573853492737,-2.556910991668701
1403637133383319000,-0.16351106762886047,-0.0595022514462471,0.09575079381465912,9.302159309387207,-0.5942296385765076,-2.589378595352173
1403637133388319000,-0.15788543224334717,-0.06793169677257538,0.08949081599712372,9.359320640563965,-0.5860452055931091,-2.671170949935913
1403637133393319000,-0.15292006731033325,-0.07426580786705017,0.08397343009710312,9.130449295043945,-0.6513908505439758,-2.4824588298797607
1403637133398319000,-0.1515095829963684,-0.09167961031198502,0.08044701814651489,8.901810646057129,-0.6187903881072998,-2.2530832290649414
1403637133403319000,-0.14316724240779877,-0.10918565094470978,0.088744156062603,8.73040771484375,-0.7167877554893494,-2.2360730171203613
1403637133408319000,-0.1299164891242981,-0.10990309715270996,0.08946928381919861,9.040420532226562,-0.7910071611404419,-2.2940096855163574
1403637133413319000,-0.1173502653837204,-0.10773967951536179,0.09862155467271805,9.056218147277832,-0.7909636497497559,-2.3269729614257812
1403637133418319000,-0.11029165983200073,-0.10061965137720108,0.09922495484352112,9.146079063415527,-0.7334610819816589,-2.33563232421875
1403637133423319000,-0.09708867222070694,-0.09568610787391663,0.10553590208292007,8.942235946655273,-0.8811864852905273,-2.333786725997925
1403637133428319000,-0.07140124589204788,-0.09008686989545822,0.11550606787204742,8.910100936889648,-1.0286980867385864,-2.4388530254364014
1403637133433319000,-0.04491642862558365,-0.08938301354646683,0.13146162033081055,8.632646560668945,-1.1754651069641113,-2.4703052043914795
1403637133438319000,-0.01279505342245102,-0.10400387644767761,0.1390042006969452,8.657475471496582,-1.1179863214492798,-2.6171703338623047
1403637133443319000,0.002499498426914215,-0.11316085606813431,0.14587560296058655,8.5922269821167,-0.8072660565376282,-2.6671574115753174
1403637133448319000,0.0135359987616539,-0.124457947909832,0.14919061958789825,8.77231216430664,-0.6687231063842773,-2.7174360752105713
1403637133453319000,0.0205254927277565,-0.1419847458600998,0.14583241939544678,8.72319221496582,-0.759246826171875,-2.6761488914489746
1403637133458319000,0.029608480632305145,-0.15036416053771973,0.12788355350494385,8.918079376220703,-0.6936936974525452,-2.7091994285583496
1403637133463319000,0.03735093027353287,-0.1532062292098999,0.12222280353307724,8.876327514648438,-0.5711689591407776,-2.6520895957946777
1403637133468319000,0.04428579658269882,-0.15814067423343658,0.11449947953224182,9.104840278625488,-0.43219229578971863,-2.620847463607788
1403637133473319000,0.03370886296033859,-0.16020986437797546,0.1025785505771637,8.884462356567383,-0.13776053488254547,-2.336576223373413
1403637133478319000,0.013454176485538483,-0.1824321150779724,0.10723792761564255,8.811620712280273,0.40289735794067383,-2.038454055786133
1403637133483319000,-0.022478550672531128,-0.19568504393100739,0.11406679451465607,8.874640464782715,0.7237295508384705,-1.7554832696914673
1403637133488319000,-0.059915028512477875,-0.21310530602931976,0.11346682161092758,9.156264305114746,0.7727742195129395,-1.626255750656128
1403637133493319000,-0.0892619639635086,-0.21238431334495544,0.11437296867370605,9.537792205810547,0.558683454990387,-1.6842724084854126
1403637133498319000,-0.1055053174495697,-0.19560201466083527,0.11370272934436798,9.825945854187012,0.14078731834888458,-1.8137239217758179
1403637133503319000,-0.10493075102567673,-0.169032484292984,0.11795137077569962,9.699670791625977,-0.22777748107910156,-2.006171226501465
1403637133508319000,-0.09242673218250275,-0.13744215667247772,0.12015990167856216,9.472872734069824,-0.3340626657009125,-2.1584508419036865
1403637133513319000,-0.0826978012919426,-0.12758931517601013,0.134620800614357,8.878020286560059,-0.39032864570617676,-2.1877646446228027
1403637133518319000,-0.08137328177690506,-0.14442753791809082,0.1485874354839325,8.609807968139648,-0.40565600991249084,-2.4234206676483154
1403637133523319000,-0.07930992543697357,-0.1635080724954605,0.16677244007587433,8.455765724182129,-0.42156070470809937,-2.5869221687316895
1403637133528319000,-0.07584545761346817,-0.18396177887916565,0.17711973190307617,8.538105964660645,-0.44528067111968994,-2.7432310581207275
1403637133533319000,-0.07997824996709824,-0.19801446795463562,0.1764809787273407,8.63601016998291,-0.5670135617256165,-2.800633668899536
1403637133538319000,-0.07435611635446548,-0.20155629515647888,0.17657139897346497,8.9700288772583,-0.6245112419128418,-2.874185085296631
1403637133543319000,-0.0695146843791008,-0.1938420832157135,0.1779332309961319,9.132083892822266,-0.6166519522666931,-2.825162649154663
1403637133548319000,-0.0702279582619667,-0.18693161010742188,0.1772182285785675,9.376154899597168,-0.5098288655281067,-2.8510243892669678
1403637133553319000,-0.07145551592111588,-0.16587480902671814,0.1764823943376541,9.59560489654541,-0.31351014971733093,-2.9017767906188965
1403637133558319000,-0.07348978519439697,-0.1559576839208603,0.17288845777511597,9.741951942443848,-0.2735363245010376,-2.9762446880340576
1403637133563319000,-0.08045418560504913,-0.14619286358356476,0.16588056087493896,9.790953636169434,-0.25756895542144775,-2.9769866466522217
1403637133568319000,-0.0866800993680954,-0.15110835433006287,0.15135428309440613,9.872876167297363,-0.20872579514980316,-3.0015668869018555
1403637133573319000,-0.0978502407670021,-0.14983521401882172,0.13324472308158875,9.897439002990723,-0.10112793743610382,-3.067039966583252
1403637133578319000,-0.10284282267093658,-0.15346044301986694,0.11446292698383331,9.979474067687988,-0.09968101978302002,-3.0588219165802
1403637133583319000,-0.1146957203745842,-0.14862635731697083,0.09712772071361542,10.0698823928833,-0.19760414958000183,-3.164726972579956
1403637133588319000,-0.1188984215259552,-0.1380710005760193,0.09155087172985077,10.077998161315918,-0.2789536714553833,-3.1889848709106445
1403637133593319000,-0.12101495265960693,-0.1239481195807457,0.08945740759372711,9.979689598083496,-0.4250739812850952,-3.1798763275146484
1403637133598319000,-0.11752480268478394,-0.1168823316693306,0.10131420195102692,9.824435234069824,-0.5313535928726196,-3.1706695556640625
1403637133603319000,-0.1167593002319336,-0.10286689549684525,0.10408128052949905,9.816085815429688,-0.5898985862731934,-3.186224937438965
1403637133608319000,-0.1125878319144249,-0.10158152133226395,0.11247329413890839,9.587172508239746,-0.5247594714164734,-3.2024056911468506
1403637133613319000,-0.10768117755651474,-0.09398368746042252,0.11393944174051285,9.54668140411377,-0.5990928411483765,-3.25130558013916
1403637133618319000,-0.10558269917964935,-0.09685270488262177,0.11530472338199615,9.48981761932373,-0.6248798966407776,-3.2512457370758057
1403637133623319000,-0.09855193644762039,-0.08915300667285919,0.11318504065275192,9.530272483825684,-0.5354202389717102,-3.2600483894348145
1403637133628319000,-0.09577736258506775,-0.09264838695526123,0.11875009536743164,9.63626766204834,-0.5361235737800598,-3.2850687503814697
1403637133633319000,-0.0992983728647232,-0.08908911049365997,0.1130935326218605,9.86462116241455,-0.46303337812423706,-3.2937800884246826
1403637133638319000,-0.09653056412935257,-0.08902309089899063,0.10543881356716156,10.084420204162598,-0.4383111596107483,-3.318997383117676
1403637133643319000,-0.10287985950708389,-0.07505645602941513,0.08731906116008759,10.3779878616333,-0.3969901502132416,-3.417924404144287
1403637133648319000,-0.1049904152750969,-0.06808929890394211,0.07405917346477509,10.524867057800293,-0.41325703263282776,-3.426311731338501
1403637133653319000,-0.10984248667955399,-0.06257534772157669,0.04835253208875656,10.753288269042969,-0.37246453762054443,-3.5574533939361572
1403637133658319000,-0.11616839468479156,-0.048657216131687164,0.0344267264008522,10.720518112182617,-0.4213390052318573,-3.5652756690979004
1403637133663319000,-0.11967290937900543,-0.04098609834909439,0.012780014425516129,10.720706939697266,-0.5437500476837158,-3.597007989883423
1403637133668319000,-0.12244294583797455,-0.034693848341703415,-0.0018287599086761475,10.581930160522461,-0.5758422613143921,-3.5228805541992188
1403637133673319000,-0.1224554181098938,-0.026880726218223572,-0.012943148612976074,10.52462387084961,-0.5835064053535461,-3.5306832790374756
1403637133678319000,-0.12108200043439865,-0.029680617153644562,-0.011534862220287323,10.385680198669434,-0.5994051694869995,-3.5141820907592773
1403637133683319000,-0.11897394806146622,-0.023365337401628494,-0.010084755718708038,10.434645652770996,-0.6482499837875366,-3.571287155151367
1403637133688319000,-0.11547981947660446,-0.017024528235197067,0.006721038371324539,10.360957145690918,-0.7304109930992126,-3.530137538909912
1403637133693319000,-0.11128977686166763,-0.0099813062697649,0.018507346510887146,10.376974105834961,-0.7308098077774048,-3.5463385581970215
1403637133698319000,-0.10425685346126556,-0.006554333493113518,0.03382769972085953,10.262478828430176,-0.8214573264122009,-3.5131945610046387
1403637133703319000,-0.09170098602771759,0.0011316202580928802,0.05268890783190727,10.384618759155273,-0.7812191247940063,-3.5218119621276855
1403637133708319000,-0.08469226211309433,0.006671231240034103,0.07494095712900162,10.25378704071045,-0.7239258289337158,-3.5304930210113525
1403637133713319000,-0.08538421243429184,0.0052238572388887405,0.07631970196962357,10.466404914855957,-0.577645480632782,-3.5235469341278076
1403637133718319000,-0.09027250111103058,0.003834133967757225,0.0833546444773674,10.482933044433594,-0.6108404994010925,-3.482788324356079
1403637133723319000,-0.09240370988845825,0.0016819816082715988,0.0797741636633873,10.6217679977417,-0.6519796252250671,-3.5811209678649902
1403637133728319000,-0.09309832751750946,0.0030867066234350204,0.07626491039991379,10.637956619262695,-0.7419255971908569,-3.629897356033325
1403637133733319000,-0.09096288681030273,0.01361401192843914,0.070738784968853,10.768614768981934,-0.7092695236206055,-3.6628355979919434
1403637133738319000,-0.09095418453216553,0.018508287146687508,0.07061603665351868,10.703042984008789,-0.7165389657020569,-3.6382124423980713
1403637133743319000,-0.09520191699266434,0.02899440936744213,0.060860805213451385,10.71932601928711,-0.6756464838981628,-3.6137263774871826
1403637133748319000,-0.0993817076086998,0.028291864320635796,0.06519642472267151,10.548004150390625,-0.7985513210296631,-3.4905381202697754
1403637133753319000,-0.10426318645477295,0.031786054372787476,0.0665045753121376,10.613269805908203,-0.8311505913734436,-3.449814796447754
1403637133758319000,-0.10912881791591644,0.032495737075805664,0.07207616418600082,10.466384887695312,-0.8964641094207764,-3.326719284057617
1403637133763319000,-0.11192534118890762,0.03036370314657688,0.07005558162927628,10.556525230407715,-0.8153617978096008,-3.1800131797790527
1403637133768319000,-0.12099064141511917,0.037365563213825226,0.083216592669487,10.369047164916992,-0.741625189781189,-3.0001347064971924
1403637133773319000,-0.1273171305656433,0.028958870097994804,0.09161300212144852,10.42701530456543,-0.6196746826171875,-2.902446746826172
1403637133778319000,-0.13846176862716675,0.023346038535237312,0.09861425310373306,10.45176887512207,-0.5465706586837769,-2.886453151702881
1403637133783319000,-0.15178236365318298,0.01907261274755001,0.09775956720113754,10.78700065612793,-0.4001508355140686,-2.8877463340759277
1403637133788319000,-0.16993099451065063,0.013459252193570137,0.0921376422047615,10.868571281433105,-0.40061676502227783,-2.8962769508361816
1403637133793319000,-0.190256267786026,0.003649802878499031,0.0782889574766159,11.065084457397461,-0.3525679111480713,-2.9378020763397217
1403637133798319000,-0.20492619276046753,-0.006138848140835762,0.06645884364843369,11.065367698669434,-0.4265003502368927,-2.8969273567199707
1403637133803319000,-0.21405917406082153,-0.022996963933110237,0.06785822659730911,11.270122528076172,-0.5085811018943787,-2.962498426437378
1403637133808319000,-0.2168038785457611,-0.030094103887677193,0.07481943070888519,11.294828414916992,-0.6636760234832764,-3.027738094329834
1403637133813319000,-0.21683189272880554,-0.038456544280052185,0.09291809052228928,11.483174324035645,-0.7287362217903137,-3.2324061393737793
1403637133818319000,-0.2161024808883667,-0.0355461984872818,0.11239439994096756,11.401739120483398,-0.7774473428726196,-3.2817142009735107
1403637133823319000,-0.21048259735107422,-0.03895307332277298,0.12492628395557404,11.353006362915039,-0.7845524549484253,-3.3960142135620117
1403637133828319000,-0.21320459246635437,-0.04165687412023544,0.13334082067012787,11.165146827697754,-0.7508342862129211,-3.4121696949005127
1403637133833319000,-0.2103898525238037,-0.05004376173019409,0.13195142149925232,11.140326499938965,-0.6682995557785034,-3.4691717624664307
1403637133838319000,-0.213180273771286,-0.06125178933143616,0.1284652054309845,10.94406509399414,-0.6681167483329773,-3.4116969108581543
1403637133843319000,-0.2202589511871338,-0.07739175111055374,0.11525806784629822,10.976884841918945,-0.6269523501396179,-3.444427251815796
1403637133848319000,-0.22441449761390686,-0.08720425516366959,0.10540002584457397,10.919733047485352,-0.6190972924232483,-3.3709137439727783
1403637133853319000,-0.22933641076087952,-0.09769535064697266,0.10465399920940399,11.066683769226074,-0.6441449522972107,-3.428013801574707
1403637133858319000,-0.23142462968826294,-0.10119171440601349,0.09908121079206467,11.197253227233887,-0.7021175026893616,-3.427769422531128
1403637133863319000,-0.22651171684265137,-0.10257448256015778,0.10327328741550446,11.32827377319336,-0.7929744124412537,-3.3780014514923096
1403637133868319000,-0.22229382395744324,-0.09969783574342728,0.11452092230319977,11.361122131347656,-0.8997040390968323,-3.4511911869049072
1403637133873319000,-0.2076224684715271,-0.09614432603120804,0.13621929287910461,11.43496322631836,-0.9895665049552917,-3.467214584350586
1403637133878319000,-0.1900874674320221,-0.09600657224655151,0.16491606831550598,11.385716438293457,-1.0630981922149658,-3.5652666091918945
1403637133883319000,-0.17400915920734406,-0.09387543797492981,0.18090194463729858,11.491432189941406,-1.08697509765625,-3.6715688705444336
1403637133888319000,-0.15514284372329712,-0.08473151177167892,0.19053298234939575,11.368372917175293,-1.0040327310562134,-3.7289271354675293
1403637133893319000,-0.1384042650461197,-0.08895684778690338,0.1919928342103958,11.303009033203125,-0.880344569683075,-3.762094736099243
1403637133898319000,-0.13912859559059143,-0.08269859105348587,0.1877814382314682,11.2212495803833,-0.7570266127586365,-3.7706921100616455
1403637133903319000,-0.14403018355369568,-0.08905757963657379,0.1793944537639618,11.123115539550781,-0.7325793504714966,-3.770512580871582
1403637133908319000,-0.14753445982933044,-0.09263871610164642,0.16050130128860474,11.016602516174316,-0.700705885887146,-3.6642136573791504
1403637133913319000,-0.14761322736740112,-0.09965715557336807,0.1422148048877716,10.942954063415527,-0.7339411973953247,-3.622877359390259
1403637133918319000,-0.14753231406211853,-0.09541639685630798,0.13387566804885864,10.97553539276123,-0.7350073456764221,-3.5654406547546387
1403637133923319000,-0.14118966460227966,-0.09258562326431274,0.13324852287769318,10.902009010314941,-0.8423586487770081,-3.532059907913208
1403637133928319000,-0.13425672054290771,-0.08279601484537125,0.12765087187290192,10.959030151367188,-0.8016250133514404,-3.5322721004486084
1403637133933319000,-0.1265665590763092,-0.07153504341840744,0.12353360652923584,10.811412811279297,-0.7847663760185242,-3.515594005584717
1403637133938319000,-0.1278807818889618,-0.059681765735149384,0.1214824691414833,10.69680118560791,-0.7188160419464111,-3.581200122833252
1403637133943319000,-0.12933146953582764,-0.054069675505161285,0.11876065284013748,10.656033515930176,-0.7098955512046814,-3.630274534225464
1403637133948319000,-0.13636766374111176,-0.044220730662345886,0.10624422132968903,10.598739624023438,-0.7256870865821838,-3.6954400539398193
1403637133953319000,-0.14689041674137115,-0.044986262917518616,0.09566691517829895,10.476079940795898,-0.6676212549209595,-3.6956849098205566
1403637133958319000,-0.15600097179412842,-0.03872332721948624,0.08169220387935638,10.484195709228516,-0.6017627716064453,-3.7612712383270264
1403637133963319000,-0.1665092408657074,-0.03810358792543411,0.06852024793624878,10.410809516906738,-0.6263130307197571,-3.7364447116851807
1403637133968319000,-0.17488251626491547,-0.031156647950410843,0.05527753382921219,10.427096366882324,-0.6186341047286987,-3.7201409339904785
1403637133973319000,-0.18672022223472595,-0.020725063979625702,0.04828112572431564,10.222955703735352,-0.659687340259552,-3.6952455043792725
1403637133978319000,-0.1929842233657837,-0.008130794391036034,0.03920981287956238,10.124926567077637,-0.6762664914131165,-3.6866555213928223
1403637133983319000,-0.1936066746711731,0.0037859398871660233,0.03716267645359039,9.97783374786377,-0.6270360946655273,-3.563892364501953
1403637133988319000,-0.192141592502594,0.012900086119771004,0.03164250776171684,9.781962394714355,-0.6189811825752258,-3.3751540184020996
1403637133993319000,-0.18929478526115417,0.015675896778702736,0.03381410986185074,9.635028839111328,-0.6351063847541809,-3.235607385635376
1403637133998319000,-0.17887485027313232,0.02269994653761387,0.03455480560660362,9.634869575500488,-0.7165038585662842,-3.1778295040130615
1403637134003319000,-0.16215553879737854,0.026922153308987617,0.04429996758699417,9.520341873168945,-0.8634219169616699,-3.120018243789673
1403637134008319000,-0.13426092267036438,0.03467821329832077,0.051983196288347244,9.65880298614502,-0.9120462536811829,-3.1199843883514404
1403637134013319000,-0.105611152946949,0.04306206852197647,0.07013964653015137,9.6177339553833,-0.8544110059738159,-3.0541574954986572
1403637134018319000,-0.08679409325122833,0.04720790684223175,0.07911830395460129,9.764445304870605,-0.6008998155593872,-3.1696414947509766
1403637134023319000,-0.0819394439458847,0.05410316586494446,0.07836851477622986,9.789017677307129,-0.4291449785232544,-3.2194395065307617
1403637134028319000,-0.0868760347366333,0.05332022160291672,0.05466226115822792,9.919816017150879,-0.21688240766525269,-3.25309157371521
1403637134033319000,-0.09871816635131836,0.048366062343120575,0.030320975929498672,9.748065948486328,-0.26639506220817566,-3.220010995864868
1403637134038319000,-0.11193664371967316,0.04621852934360504,0.0011508725583553314,9.756355285644531,-0.2910480201244354,-3.2771341800689697
1403637134043319000,-0.12726564705371857,0.042723044753074646,-0.02594900131225586,9.642067909240723,-0.38089919090270996,-3.30133318901062
1403637134048319000,-0.14198341965675354,0.04621986299753189,-0.03851482272148132,9.6668119430542,-0.3725470006465912,-3.285165309906006
1403637134053319000,-0.15592128038406372,0.04970671236515045,-0.04203835129737854,9.44662857055664,-0.3310052454471588,-3.227566957473755
1403637134058319000,-0.1726537048816681,0.05466631054878235,-0.05396537482738495,9.46312141418457,-0.3060707449913025,-3.194639205932617
1403637134063319000,-0.19353686273097992,0.05467556416988373,-0.0622500404715538,9.23453426361084,-0.3216472268104553,-3.1781890392303467
1403637134068319000,-0.20613014698028564,0.054730892181396484,-0.07408040761947632,9.242523193359375,-0.37023818492889404,-3.1864330768585205
1403637134073319000,-0.21732208132743835,0.058312222361564636,-0.08583709597587585,9.078912734985352,-0.5169722437858582,-3.1448521614074707
1403637134078319000,-0.22155752778053284,0.05275391787290573,-0.08988173305988312,9.10319995880127,-0.5991069674491882,-3.103590965270996
1403637134083319000,-0.2194109559059143,0.05629304051399231,-0.08155377209186554,8.964396476745605,-0.6722972393035889,-3.070408344268799
1403637134088319000,-0.2138747274875641,0.056987397372722626,-0.06283972412347794,9.103931427001953,-0.6804012656211853,-3.1196236610412598
1403637134093319000,-0.20898300409317017,0.060453303158283234,-0.03982686996459961,9.096208572387695,-0.680522084236145,-3.152453899383545
1403637134098319000,-0.20478898286819458,0.06602954864501953,-0.03096717596054077,9.300376892089844,-0.500810444355011,-3.1779069900512695
1403637134103319000,-0.2061523199081421,0.06880730390548706,-0.030254259705543518,9.275911331176758,-0.35390543937683105,-3.104527235031128
1403637134108319000,-0.208966463804245,0.0701935887336731,-0.05034647136926651,9.381757736206055,-0.23173289000988007,-3.0557377338409424
1403637134113319000,-0.21661579608917236,0.07084466516971588,-0.07406473159790039,9.291618347167969,-0.08436065167188644,-2.916869640350342
1403637134118319000,-0.22574585676193237,0.07010401785373688,-0.09424588084220886,9.389507293701172,0.06273997575044632,-2.893022060394287
1403637134123319000,-0.2424735128879547,0.07564122974872589,-0.11027799546718597,9.209569931030273,0.07150886952877045,-2.8360366821289062
1403637134128319000,-0.2535971403121948,0.07916436344385147,-0.11317318677902222,9.111862182617188,0.014602627605199814,-2.7378740310668945
1403637134133319000,-0.25075945258140564,0.09255808591842651,-0.10752682387828827,8.940479278564453,-0.10755664110183716,-2.6470465660095215
1403637134138319000,-0.2500249445438385,0.09682139754295349,-0.10126116871833801,8.859068870544434,-0.13977451622486115,-2.5973918437957764
1403637134143319000,-0.24648645520210266,0.10319167375564575,-0.10326552391052246,8.842506408691406,-0.22928883135318756,-2.580535650253296
1403637134148319000,-0.24514809250831604,0.10669092833995819,-0.11017057299613953,8.940147399902344,-0.30266156792640686,-2.670224666595459
1403637134153319000,-0.23899981379508972,0.11576810479164124,-0.11362284421920776,9.029631614685059,-0.3598102033138275,-2.7682042121887207
1403637134158319000,-0.2375621199607849,0.1157597154378891,-0.10168871283531189,9.217830657958984,-0.3514901399612427,-2.850353240966797
1403637134163319000,-0.2319341003894806,0.11922681331634521,-0.09477593004703522,9.33204174041748,-0.4338453710079193,-2.8585433959960938
1403637134168319000,-0.23404330015182495,0.12054941058158875,-0.08173589408397675,9.593329429626465,-0.39343884587287903,-2.859266519546509
1403637134173319000,-0.23483401536941528,0.13306888937950134,-0.07479152083396912,9.707387924194336,-0.4019645154476166,-2.867877721786499
1403637134178319000,-0.23480841517448425,0.14004985988140106,-0.06576750427484512,9.846456527709961,-0.378044992685318,-2.9097015857696533
1403637134183319000,-0.24112403392791748,0.1631901115179062,-0.06918936967849731,9.838205337524414,-0.39421963691711426,-2.9100639820098877
1403637134188319000,-0.24315187335014343,0.18981243669986725,-0.06423701345920563,9.683324813842773,-0.402549684047699,-2.909804344177246
1403637134193319000,-0.24521797895431519,0.21988432109355927,-0.067723348736763,9.463117599487305,-0.32028934359550476,-2.9584202766418457
1403637134198319000,-0.2528970539569855,0.23875553905963898,-0.07115225493907928,9.104385375976562,-0.19687655568122864,-2.957665205001831
1403637134203319000,-0.2611890435218811,0.2568758428096771,-0.080110102891922,8.680035591125488,-0.15563422441482544,-3.0147757530212402
1403637134208319000,-0.2708723545074463,0.265859991312027,-0.08288735151290894,8.39438533782959,-0.10581791400909424,-2.949636697769165
1403637134213319000,-0.2722831070423126,0.27420175075531006,-0.0813717395067215,8.231094360351562,-0.11291511356830597,-2.916949987411499
1403637134218319000,-0.26248446106910706,0.2686414420604706,-0.07083983719348907,8.10002326965332,-0.2512414753437042,-2.8758561611175537
1403637134223319000,-0.2450462281703949,0.2784203290939331,-0.059033289551734924,8.091392517089844,-0.3241679072380066,-2.8261024951934814
1403637134228319000,-0.2227339744567871,0.2846357226371765,-0.038858652114868164,8.115478515625,-0.2827644646167755,-2.7845704555511475
1403637134233319000,-0.19836914539337158,0.2964935302734375,-0.024318844079971313,8.270057678222656,-0.23356737196445465,-2.775787353515625
1403637134238319000,-0.17605799436569214,0.31400051712989807,-0.010471232235431671,8.228486061096191,-0.1928364485502243,-2.693493366241455
1403637134243319000,-0.14820128679275513,0.32375144958496094,5.496293306350708e-05,8.24445629119873,-0.1528153419494629,-2.6934828758239746
1403637134248319000,-0.1189054623246193,0.33072608709335327,0.015475034713745117,8.121567726135254,-0.24336323142051697,-2.5947389602661133
1403637134253319000,-0.09802866727113724,0.3327789306640625,0.025209248065948486,8.19547176361084,-0.14595861732959747,-2.5291929244995117
1403637134258319000,-0.07922403514385223,0.3284977674484253,0.03699875250458717,8.09783935546875,-0.06521724909543991,-2.5295376777648926
1403637134263319000,-0.05770718306303024,0.3255482017993927,0.04721576347947121,8.196344375610352,0.10489733517169952,-2.4397315979003906
1403637134268319000,-0.05636570602655411,0.3262172043323517,0.05821254104375839,8.155600547790527,0.11302325129508972,-2.3333187103271484
1403637134273319000,-0.05631578713655472,0.33327698707580566,0.05819803476333618,8.220893859863281,0.12932699918746948,-2.3089756965637207
1403637134278319000,-0.050059907138347626,0.34173229336738586,0.064517542719841,8.04090404510498,0.08842937648296356,-2.2185909748077393
1403637134283319000,-0.05014800280332565,0.3550892770290375,0.06529141217470169,8.048737525939941,0.11346820741891861,-2.2679080963134766
1403637134288319000,-0.04590096324682236,0.36696621775627136,0.07576310634613037,7.729618549346924,0.1874576359987259,-2.2192065715789795
1403637134293319000,-0.04723796248435974,0.3697776198387146,0.0757085531949997,7.680917739868164,0.228298157453537,-2.2438793182373047
1403637134298319000,-0.04804271459579468,0.36974769830703735,0.07980401813983917,7.591500282287598,0.2128390669822693,-2.2932639122009277
1403637134303319000,-0.04804878681898117,0.36547553539276123,0.06936796009540558,7.722274303436279,0.2131756693124771,-2.391571521759033
1403637134308319000,-0.04803574085235596,0.36543411016464233,0.06175464391708374,7.787412643432617,0.16472004354000092,-2.3913023471832275
1403637134313319000,-0.04529830813407898,0.36265674233436584,0.04646274447441101,7.9423651695251465,0.1894543319940567,-2.415550708770752
1403637134318319000,-0.04116019606590271,0.36132127046585083,0.04442238807678223,7.901079177856445,0.13213656842708588,-2.3494725227355957
1403637134323319000,-0.03352188318967819,0.36701416969299316,0.04299045354127884,8.064310073852539,0.10746617615222931,-2.2836544513702393
1403637134328319000,-0.021772269159555435,0.37268000841140747,0.05545106530189514,7.9252543449401855,0.0506010428071022,-2.193474531173706
1403637134333319000,-0.01270102709531784,0.3783399164676666,0.06236586719751358,7.998905181884766,0.0666154995560646,-2.1852946281433105
1403637134338319000,-0.007799699902534485,0.3895992636680603,0.07415755838155746,7.754059791564941,0.08251335471868515,-2.0545032024383545
1403637134343319000,-0.00992167741060257,0.39170196652412415,0.07694610953330994,7.591311931610107,0.10723595321178436,-1.964979648590088
1403637134348319000,-0.009276710450649261,0.3965156674385071,0.07487577199935913,7.2484941482543945,0.18126985430717468,-1.8511604070663452
1403637134353319000,-0.01621795818209648,0.39372286200523376,0.0693519115447998,7.093825817108154,0.1896025538444519,-1.7941246032714844
1403637134358319000,-0.02386012300848961,0.39023590087890625,0.07420118153095245,6.849971294403076,0.13347114622592926,-1.6150729656219482
1403637134363319000,-0.030100323259830475,0.37620317935943604,0.07826167345046997,6.7441630363464355,0.23148880898952484,-1.541421890258789
1403637134368319000,-0.039161793887615204,0.36706799268722534,0.09000293910503387,6.5565643310546875,0.28108054399490356,-1.4919397830963135
1403637134373319000,-0.048813000321388245,0.3579995036125183,0.10525345057249069,6.588693141937256,0.2729911506175995,-1.531888484954834
1403637134378319000,-0.05847153067588806,0.3607576787471771,0.11704770475625992,6.555788516998291,0.2162691205739975,-1.5313035249710083
1403637134383319000,-0.06955321133136749,0.3503052592277527,0.12410186231136322,6.596186637878418,0.15068159997463226,-1.5956063270568848
1403637134388319000,-0.07855373620986938,0.3439781069755554,0.1290389895439148,6.5962233543396,0.07755398005247116,-1.6359065771102905
1403637134393319000,-0.08547760546207428,0.3327811360359192,0.13597673177719116,6.661606311798096,0.04495415464043617,-1.6683205366134644
1403637134398319000,-0.09380130469799042,0.3229229748249054,0.14369770884513855,6.596527099609375,0.004178687930107117,-1.741883397102356
1403637134403319000,-0.09657004475593567,0.30553126335144043,0.16029223799705505,6.67911434173584,-0.028994020074605942,-1.684636116027832
1403637134408319000,-0.09932254999876022,0.29375097155570984,0.17410287261009216,6.785674095153809,-0.09431984275579453,-1.700838327407837
1403637134413319000,-0.09312202781438828,0.2769915461540222,0.18172916769981384,6.908158779144287,-0.07912469655275345,-1.7253865003585815
1403637134418319000,-0.0924130380153656,0.2721189856529236,0.1865839660167694,7.039065361022949,-0.07965829223394394,-1.7009494304656982
1403637134423319000,-0.08545094728469849,0.2617288827896118,0.20393437147140503,7.072128772735596,-0.08844711631536484,-1.6596826314926147
1403637134428319000,-0.07156509906053543,0.26528027653694153,0.2206437587738037,6.958403587341309,-0.12961095571517944,-1.5935405492782593
1403637134433319000,-0.060476578772068024,0.25834161043167114,0.2400127798318863,6.771903991699219,-0.17026478052139282,-1.5109659433364868
1403637134438319000,-0.04445982351899147,0.2569747567176819,0.25305861234664917,6.536465644836426,-0.13708600401878357,-1.3878600597381592
1403637134443319000,-0.028508950024843216,0.2387792319059372,0.27240797877311707,6.236030578613281,-0.08698078244924545,-1.2145934104919434
1403637134448319000,-0.018829934298992157,0.2261379510164261,0.2760012745857239,6.146284580230713,0.09314166009426117,-1.180699110031128
1403637134453319000,-0.014629609882831573,0.21348817646503448,0.2843514382839203,5.967257022857666,0.11074873805046082,-1.1138073205947876
1403637134458319000,-0.009738542139530182,0.20091363787651062,0.28510183095932007,5.917486667633057,0.15986384451389313,-1.1375373601913452
1403637134463319000,-0.004200480878353119,0.18624800443649292,0.294798880815506,5.7865986824035645,0.1033717468380928,-1.1187952756881714
1403637134468319000,0.0027775168418884277,0.17513112723827362,0.29617035388946533,5.84304666519165,0.1849513053894043,-1.044081687927246
1403637134473319000,0.0007951557636260986,0.15408377349376678,0.30232489109039307,5.752652168273926,0.16878724098205566,-1.0177048444747925
1403637134478319000,-0.006817437708377838,0.13257233798503876,0.28979578614234924,5.971676349639893,0.3391168415546417,-1.027649164199829
1403637134483319000,-0.02064663916826248,0.11165297031402588,0.2787787616252899,6.027460098266602,0.4533197581768036,-1.0855058431625366
1403637134488319000,-0.038627903908491135,0.09699974209070206,0.2586880922317505,6.206345558166504,0.4436369836330414,-1.1788452863693237
1403637134493319000,-0.051099903881549835,0.08365852385759354,0.24132487177848816,6.247314453125,0.33762359619140625,-1.188165307044983
1403637134498319000,-0.05806294083595276,0.06837375462055206,0.22252939641475677,6.386388778686523,0.23079463839530945,-1.2308756113052368
1403637134503319000,-0.05671805143356323,0.05155500769615173,0.21474385261535645,6.288847923278809,0.09181854873895645,-1.262983798980713
1403637134508319000,-0.059515297412872314,0.03971370309591293,0.20210716128349304,6.3872761726379395,0.08289843797683716,-1.3539270162582397
1403637134513319000,-0.05745866149663925,0.027152152732014656,0.1972348988056183,6.273762226104736,-0.03914444148540497,-1.3131601810455322
1403637134518319000,-0.05054093897342682,0.010544029995799065,0.19728563725948334,6.380218505859375,-0.007154880557209253,-1.3627835512161255
1403637134523319000,-0.03807982802391052,0.0021547917276620865,0.20002034306526184,6.2013115882873535,-0.06336922198534012,-1.2640187740325928
1403637134528319000,-0.026927456259727478,-0.020840173587203026,0.1979803591966629,6.210231781005859,-0.014561153948307037,-1.1988857984542847
1403637134533319000,-0.01098758727312088,-0.02999892644584179,0.19794589281082153,6.063230037689209,0.027059249579906464,-1.1815903186798096
1403637134538319000,-0.004749566316604614,-0.04592197388410568,0.19234129786491394,6.152920722961426,0.15716926753520966,-1.2143902778625488
1403637134543319000,-0.001976005733013153,-0.054330743849277496,0.19036024808883667,6.0306291580200195,0.2802194654941559,-1.172591209411621
1403637134548319000,-0.004625074565410614,-0.0688253864645958,0.17929601669311523,6.079398155212402,0.4921332895755768,-1.1810332536697388
1403637134553319000,-0.016356348991394043,-0.07708952575922012,0.16471564769744873,6.029879570007324,0.647152304649353,-1.1729481220245361
1403637134558319000,-0.03427301347255707,-0.09020642936229706,0.1383720487356186,6.094516277313232,0.7846745848655701,-1.1994627714157104
1403637134563319000,-0.05432245880365372,-0.10351251810789108,0.10849200189113617,6.061840534210205,0.841284990310669,-1.1930522918701172
1403637134568319000,-0.07099626213312149,-0.1154220849275589,0.07850510627031326,6.1756696701049805,0.7432605028152466,-1.2441489696502686
1403637134573319000,-0.08836435526609421,-0.12464329600334167,0.053472429513931274,6.199463367462158,0.5482732653617859,-1.3105417490005493
1403637134578319000,-0.10084239393472672,-0.13863228261470795,0.03185079246759415,6.362527370452881,0.4350789785385132,-1.3602598905563354
1403637134583319000,-0.10573433339595795,-0.15122435986995697,0.008190933614969254,6.305506706237793,0.26407358050346375,-1.359622836112976
1403637134588319000,-0.10234058648347855,-0.16728238761425018,0.001284334808588028,6.42782735824585,0.17475736141204834,-1.4243706464767456
1403637134593319000,-0.09884345531463623,-0.17424605786800385,-0.006339915096759796,6.533330917358398,-0.012445889413356781,-1.4398996829986572
1403637134598319000,-0.09470472484827042,-0.1854010671377182,-0.009829968214035034,6.58258056640625,-0.08580581098794937,-1.4561535120010376
1403637134603319000,-0.08711262047290802,-0.18883688747882843,-0.013979777693748474,6.517755508422852,-0.14351248741149902,-1.4643845558166504
1403637134608319000,-0.06774535775184631,-0.20065248012542725,-0.010532572865486145,6.525838375091553,-0.17706377804279327,-1.4967155456542969
1403637134613319000,-0.054542966187000275,-0.2076561450958252,-0.005594655871391296,6.525837421417236,-0.19388200342655182,-1.4967830181121826
1403637134618319000,-0.04270682483911514,-0.21671485900878906,0.0013840794563293457,6.485506057739258,-0.18699537217617035,-1.488623857498169
1403637134623319000,-0.03367605060338974,-0.22156701982021332,0.01386101171374321,6.60837984085083,-0.09798603504896164,-1.5374799966812134
1403637134628319000,-0.02332555502653122,-0.22988739609718323,0.02845866233110428,6.535123348236084,-0.017385108396410942,-1.5452967882156372
1403637134633319000,-0.017019636929035187,-0.22990800440311432,0.029886774718761444,6.600830554962158,0.08020773530006409,-1.554092526435852
1403637134638319000,-0.016939088702201843,-0.24033458530902863,0.032679684460163116,6.559954643249512,0.12890373170375824,-1.6192295551300049
1403637134643319000,-0.014141872525215149,-0.2424582540988922,0.02924371138215065,6.609130382537842,0.2354811578989029,-1.6200040578842163
1403637134648319000,-0.020432263612747192,-0.2522249221801758,0.029233558103442192,6.454202651977539,0.20309671759605408,-1.5872712135314941
1403637134653319000,-0.028069056570529938,-0.25784945487976074,0.01601586490869522,6.486558437347412,0.14662069082260132,-1.6204712390899658
1403637134658319000,-0.029434479773044586,-0.26412683725357056,0.004817117005586624,6.355342864990234,0.03297804668545723,-1.6039941310882568
1403637134663319000,-0.03016825020313263,-0.27252984046936035,-0.01604970544576645,6.452875137329102,0.009247218258678913,-1.645263910293579
1403637134668319000,-0.028070777654647827,-0.2858356535434723,-0.027892380952835083,6.3714375495910645,-0.02298293076455593,-1.5798568725585938
1403637134673319000,-0.02946823090314865,-0.30128127336502075,-0.04600974917411804,6.534531593322754,0.02616436965763569,-1.6287338733673096
1403637134678319000,-0.024639539420604706,-0.314601868391037,-0.05722885578870773,6.526212215423584,-0.03134877607226372,-1.5629931688308716
1403637134683319000,-0.020452730357646942,-0.32794615626335144,-0.06621769070625305,6.810495853424072,-0.11355319619178772,-1.611136794090271
1403637134688319000,-0.007859602570533752,-0.3412628173828125,-0.06338751316070557,7.045278072357178,-0.2619175910949707,-1.7071481943130493
1403637134693319000,0.004724361002445221,-0.34969818592071533,-0.057687804102897644,7.354686737060547,-0.3288031220436096,-1.8449692726135254
1403637134698319000,0.021426402032375336,-0.3553563356399536,-0.03947439789772034,7.436773300170898,-0.46984153985977173,-1.9174789190292358
1403637134703319000,0.04863817244768143,-0.3616494834423065,-0.013648197054862976,7.633732795715332,-0.5205358862876892,-1.9910871982574463
1403637134708319000,0.07716482132673264,-0.36510977149009705,0.026834189891815186,7.570008277893066,-0.529376745223999,-2.089024305343628
1403637134713319000,0.0966932401061058,-0.3735390603542328,0.058997880667448044,7.751490116119385,-0.3569656014442444,-2.286834239959717
1403637134718319000,0.11063487082719803,-0.3847690224647522,0.08888745307922363,7.71204948425293,-0.2500346899032593,-2.3695104122161865
1403637134723319000,0.11543265730142593,-0.39464327692985535,0.10276192426681519,7.867684364318848,-0.12693656980991364,-2.4367282390594482
1403637134728319000,0.1168283149600029,-0.40028277039527893,0.10347878932952881,7.843059539794922,-0.1597408503293991,-2.6001503467559814
1403637134733319000,0.11344753950834274,-0.41084906458854675,0.09100472927093506,7.867285251617432,-0.04437565058469772,-2.7157211303710938
1403637134738319000,0.10649927705526352,-0.416485458612442,0.07574496418237686,7.882955074310303,-0.026974771171808243,-2.756960868835449
1403637134743319000,0.0953085646033287,-0.4256282150745392,0.04647849127650261,7.833206653594971,-0.043143730610609055,-2.830472469329834
1403637134748319000,0.08064406365156174,-0.436884343624115,0.01722598448395729,7.807783603668213,-0.14100520312786102,-2.8217551708221436
1403637134753319000,0.07651004940271378,-0.45655080676078796,-0.0057528093457221985,7.945221900939941,-0.30483290553092957,-2.8865714073181152
1403637134758319000,0.0779527798295021,-0.46641939878463745,-0.019006937742233276,7.977120876312256,-0.3944695293903351,-2.9190070629119873
1403637134763319000,0.09336542338132858,-0.47690045833587646,-0.0119505375623703,8.107176780700684,-0.50953608751297,-2.8529770374298096
1403637134768319000,0.10106758028268814,-0.48528093099594116,0.0069236308336257935,8.213384628295898,-0.5509263873100281,-2.860991954803467
1403637134773319000,0.11631742864847183,-0.4957193434238434,0.03546063229441643,8.278985977172852,-0.551241397857666,-2.8204407691955566
1403637134778319000,0.12606987357139587,-0.4964609444141388,0.07461799681186676,8.540609359741211,-0.5675275921821594,-2.9275872707366943
1403637134783319000,0.1378905475139618,-0.49440526962280273,0.11780229955911636,8.606547355651855,-0.5926588177680969,-3.01814866065979
1403637134788319000,0.14632627367973328,-0.490933358669281,0.15051087737083435,8.82681941986084,-0.5113915801048279,-3.240212917327881
1403637134793319000,0.14835354685783386,-0.48041823506355286,0.17075814306735992,8.794238090515137,-0.45491868257522583,-3.3716466426849365
