#timestamp [ns],w_RS_S_x [rad s^-1],w_RS_S_y [rad s^-1],w_RS_S_z [rad s^-1],a_RS_S_x [m s^-2],a_RS_S_y [m s^-2],a_RS_S_z [m s^-2]
1403637130498319000,-0.032114058236695664,0.05445427266222308,0.07749261878854824,9.447072833333333,-0.9398039583333333,-2.4516625
1403637130503319000,-0.017453292519943295,0.04328416544945937,0.06632251157578452,9.250939833333334,-1.1359369583333332,-2.4108014583333333
1403637130508319000,0.003490658503988659,0.033510321638291124,0.05375614096142535,9.16921775,-1.1849702083333333,-2.4434902916666665
1403637130513319000,0.019547687622336492,0.017453292519943295,0.05026548245743669,9.144701125,-1.0296982499999998,-2.435318083333333
1403637130518319000,0.029321531433504733,0.004886921905584123,0.056548667764616284,9.226423208333333,-0.7436709583333333,-2.4925235416666665
1403637130523319000,0.025132741228718346,0.0006981317007977319,0.06492624817418906,9.487933875,-0.4494714583333333,-2.459834708333333
1403637130528319000,0.0027925268031909274,0.004886921905584123,0.07539822368615504,9.422556208333333,-0.3350605416666666,-2.3944570416666666
1403637130533319000,-0.017453292519943295,0.0013962634015954637,0.09215338450530061,9.46341725,-0.43312704166666666,-2.4189736666666666
1403637130538319000,-0.030019663134302467,0.014660765716752367,0.10262536001726656,9.586000375,-0.661948875,-2.3862848333333333
1403637130543319000,-0.0307177948351002,0.025132741228718346,0.11519173063162574,9.635033625,-0.8417374583333332,-2.3535959999999996
1403637130548319000,-0.02024581932313422,0.03630284844148206,0.11309733552923257,9.659550249999999,-0.9970094166666666,-2.4108014583333333
1403637130553319000,-0.0006981317007977319,0.04258603374866164,0.1075122819228507,9.577828166666666,-1.0133538333333332,-2.3045627499999997
1403637130558319000,0.017453292519943295,0.03700098014227979,0.08936085770210968,9.316317499999998,-0.8662540833333333,-2.2718739166666664
1403637130563319000,0.029321531433504733,0.0153588974175501,0.07051130178057091,9.332661916666666,-0.6782932916666666,-2.3699404166666667
1403637130568319000,0.030019663134302467,0.020943951023931952,0.06422811647339133,9.422556208333333,-0.4739880833333333,-2.476179125
1403637130573319000,0.017453292519943295,0.014660765716752367,0.07051130178057091,9.414383999999998,-0.220649625,-2.6151066666666667
1403637130578319000,-0.0020943951023931952,0.01884955592153876,0.07539822368615504,9.520622708333333,-0.14709974999999997,-2.6477955
1403637130583319000,-0.020943951023931952,0.021642082724729686,0.0879645943005142,9.340834124999999,-0.2778550833333333,-2.59876225
1403637130588319000,-0.0307177948351002,0.02024581932313422,0.08656833089891874,9.389867375,-0.6782932916666666,-2.549729
1403637130593319000,-0.02722713633111154,0.02234021442552742,0.07749261878854824,9.430728416666666,-0.9724927916666666,-2.582417833333333
1403637130598319000,-0.004886921905584123,0.024434609527920613,0.06911503837897544,9.389867375,-1.0869037083333333,-2.557901208333333
1403637130603319000,0.012566370614359173,0.01884955592153876,0.06911503837897544,9.316317499999998,-1.103248125,-2.459834708333333
1403637130608319000,0.030019663134302467,0.016057029118347832,0.07120943348136866,9.389867375,-0.8580818749999999,-2.4680069166666665
1403637130613319000,0.03560471674068433,0.0013962634015954637,0.08237954069413235,9.210078791666666,-0.7273265416666667,-2.3209071666666663
1403637130618319000,0.02583087292951608,-0.006283185307179587,0.08307767239493008,9.381695166666667,-0.6782932916666666,-2.280046125
1403637130623319000,0.025132741228718346,-0.009773843811168246,0.08377580409572781,9.536967125,-0.73549875,-2.1656352083333332
1403637130628319000,0.02583087292951608,-0.01117010721276371,0.07260569688296412,9.814822208333332,-0.563882375,-2.214668458333333
1403637130633319000,0.024434609527920613,0.0041887902047863905,0.07819075048934597,9.782133375,-0.4739880833333333,-2.157463
1403637130638319000,0.016057029118347832,0.009075712110370514,0.06562437987498679,9.724927916666667,-0.34323275000000003,-2.2718739166666664
1403637130643319000,0.005363307893276215,0.0250282883644104,0.04857475310564041,9.560977935791016,-0.45693227648735046,-2.321749687194824
1403637130648319000,-0.004913646727800369,0.03696592152118683,0.02678132802248001,9.415852546691895,-0.4568851590156555,-2.549448013305664
1403637130653319000,-0.008116684854030609,0.03689570724964142,0.0394318588078022,9.392631530761719,-0.34975969791412354,-2.780609369277954
1403637130658319000,-0.01138574443757534,0.04590350389480591,0.06127569451928139,9.588763236999512,-0.28395575284957886,-2.99483060836792
1403637130663319000,-0.01694003865122795,0.055021293461322784,0.07739205658435822,9.36797046661377,-0.3086634576320648,-2.9966678619384766
1403637130668319000,-0.03177103400230408,0.0529145821928978,0.07237623631954193,9.262474060058594,-0.33329400420188904,-2.914807081222534
1403637130673319000,-0.049451638013124466,0.041687630116939545,0.059562064707279205,9.010622024536133,-0.5765143036842346,-2.840869903564453
1403637130678319000,-0.04935622960329056,0.026222452521324158,0.047547776252031326,9.010890007019043,-0.7236840128898621,-2.759979009628296
1403637130683319000,-0.04575734585523605,0.008761320263147354,0.06894829869270325,8.97019100189209,-0.7803943157196045,-2.6464622020721436
1403637130688319000,-0.04227928817272186,-0.002401169389486313,0.08976946771144867,9.247159004211426,-0.8204594254493713,-2.5250513553619385
1403637130693319000,-0.03552563488483429,-0.011962108314037323,0.09942890703678131,9.40860366821289,-1.1552057266235352,-2.2638680934906006
1403637130698319000,-0.02309359982609749,-0.01099146157503128,0.09042265266180038,9.61695384979248,-1.4827147722244263,-1.935145378112793
1403637130703319000,0.006338413804769516,-0.014366596937179565,0.08101631700992584,9.532398223876953,-1.6934493780136108,-1.677962303161621
1403637130708319000,0.049178123474121094,-0.013326164335012436,0.07471637427806854,9.801491737365723,-1.3108949661254883,-1.87179434299469
1403637130713319000,0.06112801283597946,0.0032145753502845764,0.09129305928945541,9.933067321777344,-0.4692443311214447,-2.1748597621917725
1403637130718319000,0.04214351624250412,0.03261437267065048,0.10846108198165894,10.02307415008545,0.2339782565832138,-2.509373426437378
1403637130723319000,-0.0050962455570697784,0.06773866713047028,0.12644757330417633,9.787226676940918,0.3059576451778412,-2.6402947902679443
1403637130728319000,-0.04022058844566345,0.08031757175922394,0.12026646733283997,9.584983825683594,-0.1624869406223297,-2.6064770221710205
1403637130733319000,-0.04227989539504051,0.07255248725414276,0.11089858412742615,9.12148666381836,-0.9470210075378418,-2.4334716796875
1403637130738319000,-0.012505952268838882,0.052681416273117065,0.09580224007368088,9.082762718200684,-1.242167592048645,-2.4412057399749756
1403637130743319000,0.021350912749767303,0.030209369957447052,0.08002957701683044,8.961674690246582,-1.0295428037643433,-2.492459535598755
1403637130748319000,0.029825247824192047,0.010019417852163315,0.06332487612962723,9.15791130065918,-0.3013474643230438,-2.7568726539611816
1403637130753319000,0.0191875658929348,0.0032643862068653107,0.05489988997578621,9.222649574279785,-0.030163273215293884,-2.7940094470977783
1403637130758319000,-0.0075323376804590225,-0.009271912276744843,0.04500424116849899,9.229872703552246,-0.039247918874025345,-2.598168134689331
1403637130763319000,-0.03555961325764656,-0.0240994431078434,0.04079188406467438,9.286905288696289,-0.29214122891426086,-2.4416370391845703
1403637130768319000,-0.0424872562289238,-0.016512742266058922,0.03811603784561157,9.726689338684082,-0.5286948084831238,-2.440920114517212
1403637130773319000,-0.044689420610666275,0.006933234632015228,0.05024094879627228,9.741416931152344,-0.8386889696121216,-2.424259662628174
1403637130778319000,-0.02998814545571804,0.022574342787265778,0.05793696269392967,9.806537628173828,-0.9623039364814758,-2.4897372722625732
1403637130783319000,-0.015290284529328346,0.040775202214717865,0.06684620678424835,9.667766571044922,-0.9447335004806519,-2.4976806640625
1403637130788319000,-0.004643283784389496,0.051799945533275604,0.07162012904882431,9.528318405151367,-0.8128321170806885,-2.4801251888275146
1403637130793319000,-0.008109577000141144,0.054369084537029266,0.07505150139331818,9.324667930603027,-0.6898426413536072,-2.389557123184204
1403637130798319000,-0.00889652967453003,0.0416380912065506,0.06659668684005737,9.251933097839355,-0.7721889615058899,-2.200300455093384
1403637130803319000,-0.007023714482784271,0.013838116079568863,0.056240566074848175,9.089800834655762,-1.3024487495422363,-2.0265891551971436
1403637130808319000,0.014662481844425201,-0.01768435537815094,0.046535566449165344,9.375935554504395,-1.393749475479126,-2.0673487186431885
1403637130813319000,0.05053365230560303,-0.029753077775239944,0.06330481916666031,9.489482879638672,-0.8941879272460938,-2.256091594696045
1403637130818319000,0.051258839666843414,-0.024275409057736397,0.0772697925567627,9.871772766113281,-0.1087547168135643,-2.5523648262023926
1403637130823319000,0.019543156027793884,0.014499794691801071,0.08976700901985168,9.935616493225098,0.23247148096561432,-2.7175021171569824
1403637130828319000,-0.017740599811077118,0.04336301237344742,0.08549751341342926,9.894466400146484,0.04104235768318176,-2.7093088626861572
1403637130833319000,-0.035208217799663544,0.06080533564090729,0.08261217921972275,9.57718563079834,-0.604759693145752,-2.503612756729126
1403637130838319000,-0.02023196779191494,0.05783374607563019,0.07989679276943207,9.36607551574707,-1.0293564796447754,-2.3948543071746826
1403637130843319000,-0.0018737763166427612,0.047279126942157745,0.08505991846323013,9.057380676269531,-1.0449002981185913,-2.369839668273926
1403637130848319000,0.010811250656843185,0.032626956701278687,0.0809502974152565,9.124275207519531,-0.774895429611206,-2.534968614578247
1403637130853319000,0.005754932761192322,0.022271934896707535,0.07445432990789413,9.100532531738281,-0.6841701865196228,-2.6855173110961914
1403637130858319000,0.000785142183303833,0.01317150890827179,0.06785620003938675,9.328581809997559,-0.724888801574707,-2.6472904682159424
1403637130863319000,0.0016082115471363068,0.006034102290868759,0.07698309421539307,9.237831115722656,-0.747950553894043,-2.5156919956207275
1403637130868319000,0.0010166652500629425,-0.002611961215734482,0.08072458952665329,9.481588363647461,-0.6572961807250977,-2.4328629970550537
1403637130873319000,-0.008315224200487137,-0.003918346017599106,0.08721406757831573,9.464144706726074,-0.7308181524276733,-2.300732374191284
1403637130878319000,-0.010656733065843582,-0.0036659911274909973,0.09207572042942047,9.602291107177734,-0.9201653599739075,-2.3162832260131836
1403637130883319000,-0.0015788227319717407,0.011279981583356857,0.10166557878255844,9.626568794250488,-1.0756224393844604,-2.324718952178955
1403637130888319000,0.013341229408979416,0.025287102907896042,0.11689238250255585,9.740487098693848,-0.9606509208679199,-2.495959997177124
1403637130893319000,0.026828914880752563,0.04479341208934784,0.12815478444099426,9.5520601272583,-0.7071205377578735,-2.488759756088257
1403637130898319000,0.02406437322497368,0.05014427751302719,0.12607359886169434,9.454174041748047,-0.3164604604244232,-2.4054152965545654
1403637130903319000,0.009905260056257248,0.04509207606315613,0.11756786704063416,9.177632331848145,-0.23487912118434906,-2.305265426635742
1403637130908319000,-0.0028574541211128235,0.0219128280878067,0.10697508603334427,9.24407958984375,-0.36628684401512146,-2.3208274841308594
1403637130913319000,-0.006999198347330093,0.005822274833917618,0.08744630217552185,9.41646957397461,-0.5217603445053101,-2.4444336891174316
1403637130918319000,0.00021079182624816895,0.00035117194056510925,0.07009220868349075,9.563432693481445,-0.5214745998382568,-2.6015379428863525
1403637130923319000,0.0009094402194023132,0.011040903627872467,0.061175428330898285,9.522589683532715,-0.5049515962600708,-2.6276895999908447
1403637130928319000,-0.0019425377249717712,0.02577086165547371,0.05698242783546448,9.644548416137695,-0.46524298191070557,-2.6280100345611572
1403637130933319000,-0.001986399292945862,0.034111931920051575,0.06183715537190437,9.488456726074219,-0.5302581787109375,-2.4888479709625244
1403637130938319000,-0.0005198195576667786,0.029753156006336212,0.06537126004695892,9.42326831817627,-0.5704254508018494,-2.413933038711548
1403637130943319000,-0.0005050934851169586,0.024843573570251465,0.060496360063552856,9.27761173248291,-0.6835751533508301,-2.3726797103881836
1403637130948319000,-0.004718787968158722,0.013031013309955597,0.05551309883594513,9.44133472442627,-0.6508283019065857,-2.4465084075927734
1403637130953319000,-0.007573658600449562,0.01254388689994812,0.05414612963795662,9.432666778564453,-0.6501488089561462,-2.4067025184631348
1403637130958319000,-0.009027823805809021,0.006993889808654785,0.048632796853780746,9.522281646728516,-0.6662840247154236,-2.4311275482177734
1403637130963319000,-0.011171454563736916,0.011101886630058289,0.057107120752334595,9.456872940063477,-0.7232074737548828,-2.4231975078582764
1403637130968319000,-0.005463451147079468,0.015805769711732864,0.0626453086733818,9.619654655456543,-0.7151915431022644,-2.5044374465942383
1403637130973319000,-0.0025700144469738007,0.026263467967510223,0.0666523277759552,9.545890808105469,-0.6494423151016235,-2.5454609394073486
1403637130978319000,-0.0032599419355392456,0.032612599432468414,0.06229754537343979,9.594966888427734,-0.527417004108429,-2.5451464653015137
1403637130983319000,-0.01104324497282505,0.031314268708229065,0.06798984110355377,9.342560768127441,-0.47007817029953003,-2.5197510719299316
1403637130988319000,-0.018038854002952576,0.024977587163448334,0.06396041810512543,9.41653823852539,-0.4788312315940857,-2.5525076389312744
1403637130993319000,-0.019396468997001648,0.024278633296489716,0.06610403209924698,9.310526847839355,-0.5443536043167114,-2.5201640129089355
1403637130998319000,-0.017968159168958664,0.02359052002429962,0.06262105703353882,9.351639747619629,-0.6261909008026123,-2.57759428024292
1403637131003319000,-0.019369155168533325,0.019425764679908752,0.07031966745853424,9.26215934753418,-0.5609970092773438,-2.553886890411377
1403637131008319000,-0.019384607672691345,0.019391246140003204,0.06882064044475555,9.376216888427734,-0.5608813762664795,-2.537424087524414
1403637131013319000,-0.022210681810975075,0.02006945013999939,0.07366207987070084,9.326772689819336,-0.5936715006828308,-2.5049891471862793
1403637131018319000,-0.026484504342079163,0.018613815307617188,0.0765857845544815,9.5056734085083,-0.7085059881210327,-2.415536403656006
1403637131023319000,-0.022360729053616524,0.012447066605091095,0.07945287227630615,9.374388694763184,-0.9856212735176086,-2.226668357849121
1403637131028319000,-0.006974492222070694,-8.834153413772583e-05,0.06393270194530487,9.585559844970703,-1.2229539155960083,-2.0788180828094482
1403637131033319000,0.01690278947353363,-0.005682084709405899,0.0596725232899189,9.609289169311523,-1.1414850950241089,-2.06115460395813
1403637131038319000,0.030248746275901794,0.001864790916442871,0.059761837124824524,9.698729515075684,-0.5935177803039551,-2.1673741340637207
1403637131043319000,0.019718069583177567,0.016570627689361572,0.06960372626781464,9.674933433532715,-0.13430190086364746,-2.3714170455932617
1403637131048319000,-0.008325707167387009,0.03692387789487839,0.06886149197816849,9.7730712890625,0.06077934429049492,-2.641688823699951
1403637131053319000,-0.030836401507258415,0.048855289816856384,0.06393763422966003,9.488236427307129,-0.28336960077285767,-2.6098179817199707
1403637131058319000,-0.034279316663742065,0.05573968589305878,0.05474751442670822,9.408424377441406,-0.774287223815918,-2.62495493888855
1403637131063319000,-0.013138215988874435,0.045914262533187866,0.044953081756830215,9.066972732543945,-1.109100341796875,-2.4778480529785156
1403637131068319000,0.010801456868648529,0.027652494609355927,0.03453466668725014,9.14150619506836,-0.9866829514503479,-2.5832977294921875
1403637131073319000,0.021982446312904358,0.014428507536649704,0.031245194375514984,9.149978637695312,-0.6999318599700928,-2.6926422119140625
1403637131078319000,0.01624346524477005,0.008174758404493332,0.029848292469978333,9.361618041992188,-0.5528296232223511,-2.7439963817596436
1403637131083319000,0.0049364082515239716,-0.005074683576822281,0.046560391783714294,9.197644233703613,-0.577261209487915,-2.5735981464385986
1403637131088319000,-0.0069864243268966675,-0.009316708892583847,0.061934150755405426,9.360279083251953,-0.764674961566925,-2.4581921100616455
1403637131093319000,-0.009807918220758438,-0.009952045977115631,0.08225101232528687,9.407795906066895,-0.9277005791664124,-2.3102915287017822
1403637131098319000,-0.009140875190496445,-0.004360456019639969,0.10181950777769089,9.650940895080566,-0.8875030875205994,-2.3010029792785645
1403637131103319000,-0.0064308494329452515,0.006275799125432968,0.12413181364536285,9.617640495300293,-0.9522467851638794,-2.2927701473236084
1403637131108319000,-0.00431080162525177,0.02242259308695793,0.14358147978782654,9.788535118103027,-0.8470900654792786,-2.398488759994507
1403637131113319000,-0.001416075974702835,0.03785209357738495,0.1610124707221985,9.714366912841797,-0.8466402292251587,-2.4393186569213867
1403637131118319000,-0.0013349279761314392,0.05519963800907135,0.1580943614244461,9.689339637756348,-0.9120551347732544,-2.4222075939178467
1403637131123319000,0.004950378090143204,0.0587170273065567,0.14330925047397614,9.322667121887207,-1.1820154190063477,-2.2325289249420166
1403637131128319000,0.024672821164131165,0.04673163592815399,0.1321224570274353,8.9091215133667,-1.2478444576263428,-2.27036190032959
1403637131133319000,0.05352877080440521,0.012833729386329651,0.13782383501529694,8.943885803222656,-0.8466959595680237,-2.4514925479888916
1403637131138319000,0.06406424939632416,0.0028313808143138885,0.1379145383834839,9.310891151428223,-0.17539119720458984,-2.731412410736084
1403637131143319000,0.048480235040187836,0.0015795528888702393,0.13577044010162354,9.537474632263184,0.3385618329048157,-2.8078505992889404
1403637131148319000,0.005483463406562805,0.015106063336133957,0.11256636679172516,9.65156078338623,0.34424418210983276,-2.7754366397857666
1403637131153319000,-0.024049002677202225,0.019444242119789124,0.09642381966114044,9.561919212341309,-0.14789575338363647,-2.5547397136688232
1403637131158319000,-0.022520240396261215,0.022200390696525574,0.08823957294225693,9.504040718078613,-0.671853244304657,-2.3730602264404297
1403637131163319000,0.00014208629727363586,0.015112891793251038,0.07951132953166962,9.365180969238281,-0.8838473558425903,-2.224958896636963
1403637131168319000,0.02063412219285965,0.011513713747262955,0.06279820203781128,9.44796371459961,-0.5729111433029175,-2.2899532318115234
1403637131173319000,0.024767324328422546,0.006110146641731262,0.05209757760167122,9.521890640258789,-0.2855027914047241,-2.3407254219055176
1403637131178319000,0.005706556141376495,0.012575618922710419,0.03294471278786659,9.627480506896973,-0.14650076627731323,-2.316805362701416
1403637131183319000,-0.013284100219607353,0.011143766343593597,0.02667948603630066,9.578164100646973,-0.3662444055080414,-2.2427709102630615
1403637131188319000,-0.02297041192650795,0.017976097762584686,0.026344280689954758,9.545719146728516,-0.6425794363021851,-2.306248426437378
1403637131193319000,-0.014439402148127556,0.018563296645879745,0.035660676658153534,9.684486389160156,-0.9191063642501831,-2.388124465942383
1403637131198319000,-0.00820106640458107,0.03263223171234131,0.044622752815485,9.594752311706543,-0.9431136846542358,-2.461435079574585
1403637131203319000,-0.007678410038352013,0.03413890302181244,0.05483081936836243,9.480950355529785,-0.7954751253128052,-2.437519073486328
1403637131208319000,-0.00634445995092392,0.032767102122306824,0.06946524977684021,9.302377700805664,-0.8110344409942627,-2.4370152950286865
1403637131213319000,-0.004169680178165436,0.025725003331899643,0.07509641349315643,9.302406311035156,-0.8854122757911682,-2.4134609699249268
1403637131218319000,-0.0019347891211509705,0.024959679692983627,0.08276762068271637,9.28618049621582,-0.9184421300888062,-2.4627304077148438
1403637131223319000,0.001616068184375763,0.017240315675735474,0.09473388642072678,9.302549362182617,-0.8607228398323059,-2.488426923751831
1403637131228319000,0.005078520625829697,0.010250214487314224,0.10729946196079254,9.367640495300293,-0.7877127528190613,-2.480733871459961
1403637131233319000,0.00071769580245018,0.003974217921495438,0.10783660411834717,9.481179237365723,-0.7152811288833618,-2.4728708267211914
1403637131238319000,0.0041757673025131226,0.011675994843244553,0.1077357679605484,9.488396644592285,-0.6424141526222229,-2.431730270385742
1403637131243319000,0.002795100212097168,0.014418944716453552,0.10496582090854645,9.708452224731445,-0.6184221506118774,-2.4725255966186523
1403637131248319000,0.002875208854675293,0.027122747153043747,0.1001272052526474,9.479387283325195,-0.5619584321975708,-2.3739287853240967
1403637131253319000,0.0008649937808513641,0.032014988362789154,0.0952589213848114,9.58614444732666,-0.40737220644950867,-2.5114006996154785
1403637131258319000,-0.004088863730430603,0.03829624503850937,0.09263297915458679,9.406989097595215,-0.5050428509712219,-2.4715404510498047
1403637131263319000,-0.011809352785348892,0.03326144069433212,0.08842166513204575,9.570298194885254,-0.5958815217018127,-2.552830696105957
1403637131268319000,-0.00616421177983284,0.036122336983680725,0.08340823650360107,9.374664306640625,-0.6854085326194763,-2.4639017581939697
1403637131273319000,-0.003331754356622696,0.01870715245604515,0.08135118335485458,9.227936744689941,-0.6029744148254395,-2.306788444519043
1403637131278319000,0.003081195056438446,0.0038788020610809326,0.08215595781803131,9.277809143066406,-0.4227212369441986,-2.379441499710083
1403637131283319000,-0.0067141093313694,0.013589534908533096,0.0772249847650528,9.668911933898926,-0.21859996020793915,-2.6260533332824707
1403637131288319000,-0.022201303392648697,0.020795397460460663,0.062498338520526886,9.423331260681152,-0.18534480035305023,-2.5294978618621826
1403637131293319000,-0.039160165935754776,0.015942193567752838,0.04500402510166168,9.539125442504883,-0.561366081237793,-2.5129141807556152
1403637131298319000,-0.02577570639550686,0.021576441824436188,0.05144798010587692,9.367595672607422,-0.9784201979637146,-2.3739349842071533
1403637131303319000,-0.008840784430503845,0.01805618777871132,0.055755265057086945,9.41573429107666,-1.0678523778915405,-2.3802685737609863
1403637131308319000,0.007950648665428162,0.017285991460084915,0.06338173151016235,9.489165306091309,-0.9927183985710144,-2.3572335243225098
1403637131313319000,0.01419539749622345,0.02634846419095993,0.06113068759441376,9.652276039123535,-0.6826390027999878,-2.4796712398529053
1403637131318319000,0.012024909257888794,0.02310696244239807,0.05818566307425499,9.236377716064453,-0.5185002684593201,-2.455223321914673
1403637131323319000,-0.006305687129497528,0.014574691653251648,0.06514845043420792,9.408584594726562,-0.5346814393997192,-2.504178762435913
1403637131328319000,-0.007699316367506981,0.022088591009378433,0.07728591561317444,9.28549861907959,-0.6657316088676453,-2.406167507171631
1403637131333319000,-0.0019909627735614777,0.015096049755811691,0.0886707752943039,9.399331092834473,-0.7641296982765198,-2.445995569229126
1403637131338319000,0.0007955171167850494,0.01235279068350792,0.09201812744140625,9.571674346923828,-0.8459432721138,-2.57822585105896
1403637131343319000,0.007009737193584442,0.02850491553544998,0.0888233482837677,9.570775985717773,-0.7653719186782837,-2.5707058906555176
1403637131348319000,0.01198270171880722,0.03276073932647705,0.09923051297664642,9.382734298706055,-0.5772247910499573,-2.5863029956817627
1403637131353319000,0.00584658607840538,0.03610219061374664,0.09167890250682831,9.497442245483398,-0.3319641947746277,-2.7090795040130615
1403637131358319000,-0.007498694583773613,0.037411488592624664,0.08553514629602432,9.358336448669434,-0.26672619581222534,-2.6440138816833496
1403637131363319000,-0.02155449241399765,0.0340251624584198,0.07027009129524231,9.269346237182617,-0.4065040946006775,-2.5535900592803955
1403637131368319000,-0.02441791072487831,0.015212766826152802,0.06815271079540253,9.156238555908203,-0.7990126609802246,-2.3737423419952393
1403637131373319000,-0.01749095693230629,0.0004871934652328491,0.07099702954292297,9.237642288208008,-1.1095876693725586,-2.258148193359375
1403637131378319000,0.003520786762237549,-0.0168776735663414,0.08582897484302521,9.391671180725098,-1.3290952444076538,-2.2178571224212646
1403637131383319000,0.023171789944171906,-0.009156439453363419,0.0893041267991066,9.68356990814209,-1.2149924039840698,-2.2106969356536865
1403637131388319000,0.03151318430900574,-0.009197339415550232,0.08905673027038574,9.706690788269043,-0.9532448053359985,-2.153595209121704
1403637131393319000,0.03217434883117676,0.00820671021938324,0.09021849930286407,9.852744102478027,-0.610175609588623,-2.1937096118927
1403637131398319000,0.030875399708747864,0.02568354457616806,0.09380371123552322,9.795384407043457,-0.3076334595680237,-2.274008274078369
1403637131403319000,0.01830635592341423,0.04449273645877838,0.09680019319057465,9.673599243164062,-0.18472877144813538,-2.4195363521575928
1403637131408319000,-0.00700773298740387,0.050753235816955566,0.09828506410121918,9.618049621582031,-0.16876956820487976,-2.566805362701416
1403637131413319000,-0.023172257468104362,0.06274259090423584,0.0883558839559555,9.4154634475708,-0.38180869817733765,-2.6076910495758057
1403637131418319000,-0.02526228316128254,0.05161551386117935,0.07837213575839996,9.253573417663574,-0.7585888504981995,-2.5346267223358154
1403637131423319000,-0.004794668406248093,0.04102793335914612,0.07002145051956177,9.058928489685059,-1.0944066047668457,-2.4530625343322754
1403637131428319000,0.016280319541692734,0.010825160890817642,0.06183798983693123,9.051337242126465,-1.159524917602539,-2.404895305633545
1403637131433319000,0.03387879580259323,-0.005988225340843201,0.05282842740416527,9.17363166809082,-0.8970186710357666,-2.4061291217803955
1403637131438319000,0.042319536209106445,-0.018540073186159134,0.05419332534074783,9.30343246459961,-0.4873461425304413,-2.46458101272583
1403637131443319000,0.025372862815856934,-0.013568582013249397,0.055544231086969376,9.474108695983887,-0.21706318855285645,-2.555418014526367
1403637131448319000,2.775341272354126e-06,-0.005726443603634834,0.05971284955739975,9.619921684265137,-0.1928698569536209,-2.5233805179595947
1403637131453319000,-0.016896260902285576,0.005544286221265793,0.06469205766916275,9.578031539916992,-0.41384798288345337,-2.391500949859619
1403637131458319000,-0.020345419645309448,0.015973776578903198,0.07033891975879669,9.708244323730469,-0.6515054106712341,-2.381767511367798
1403637131463319000,-0.016140498220920563,0.030710235238075256,0.07379019260406494,9.585796356201172,-0.8556634187698364,-2.4052960872650146
1403637131468319000,-0.009054206311702728,0.03700482100248337,0.0694318637251854,9.635416030883789,-0.8478237390518188,-2.5525708198547363
1403637131473319000,-0.005445331335067749,0.05037692189216614,0.06312650442123413,9.334453582763672,-0.8713983297348022,-2.602534770965576
1403637131478319000,0.003860481083393097,0.03839702904224396,0.06319410353899002,9.049546241760254,-0.6262614130973816,-2.5775442123413086
1403637131483319000,0.006737366318702698,0.019930660724639893,0.071626216173172,9.0260591506958,-0.42074957489967346,-2.5772526264190674
1403637131488319000,0.005361691117286682,0.004311412572860718,0.07931043207645416,9.449666023254395,-0.29826658964157104,-2.6273512840270996
1403637131493319000,-0.015853537246584892,0.006541326642036438,0.07930994033813477,9.473015785217285,-0.2499532699584961,-2.586966037750244
1403637131498319000,-0.03498990461230278,0.003236725926399231,0.06731586158275604,9.693604469299316,-0.43835675716400146,-2.5465874671936035
1403637131503319000,-0.03999011591076851,0.012516304850578308,0.0673154890537262,9.554675102233887,-0.8385795950889587,-2.48891019821167
1403637131508319000,-0.030019935220479965,0.014594882726669312,0.07939891517162323,9.610607147216797,-0.9460185170173645,-2.4804434776306152
1403637131513319000,-0.010255038738250732,0.02642013132572174,0.08935670554637909,9.511987686157227,-0.8959712982177734,-2.357851505279541
1403637131518319000,-0.0010967925190925598,0.027007892727851868,0.08433282375335693,9.553281784057617,-0.6587783694267273,-2.3977105617523193
1403637131523319000,-0.003260895609855652,0.03344886749982834,0.07640302926301956,9.333633422851562,-0.49545711278915405,-2.332223415374756
1403637131528319000,-0.010302400216460228,0.025116249918937683,0.06853966414928436,9.36713695526123,-0.3890101909637451,-2.4125173091888428
1403637131533319000,-0.016567882150411606,0.025692269206047058,0.07144773006439209,9.36742115020752,-0.45346444845199585,-2.5195438861846924
1403637131538319000,-0.021419906988739967,0.024149388074874878,0.07105882465839386,9.571052551269531,-0.47037434577941895,-2.6019012928009033
1403637131543319000,-0.026452701538801193,0.02349989116191864,0.07614024728536606,9.5055513381958,-0.6336830854415894,-2.5371499061584473
1403637131548319000,-0.026600731536746025,0.027036823332309723,0.07802339643239975,9.64436149597168,-0.8879023194313049,-2.5206406116485596
1403637131553319000,-0.021073171868920326,0.034882791340351105,0.08618325740098953,9.341666221618652,-1.035367727279663,-2.307652235031128
1403637131558319000,-0.006996359676122665,0.026475053280591965,0.09321087598800659,9.301273345947266,-1.173139214515686,-2.2896835803985596
1403637131563319000,0.007813606411218643,0.020809799432754517,0.10530070960521698,9.236655235290527,-1.1889337301254272,-2.3235669136047363
1403637131568319000,0.0233379527926445,0.0200708769261837,0.11086603999137878,9.37507152557373,-0.9687609672546387,-2.4141955375671387
1403637131573319000,0.026109784841537476,0.02149432897567749,0.12047086656093597,9.407511711120605,-0.6572019457817078,-2.48075795173645
1403637131578319000,0.014080554246902466,0.024958837777376175,0.12103599309921265,9.480634689331055,-0.3792667090892792,-2.529695749282837
1403637131583319000,0.002086285501718521,0.01932748779654503,0.12875832617282867,9.406603813171387,-0.265805184841156,-2.471684217453003
1403637131588319000,-0.015492882579565048,0.019977599382400513,0.12324720621109009,9.52875804901123,-0.34062233567237854,-2.4380760192871094
1403637131593319000,-0.020464831963181496,0.012272745370864868,0.10993319004774094,9.552875518798828,-0.6768223643302917,-2.3073031902313232
1403637131598319000,-0.009195707738399506,0.008797340095043182,0.0910041481256485,9.659042358398438,-0.931566596031189,-2.2983222007751465
1403637131603319000,0.010575879365205765,0.015308517962694168,0.08407127112150192,9.58580493927002,-1.0131343603134155,-2.3070881366729736
1403637131608319000,0.026772603392601013,0.023046843707561493,0.07855372130870819,9.626561164855957,-0.8493691682815552,-2.3646926879882812
1403637131613319000,0.0345134437084198,0.020112089812755585,0.0821269154548645,9.471678733825684,-0.5625401735305786,-2.4303925037384033
1403637131618319000,0.029610440135002136,0.024139296263456345,0.07512544095516205,9.463799476623535,-0.3087051808834076,-2.438493251800537
1403637131623319000,0.009129557758569717,0.017886515706777573,0.07083486020565033,9.350564002990723,-0.37313026189804077,-2.453969955444336
1403637131628319000,-0.004945922642946243,0.017933793365955353,0.06097898632287979,9.392151832580566,-0.48804914951324463,-2.4866831302642822
1403637131633319000,-0.006347239017486572,0.016627948731184006,0.06039473041892052,9.400609016418457,-0.7163717150688171,-2.454157829284668
1403637131638319000,-0.001377016305923462,0.018091898411512375,0.05779951810836792,9.45789909362793,-0.8632952570915222,-2.536018133163452
1403637131643319000,0.009102791547775269,0.01529255136847496,0.05922388285398483,9.384238243103027,-0.9452043175697327,-2.496685743331909
1403637131648319000,0.01761079579591751,0.022135518491268158,0.06113366782665253,9.424946784973145,-0.7573833465576172,-2.5699453353881836
1403637131653319000,0.02050156518816948,0.018608905375003815,0.06658042222261429,9.440814018249512,-0.5929749608039856,-2.563122272491455
1403637131658319000,0.012785278260707855,0.017914950847625732,0.06794233620166779,9.497556686401367,-0.4788673520088196,-2.562771797180176
1403637131663319000,0.0057795047760009766,0.013742458075284958,0.07505355775356293,9.415726661682129,-0.4139374792575836,-2.480914354324341
1403637131668319000,-0.005498316138982773,0.014522440731525421,0.07658299803733826,9.309975624084473,-0.5198056697845459,-2.4140818119049072
1403637131673319000,-0.006201207637786865,0.002590484917163849,0.08073888719081879,9.448729515075684,-0.561194896697998,-2.4221994876861572
1403637131678319000,-0.008331213146448135,0.0172664076089859,0.08066774159669876,9.546014785766602,-0.561475932598114,-2.4712612628936768
1403637131683319000,-0.008307293057441711,0.020136043429374695,0.08062848448753357,9.60271167755127,-0.5614528656005859,-2.480211019515991
1403637131688319000,-0.009663760662078857,0.03061211109161377,0.07712771743535995,9.57033634185791,-0.5700821280479431,-2.504512071609497
1403637131693319000,-0.008911831304430962,0.031252652406692505,0.07925164699554443,9.504828453063965,-0.6027541756629944,-2.471694231033325
1403637131698319000,-0.008847914636135101,0.03402058780193329,0.0722796767950058,9.447735786437988,-0.5859808325767517,-2.4462640285491943
1403637131703319000,-0.008107777684926987,0.025617428123950958,0.06386568397283554,9.366788864135742,-0.5282156467437744,-2.4621827602386475
1403637131708319000,-0.009521203115582466,0.022086001932621002,0.06041284650564194,9.359292030334473,-0.48702022433280945,-2.470522165298462
1403637131713319000,-0.010285116732120514,0.01445649191737175,0.055564943701028824,9.490126609802246,-0.5361902713775635,-2.4955856800079346
1403637131718319000,-0.015997568145394325,0.020844578742980957,0.048580341041088104,9.48166275024414,-0.6425064206123352,-2.4878783226013184
1403637131723319000,-0.017451882362365723,0.01871681958436966,0.04934639111161232,9.4815034866333,-0.7485995292663574,-2.4389805793762207
1403637131728319000,-0.013923007994890213,0.020124435424804688,0.05082590505480766,9.318406105041504,-0.8217253088951111,-2.3729472160339355
1403637131733319000,-0.006147224456071854,0.013086702674627304,0.05212681367993355,9.42447566986084,-0.7892942428588867,-2.3810606002807617
1403637131738319000,-0.003369450569152832,0.01867842674255371,0.06047292798757553,9.440485954284668,-0.7726472020149231,-2.3976352214813232
1403637131743319000,-0.00621873140335083,0.017305422574281693,0.06049950420856476,9.5463228225708,-0.6829885840415955,-2.414487361907959
1403637131748319000,-0.006167370826005936,0.024370230734348297,0.07236241549253464,9.464972496032715,-0.641550600528717,-2.496006965637207
1403637131753319000,-0.01178700104355812,0.026480354368686676,0.07511775195598602,9.522014617919922,-0.657905101776123,-2.5455963611602783
1403637131758319000,-0.015344075858592987,0.03413783013820648,0.07856135070323944,9.44852066040039,-0.8541055917739868,-2.5618388652801514
1403637131763319000,-0.006965845823287964,0.03826414793729782,0.07928130030632019,9.505495071411133,-1.091721534729004,-2.5050432682037354
1403637131768319000,0.0013933628797531128,0.0348837673664093,0.08495229482650757,9.170331954956055,-1.140889048576355,-2.2011635303497314
1403637131773319000,0.018268145620822906,0.008912324905395508,0.0940237045288086,9.147086143493652,-1.0095776319503784,-2.2560441493988037
1403637131778319000,0.02947298437356949,0.0010841675102710724,0.10798709839582443,9.310358047485352,-0.8052966594696045,-2.356323480606079
1403637131783319000,0.022478461265563965,-0.0038476288318634033,0.1050613597035408,9.595090866088867,-0.5201076865196228,-2.5373616218566895
1403637131788319000,0.015455279499292374,0.011679433286190033,0.10915667563676834,9.626898765563965,-0.3812112510204315,-2.5474812984466553
1403637131793319000,0.005615781992673874,0.02226494997739792,0.10987565666437149,9.716268539428711,-0.35751578211784363,-2.5136451721191406
1403637131798319000,-0.009798835963010788,0.03205382823944092,0.10925178229808807,9.503750801086426,-0.4071030616760254,-2.479130506515503
1403637131803319000,-0.01258239895105362,0.034653544425964355,0.11076363921165466,9.593388557434082,-0.4895603656768799,-2.4623324871063232
1403637131808319000,-0.009724853560328484,0.03808889538049698,0.11082589626312256,9.422780990600586,-0.6447449326515198,-2.4700326919555664
1403637131813319000,-0.00473424419760704,0.034728966653347015,0.09878458827733994,9.382861137390137,-0.6698142886161804,-2.4460694789886475
1403637131818319000,0.0015685297548770905,0.020899057388305664,0.08674880862236023,9.245141983032227,-0.6526184678077698,-2.397010564804077
1403637131823319000,0.010048415511846542,0.010298378765583038,0.07139746844768524,9.408331871032715,-0.6031966209411621,-2.422123908996582
1403637131828319000,0.008694075047969818,0.006709747016429901,0.06533341109752655,9.285479545593262,-0.4394434094429016,-2.38138747215271
1403637131833319000,0.0037519745528697968,0.0003047846257686615,0.05492405965924263,9.554893493652344,-0.3243652582168579,-2.4632644653320312
1403637131838319000,-0.005461737513542175,0.0031934455037117004,0.052830103784799576,9.554662704467773,-0.37279319763183594,-2.480111837387085
1403637131843319000,-0.011732494458556175,0.010283943265676498,0.050733935087919235,9.684623718261719,-0.357331246137619,-2.520599126815796
1403637131848319000,-0.018813129514455795,0.019463829696178436,0.05347147583961487,9.603182792663574,-0.5116980671882629,-2.512424945831299
1403637131853319000,-0.022320762276649475,0.02921837568283081,0.05624127388000488,9.635924339294434,-0.6344428062438965,-2.5693836212158203
1403637131858319000,-0.019455641508102417,0.03907044976949692,0.06051741540431976,9.489273071289062,-0.7814857959747314,-2.5698137283325195
1403637131863319000,-0.013105195015668869,0.044017255306243896,0.06192521005868912,9.399925231933594,-0.8953542113304138,-2.5370724201202393
1403637131868319000,-0.008885692805051804,0.03764954209327698,0.07099157571792603,9.155714988708496,-0.8702728748321533,-2.4795408248901367
1403637131873319000,-0.0018268264830112457,0.023485086858272552,0.07863981276750565,9.180456161499023,-0.6738585829734802,-2.430250644683838
1403637131878319000,-0.0046865977346897125,0.0066713690757751465,0.08491244912147522,9.155982971191406,-0.5993527770042419,-2.4056572914123535
1403637131883319000,-0.011039074510335922,-0.0024708695709705353,0.08553913980722427,9.490102767944336,-0.5025335550308228,-2.4558286666870117
1403637131888319000,-0.017482241615653038,0.003280874341726303,0.07919277995824814,9.505746841430664,-0.6577842235565186,-2.4072794914245605
1403637131893319000,-0.011790677905082703,0.005445010960102081,0.07494373619556427,9.692963600158691,-0.7156832814216614,-2.496846914291382
1403637131898319000,-0.004819925874471664,0.01949296146631241,0.08137555420398712,9.643082618713379,-0.8547208905220032,-2.4155681133270264
1403637131903319000,0.002163343131542206,0.027121152728796005,0.08146292716264725,9.642475128173828,-0.8391141295433044,-2.4220385551452637
1403637131908319000,0.009894028306007385,0.037576280534267426,0.08843199908733368,9.495975494384766,-0.765488862991333,-2.43830943107605
1403637131913319000,0.0063659027218818665,0.038971588015556335,0.08623526245355606,9.504903793334961,-0.6999964118003845,-2.4869556427001953
1403637131918319000,0.0028461888432502747,0.039058759808540344,0.09175954759120941,9.228010177612305,-0.683290421962738,-2.4542593955993652
1403637131923319000,0.004282582551240921,0.024300627410411835,0.09248799085617065,9.310420036315918,-0.6591243147850037,-2.4869890213012695
1403637131928319000,0.003611050546169281,0.017190944403409958,0.09186558425426483,9.302372932434082,-0.6750357151031494,-2.4874401092529297
1403637131933319000,6.776303052902222e-05,0.011548791080713272,0.08913581818342209,9.3998441696167,-0.6019204258918762,-2.4959394931793213
1403637131938319000,4.842877388000488e-06,0.01025300845503807,0.08489203453063965,9.326678276062012,-0.6507218480110168,-2.471829652786255
1403637131943319000,0.0021679922938346863,0.01306426152586937,0.07705593854188919,9.522320747375488,-0.6272176504135132,-2.471980333328247
1403637131948319000,0.00217481330037117,0.014512304216623306,0.06517469882965088,9.44856071472168,-0.7004714608192444,-2.463641405105591
1403637131953319000,0.00712970644235611,0.017259322106838226,0.06105636805295944,9.578755378723145,-0.651964545249939,-2.4640116691589355
1403637131958319000,0.009964294731616974,0.020803019404411316,0.06330237537622452,9.383086204528809,-0.626953661441803,-2.4224836826324463
1403637131963319000,0.012072976678609848,0.01588115096092224,0.05976128578186035,9.546143531799316,-0.5376298427581787,-2.406111240386963
1403637131968319000,0.004901982843875885,0.018753431737422943,0.05833831802010536,9.488449096679688,-0.5457334518432617,-2.2994296550750732
1403637131973319000,0.0013788789510726929,0.013154782354831696,0.054871074855327606,9.439453125,-0.5540734529495239,-2.2737112045288086
1403637131978319000,-0.0014395341277122498,0.004021462053060532,0.05628685653209686,9.36670207977295,-0.6598800420761108,-2.224682569503784
1403637131983319000,-0.002089567482471466,0.001115262508392334,0.0485588014125824,9.603367805480957,-0.6440495848655701,-2.3062615394592285
1403637131988319000,-0.002712804824113846,0.008161500096321106,0.042295411229133606,9.586556434631348,-0.5209059715270996,-2.3804259300231934
1403637131993319000,-0.007571563124656677,0.01591157168149948,0.03956928104162216,9.652021408081055,-0.447014719247818,-2.446174383163452
1403637131998319000,-0.014568649232387543,0.028588373214006424,0.049369290471076965,9.432194709777832,-0.512166440486908,-2.462392807006836
1403637132003319000,-0.015918664634227753,0.036230288445949554,0.05209212005138397,9.546540260314941,-0.5618220567703247,-2.51959228515625
1403637132008319000,-0.01655128225684166,0.03827446699142456,0.057663436979055405,9.44094181060791,-0.7074131369590759,-2.6586544513702393
1403637132013319000,-0.012987544760107994,0.044493548572063446,0.05694578215479851,9.392372131347656,-0.7237874865531921,-2.676513433456421
1403637132018319000,-0.009549286216497421,0.033371105790138245,0.05898727476596832,9.156543731689453,-0.7480361461639404,-2.5620169639587402
1403637132023319000,-0.00745464488863945,0.02004081755876541,0.06528648734092712,9.303566932678223,-0.6745332479476929,-2.6027488708496094
1403637132028319000,-0.006100580096244812,0.01024874672293663,0.06963717192411423,9.131762504577637,-0.6494826078414917,-2.562549591064453
1403637132033319000,-0.013901796191930771,0.0004139617085456848,0.07106334716081619,9.33575439453125,-0.6497127413749695,-2.522406816482544
1403637132038319000,-0.013230372220277786,-0.0036958642303943634,0.07375714182853699,9.319252014160156,-0.7804856896400452,-2.4328649044036865
1403637132043319000,-0.013229716569185257,-0.0015739649534225464,0.08063913881778717,9.554553985595703,-0.7570555210113525,-2.3833529949188232
1403637132048319000,-0.004804268479347229,0.004102226346731186,0.08907271921634674,9.60223388671875,-0.7730779647827148,-2.3093364238739014
1403637132053319000,-0.0006451569497585297,0.009633548557758331,0.08698879182338715,9.723554611206055,-0.6921693086624146,-2.2842164039611816
1403637132058319000,0.004273202270269394,0.017312906682491302,0.09048417210578918,9.609145164489746,-0.6351060271263123,-2.29123854637146
1403637132063319000,0.0007496438920497894,0.027826447039842606,0.07851651310920715,9.699234008789062,-0.561845600605011,-2.3559117317199707
1403637132068319000,-0.003404676914215088,0.03906640410423279,0.08125635981559753,9.552680015563965,-0.4715833067893982,-2.412501811981201
1403637132073319000,-0.01038767583668232,0.03896848112344742,0.07440252602100372,9.545230865478516,-0.44718602299690247,-2.4532272815704346
1403637132078319000,-0.014584461227059364,0.03824052959680557,0.07450482249259949,9.309473991394043,-0.5206377506256104,-2.4119696617126465
1403637132083319000,-0.01390598714351654,0.028373688459396362,0.07170582562685013,9.383602142333984,-0.676433265209198,-2.4202563762664795
1403637132088319000,-0.006197504699230194,0.02556849643588066,0.07019948959350586,9.310483932495117,-0.8150178790092468,-2.420701503753662
1403637132093319000,0.0036789551377296448,0.01929550990462303,0.06804422289133072,9.367655754089355,-0.741292417049408,-2.4541091918945312
1403637132098319000,0.009270060807466507,0.013066917657852173,0.07021722197532654,9.327094078063965,-0.6750547289848328,-2.44685697555542
1403637132103319000,0.009290266782045364,0.00951099768280983,0.061826854944229126,9.530678749084473,-0.47141581773757935,-2.4800946712493896
1403637132108319000,0.00011045858263969421,0.006002336740493774,0.06396149098873138,9.464704513549805,-0.42195355892181396,-2.447648286819458
1403637132113319000,-0.009675050154328346,0.010177098214626312,0.059065401554107666,9.652132987976074,-0.3243195712566376,-2.4802236557006836
1403637132118319000,-0.018071556463837624,0.018711484968662262,0.0660758689045906,9.54570484161377,-0.3158894181251526,-2.4391050338745117
1403637132123319000,-0.032055120915174484,0.02506626397371292,0.057709209620952606,9.602800369262695,-0.2836175858974457,-2.4789998531341553
1403637132128319000,-0.03838353231549263,0.027176745235919952,0.055562105029821396,9.52988338470459,-0.5041499733924866,-2.487609624862671
1403637132133319000,-0.03764022886753082,0.0327020138502121,0.0506882481276989,9.538323402404785,-0.7092694640159607,-2.512153148651123
1403637132138319000,-0.027050698176026344,0.033414363861083984,0.05069010704755783,9.41646671295166,-0.9534271955490112,-2.496273994445801
1403637132143319000,-0.015092363581061363,0.03479810059070587,0.049303144216537476,9.441469192504883,-1.0343937873840332,-2.54534649848938
1403637132148319000,-0.0017542093992233276,0.036919817328453064,0.06268399208784103,9.302765846252441,-1.0333784818649292,-2.5703775882720947
1403637132153319000,0.0010018795728683472,0.03477390855550766,0.07104349136352539,9.335471153259277,-0.8777838945388794,-2.6033425331115723
1403637132158319000,0.004346087574958801,0.02705616131424904,0.0884380042552948,9.058156967163086,-0.9663942456245422,-2.5216140747070312
1403637132163319000,0.009876102209091187,0.016461174935102463,0.10024488717317581,9.22972583770752,-0.9264227747917175,-2.505054235458374
1403637132168319000,0.013325992971658707,0.0095265693962574,0.11212148517370224,9.213057518005371,-0.9013649821281433,-2.4968199729919434
1403637132173319000,0.016074255108833313,0.003254041075706482,0.11835487186908722,9.481207847595215,-0.7467100620269775,-2.4729485511779785
1403637132178319000,0.015981309115886688,0.006816912442445755,0.12391149997711182,9.512923240661621,-0.6743504405021667,-2.3911309242248535
1403637132183319000,0.013876955956220627,0.005414992570877075,0.12180361151695251,9.658751487731934,-0.5863858461380005,-2.374199628829956
1403637132188319000,0.01319296658039093,0.014515239745378494,0.11689746379852295,9.592665672302246,-0.5543451905250549,-2.2999322414398193
1403637132193319000,0.013277221471071243,0.02145124226808548,0.10916116833686829,9.649590492248535,-0.5061792135238647,-2.315157890319824
1403637132198319000,0.016854222863912582,0.022868242114782333,0.10150294005870819,9.527608871459961,-0.547211229801178,-2.306694269180298
1403637132203319000,0.019078131765127182,0.027679748833179474,0.09452354907989502,9.683212280273438,-0.3522174060344696,-2.420531988143921
1403637132208319000,0.008512362837791443,0.03472357988357544,0.08269134163856506,9.57760238647461,-0.31815606355667114,-2.478100061416626
1403637132213319000,0.005043007433414459,0.035408906638622284,0.07012291997671127,9.55358600616455,-0.3020075261592865,-2.50266432762146
1403637132218319000,-0.006143640726804733,0.033305197954177856,0.06251570582389832,9.326188087463379,-0.3097701668739319,-2.5266926288604736
1403637132223319000,-0.010965816676616669,0.024851858615875244,0.05347412824630737,9.37571907043457,-0.32540181279182434,-2.535212278366089
1403637132228319000,-0.020114697515964508,0.02069234475493431,0.044428806751966476,9.31932258605957,-0.4714878797531128,-2.5846872329711914
1403637132233319000,-0.0228579118847847,0.018598437309265137,0.03677712380886078,9.425606727600098,-0.5212101936340332,-2.569950819015503
1403637132238319000,-0.022136574611067772,0.017315566539764404,0.03189472109079361,9.336210250854492,-0.626164436340332,-2.537371873855591
1403637132243319000,-0.018638597801327705,0.015984974801540375,0.03255858272314072,9.417755126953125,-0.7644320726394653,-2.5545103549957275
1403637132248319000,-0.01168186403810978,0.013210561126470566,0.0417260006070137,9.262189865112305,-0.9519777297973633,-2.4323320388793945
1403637132253319000,-0.004761930555105209,0.009653110057115555,0.04244361072778702,9.39222240447998,-1.0744240283966064,-2.3010103702545166
1403637132258319000,0.006412699818611145,0.0076077766716480255,0.05497368052601814,9.342869758605957,-1.1305782794952393,-2.2591495513916016
1403637132263319000,0.016881953924894333,0.0012878179550170898,0.07378992438316345,9.545906066894531,-0.9511224627494812,-2.275691509246826
1403637132268319000,0.018206894397735596,0.006916288286447525,0.09122011065483093,9.520769119262695,-0.8034418821334839,-2.291743755340576
1403637132273319000,0.011096406728029251,0.009650364518165588,0.09462371468544006,9.6260404586792,-0.6166277527809143,-2.275470018386841
1403637132278319000,0.006182629615068436,0.01239452138543129,0.10297669470310211,9.568732261657715,-0.5435997247695923,-2.2985851764678955
1403637132283319000,0.001313135027885437,0.022142596542835236,0.10154753923416138,9.650239944458008,-0.5362873077392578,-2.3554534912109375
1403637132288319000,0.00347292423248291,0.024966266006231308,0.09795862436294556,9.569025039672852,-0.6024317145347595,-2.387925386428833
1403637132293319000,0.0056855082511901855,0.030509091913700104,0.09030142426490784,9.60252857208252,-0.5462417006492615,-2.534926176071167
1403637132298319000,0.00929395854473114,0.038920409977436066,0.0855584368109703,9.43173885345459,-0.46432700753211975,-2.5765554904937744
1403637132303319000,0.0008918754756450653,0.03962765634059906,0.07573619484901428,9.407934188842773,-0.35835590958595276,-2.642000913619995
1403637132308319000,-0.009624417871236801,0.036820292472839355,0.07568195462226868,9.22901439666748,-0.3500880002975464,-2.6427977085113525
1403637132313319000,-0.01306365430355072,0.025536157190799713,0.07232096791267395,9.253898620605469,-0.4074423909187317,-2.586042881011963
1403637132318319000,-0.019406680017709732,0.022097166627645493,0.07525037974119186,9.189111709594727,-0.6763690114021301,-2.537367820739746
1403637132323319000,-0.01873709261417389,0.008821096271276474,0.07732231914997101,9.425619125366211,-0.8399814367294312,-2.5385959148406982
1403637132328319000,-0.008962582796812057,0.006098967045545578,0.08358658850193024,9.383899688720703,-0.9614206552505493,-2.4328250885009766
1403637132333319000,-0.0012527033686637878,0.006877206265926361,0.09196349233388901,9.52177619934082,-0.9933308959007263,-2.40813946723938
1403637132338319000,0.007816698402166367,0.010419093072414398,0.10031586140394211,9.49644947052002,-0.9522030353546143,-2.342783212661743
1403637132343319000,0.0148208849132061,0.011690512299537659,0.11001547425985336,9.6586275100708,-0.7805607914924622,-2.3663744926452637
1403637132348319000,0.01410955935716629,0.020781133323907852,0.11416496336460114,9.617281913757324,-0.6573184132575989,-2.333364248275757
1403637132353319000,0.007013857364654541,0.02431832253932953,0.11689034104347229,9.592804908752441,-0.5680678486824036,-2.315645933151245
1403637132358319000,0.006972365081310272,0.03272491693496704,0.12110601365566254,9.478873252868652,-0.5768122673034668,-2.2899487018585205
1403637132363319000,0.01193220540881157,0.029158897697925568,0.11829342693090439,9.55286693572998,-0.6345324516296387,-2.395522356033325
1403637132368319000,0.011913906782865524,0.03405746817588806,0.11618468165397644,9.439043998718262,-0.6838162541389465,-2.4615063667297363
1403637132373319000,0.020396344363689423,0.03677456080913544,0.11056561768054962,9.496856689453125,-0.5619354844093323,-2.5600080490112305
1403637132378319000,0.016933687031269073,0.03602004051208496,0.11200498044490814,9.309706687927246,-0.398147851228714,-2.5931174755096436
1403637132383319000,0.010695084929466248,0.030399642884731293,0.10712121427059174,9.33464241027832,-0.29219943284988403,-2.68320631980896
1403637132388319000,0.002931687980890274,0.025516588240861893,0.10153403878211975,9.326708793640137,-0.3417103588581085,-2.6273396015167236
1403637132393319000,-0.005444251000881195,0.0220455564558506,0.08407343924045563,9.351203918457031,-0.3991343677043915,-2.5698115825653076
1403637132398319000,-0.008921638131141663,0.01091659814119339,0.07150973379611969,9.245590209960938,-0.4637810289859772,-2.4881436824798584
1403637132403319000,-0.00963796116411686,0.003942091017961502,0.06460586190223694,9.425122261047363,-0.48835259675979614,-2.455597400665283
1403637132408319000,-0.011052209883928299,0.0033418722450733185,0.059844162315130234,9.456913948059082,-0.5455825328826904,-2.398895502090454
1403637132413319000,-0.015248419716954231,0.0005176588892936707,0.05219513922929764,9.56230640411377,-0.4804759621620178,-2.3580846786499023
1403637132418319000,-0.014545407146215439,0.0054182372987270355,0.04373606666922569,9.57023811340332,-0.5368250012397766,-2.2760531902313232
1403637132423319000,-0.010308327153325081,0.009668789803981781,0.03591013699769974,9.67609977722168,-0.6838153004646301,-2.324209213256836
1403637132428319000,-0.010324522852897644,0.02301223948597908,0.03523050248622894,9.667330741882324,-0.724962592124939,-2.3079168796539307
1403637132433319000,-0.011746933683753014,0.029945485293865204,0.03536443039774895,9.683869361877441,-0.682976484298706,-2.3801891803741455
1403637132438319000,-0.013845382258296013,0.036229729652404785,0.044602956622838974,9.472338676452637,-0.6408191323280334,-2.420931816101074
1403637132443319000,-0.015966521576046944,0.03551369905471802,0.04593466594815254,9.456808090209961,-0.682110607624054,-2.453385829925537
1403637132448319000,-0.01530035026371479,0.034084171056747437,0.05554129555821419,9.31052303314209,-0.8045517206192017,-2.4861667156219482
1403637132453319000,-0.011776721104979515,0.022823594510555267,0.0597061887383461,9.278270721435547,-0.7882912158966064,-2.4703783988952637
1403637132458319000,-0.008969511836767197,0.01935606077313423,0.0646355152130127,9.21346378326416,-0.7796040773391724,-2.429502248764038
1403637132463319000,0.0022485703229904175,0.006071843206882477,0.07026615738868713,9.319477081298828,-0.8047242164611816,-2.454793930053711
1403637132468319000,0.005728673189878464,0.007451999932527542,0.07584604620933533,9.384236335754395,-0.7322260141372681,-2.4965901374816895
1403637132473319000,0.005711965262889862,0.008159253746271133,0.07785791158676147,9.497904777526855,-0.6583996415138245,-2.5300710201263428
1403637132478319000,0.0035329200327396393,0.01664147898554802,0.08131659775972366,9.432220458984375,-0.7071306705474854,-2.4894816875457764
1403637132483319000,8.121132850646973e-06,0.011731669306755066,0.08764033019542694,9.546014785766602,-0.6922638416290283,-2.456526279449463
1403637132488319000,-0.0035424865782260895,0.022237110882997513,0.09329056739807129,9.488424301147461,-0.7982783913612366,-2.4230260848999023
1403637132493319000,0.0027870573103427887,0.0194622203707695,0.09958025068044662,9.463340759277344,-0.7579541802406311,-2.3164713382720947
1403637132498319000,0.008462924510240555,0.0201236754655838,0.10095219314098358,9.431010246276855,-0.6680519580841064,-2.298858404159546
1403637132503319000,0.013377286493778229,0.01517622172832489,0.10370414704084396,9.528698921203613,-0.6108173727989197,-2.3236215114593506
1403637132508319000,0.013386569917201996,0.015845194458961487,0.09031306207180023,9.553316116333008,-0.49683836102485657,-2.4215807914733887
1403637132513319000,0.0035443566739559174,0.017231427133083344,0.0791030004620552,9.545417785644531,-0.47215035557746887,-2.446850061416626
1403637132518319000,-0.0034311041235923767,0.017908014357089996,0.06808943301439285,9.447761535644531,-0.4230824410915375,-2.372605800628662
1403637132523319000,-0.006901446729898453,0.012351036071777344,0.061896972358226776,9.407438278198242,-0.4559095501899719,-2.379629611968994
1403637132528319000,-0.008241742849349976,0.017240654677152634,0.057718053460121155,9.529958724975586,-0.4808376729488373,-2.412698984146118
1403637132533319000,-0.006821151822805405,0.01583302766084671,0.06123797595500946,9.529833793640137,-0.4888917803764343,-2.4457406997680664
1403637132538319000,-0.008919613435864449,0.021465085446834564,0.05068499967455864,9.489323616027832,-0.423277884721756,-2.43802547454834
1403637132543319000,-0.013122307136654854,0.01802205666899681,0.04778290539979935,9.489706993103027,-0.43909701704978943,-2.4543371200561523
1403637132548319000,-0.017322171479463577,0.021509528160095215,0.03735320270061493,9.522125244140625,-0.5047261118888855,-2.4547343254089355
1403637132553319000,-0.01511208713054657,0.025674208998680115,0.029741428792476654,9.538451194763184,-0.5127191543579102,-2.503887176513672
1403637132558319000,-0.022148892283439636,0.024974171072244644,0.02567024528980255,9.473748207092285,-0.5768975019454956,-2.520728826522827
1403637132563319000,-0.018679991364479065,0.02502889186143875,0.024268411099910736,9.409188270568848,-0.7561023831367493,-2.5534679889678955
1403637132568319000,-0.019438911229372025,0.027158543467521667,0.03404589742422104,9.352090835571289,-0.7973678112030029,-2.529329776763916
1403637132573319000,-0.010996781289577484,0.02292066067457199,0.04869450628757477,9.303020477294922,-0.8615241050720215,-2.5208640098571777
1403637132578319000,-0.010323014110326767,0.021456122398376465,0.05557901784777641,9.360030174255371,-0.7388110160827637,-2.5049426555633545
1403637132583319000,-0.007545258849859238,0.014485515654087067,0.06603799015283585,9.33539867401123,-0.7711814641952515,-2.5049703121185303
1403637132588319000,-0.008272729814052582,0.013102136552333832,0.07302162051200867,9.416729927062988,-0.7718347907066345,-2.5136544704437256
1403637132593319000,-0.009048011153936386,0.009606514126062393,0.07579467445611954,9.464887619018555,-0.7559347152709961,-2.3911445140838623
1403637132598319000,-0.006962459534406662,0.00961032509803772,0.08072306215763092,9.472283363342285,-0.739502489566803,-2.3407468795776367
1403637132603319000,-0.0055803172290325165,0.00897081196308136,0.08216777443885803,9.45586109161377,-0.7399947643280029,-2.3159966468811035
1403637132608319000,-0.006270349025726318,0.009617418050765991,0.0764676183462143,9.594720840454102,-0.7165771126747131,-2.389249324798584
1403637132613319000,0.0014667920768260956,0.011695493012666702,0.08198188990354538,9.577919960021973,-0.7083731889724731,-2.4143667221069336
1403637132618319000,0.0021819956600666046,0.026411261409521103,0.08622228354215622,9.63497257232666,-0.6922857761383057,-2.471285820007324
1403637132623319000,0.0042976923286914825,0.030675556510686874,0.09259520471096039,9.471945762634277,-0.6759933829307556,-2.4628946781158447
1403637132628319000,0.006393119692802429,0.03550688177347183,0.09398510307073593,9.44749927520752,-0.6273085474967957,-2.429546356201172
1403637132633319000,0.007090240716934204,0.03122863918542862,0.09602376818656921,9.407325744628906,-0.716713547706604,-2.4946725368499756
1403637132638319000,0.0035329945385456085,0.03327622264623642,0.09038976579904556,9.415643692016602,-0.7253899574279785,-2.4791767597198486
1403637132643319000,0.004930026829242706,0.02630901336669922,0.0953025370836258,9.301804542541504,-0.6921765804290771,-2.4461936950683594
1403637132648319000,0.0042550936341285706,0.020713243633508682,0.1003260686993599,9.391871452331543,-0.6998825669288635,-2.4794845581054688
1403637132653319000,0.0007212087512016296,0.01518351212143898,0.1115901991724968,9.358697891235352,-0.7247722148895264,-2.4473302364349365
1403637132658319000,9.745359420776367e-06,0.013036929070949554,0.11494369059801102,9.488927841186523,-0.7494904398918152,-2.472203493118286
1403637132663319000,0.004968911409378052,0.014432746917009354,0.12320029735565186,9.447704315185547,-0.7653616666793823,-2.4154279232025146
1403637132668319000,0.0099443718791008,0.015843991190195084,0.12946787476539612,9.577881813049316,-0.7165012359619141,-2.447481632232666
1403637132673319000,0.012727715075016022,0.02432963252067566,0.12946635484695435,9.487654685974121,-0.626659095287323,-2.4065654277801514
1403637132678319000,0.011358153074979782,0.028473086655139923,0.11683602631092072,9.553213119506836,-0.47961100935935974,-2.495609998703003
1403637132683319000,0.00574541836977005,0.03053361549973488,0.10639756172895432,9.415009498596191,-0.4384744167327881,-2.5123250484466553
1403637132688319000,0.00016763806343078613,0.03257717937231064,0.09241704642772675,9.521340370178223,-0.3329898416996002,-2.5365023612976074
1403637132693319000,-0.0019327141344547272,0.030527058988809586,0.08474256843328476,9.407544136047363,-0.4224901795387268,-2.5528526306152344
1403637132698319000,-0.003332633525133133,0.024208322167396545,0.0757652074098587,9.440479278564453,-0.5131279230117798,-2.528589963912964
1403637132703319000,0.0022699832916259766,0.022839006036520004,0.07025150954723358,9.318438529968262,-0.603154718875885,-2.4628970623016357
1403637132708319000,0.005758192390203476,0.01583246886730194,0.05826891213655472,9.457433700561523,-0.6273368000984192,-2.5120108127593994
1403637132713319000,0.002903982996940613,0.014442764222621918,0.06033077836036682,9.465436935424805,-0.6920723915100098,-2.537476062774658
1403637132718319000,0.0021933354437351227,0.015853725373744965,0.06258141249418259,9.497694969177246,-0.700434148311615,-2.5052995681762695
1403637132723319000,0.0035704299807548523,0.012431509792804718,0.07952260226011276,9.407623291015625,-0.7976388335227966,-2.390784978866577
1403637132728319000,0.0007571429014205933,0.017335951328277588,0.09209603071212769,9.488832473754883,-0.8137658834457397,-2.389761447906494
1403637132733319000,0.0027974173426628113,0.016667090356349945,0.11224568635225296,9.44699764251709,-0.8296492695808411,-2.291700839996338
1403637132738319000,0.004897303879261017,0.018737956881523132,0.12115336954593658,9.552809715270996,-0.7969356179237366,-2.3072750568389893
1403637132743319000,0.0035045109689235687,0.022248636931180954,0.12240032106637955,9.471189498901367,-0.7152993679046631,-2.2828588485717773
1403637132748319000,0.002828400582075119,0.018634919077157974,0.11328572034835815,9.601638793945312,-0.5360873937606812,-2.298637628555298
1403637132753319000,0.009225066751241684,0.022822268307209015,0.10427317768335342,9.544468879699707,-0.4950564503669739,-2.3229618072509766
1403637132758319000,0.0015466511249542236,0.02134958654642105,0.09034879505634308,9.65059757232666,-0.3658325672149658,-2.3638224601745605
1403637132763319000,-0.0005317665636539459,0.022764019668102264,0.07638771086931229,9.545114517211914,-0.30860212445259094,-2.4041452407836914
1403637132768319000,-0.004031777381896973,0.026274193078279495,0.06032105162739754,9.643587112426758,-0.3253122866153717,-2.4861316680908203
1403637132773319000,-0.008914271369576454,0.032652921974658966,0.04637211561203003,9.497307777404785,-0.4320247769355774,-2.4945764541625977
1403637132778319000,-0.013139968737959862,0.03267659246921539,0.042253103107213974,9.432549476623535,-0.47318235039711,-2.494511604309082
1403637132783319000,-0.010326862335205078,0.03128402680158615,0.043100953102111816,9.270232200622559,-0.5864643454551697,-2.478386878967285
1403637132788319000,-0.010963082313537598,0.02493678778409958,0.0431700199842453,9.35234260559082,-0.6272487640380859,-2.5607190132141113
1403637132793319000,-0.008919751271605492,0.022870022803544998,0.04173263907432556,9.33612060546875,-0.7735404968261719,-2.5623080730438232
1403637132798319000,-0.00897238403558731,0.019381769001483917,0.04091652110219002,9.434066772460938,-0.8629434108734131,-2.587552070617676
1403637132803319000,-0.008303515613079071,0.01806255802512169,0.045805923640728,9.3604097366333,-1.0088862180709839,-2.5146241188049316
1403637132808319000,0.004344712942838669,0.010333646088838577,0.06123875454068184,9.522648811340332,-1.0250576734542847,-2.4652786254882812
1403637132813319000,0.016973350197076797,0.011002428829669952,0.08230123668909073,9.382941246032715,-0.9100164771080017,-2.431942939758301
1403637132818319000,0.01624353602528572,0.010945335030555725,0.09756418317556381,9.448062896728516,-0.656563401222229,-2.480569362640381
1403637132823319000,0.0049079470336437225,0.020085442811250687,0.1092228814959526,9.464284896850586,-0.4931972026824951,-2.4724481105804443
1403637132828319000,-0.004899352788925171,0.02852880209684372,0.10973520576953888,9.586400032043457,-0.49427029490470886,-2.5782575607299805
1403637132833319000,-0.008319295942783356,0.03414037823677063,0.1097789853811264,9.439338684082031,-0.5117019414901733,-2.513272523880005
1403637132838319000,-0.007618112489581108,0.0326605886220932,0.10295853018760681,9.423043251037598,-0.5777593851089478,-2.3729496002197266
1403637132843319000,-0.0019564442336559296,0.03258151561021805,0.10167677700519562,9.358025550842285,-0.6027565598487854,-2.387953996658325
1403637132848319000,0.000867798924446106,0.02135545015335083,0.09679512679576874,9.431539535522461,-0.5627949833869934,-2.4374938011169434
1403637132853319000,-0.004091460257768631,0.02489962801337242,0.08687101304531097,9.472411155700684,-0.49754074215888977,-2.405362367630005
1403637132858319000,-0.00617198646068573,0.020036786794662476,0.08332175761461258,9.554099082946777,-0.4727846384048462,-2.4465243816375732
1403637132863319000,-0.018091324716806412,0.02706407755613327,0.08840306103229523,9.504755973815918,-0.5379697680473328,-2.3977768421173096
1403637132868319000,-0.019405875355005264,0.027712225914001465,0.09620624780654907,9.610448837280273,-0.595116376876831,-2.4136502742767334
1403637132873319000,-0.019442496821284294,0.03540557622909546,0.10251554101705551,9.577467918395996,-0.708645761013031,-2.4140424728393555
1403637132878319000,-0.01311374269425869,0.038234248757362366,0.10452257096767426,9.569280624389648,-0.7409518957138062,-2.4218690395355225
1403637132883319000,-0.00892193429172039,0.043857596814632416,0.10438565909862518,9.455828666687012,-0.7482998371124268,-2.4706602096557617
1403637132888319000,-0.003994498401880264,0.043152838945388794,0.09586630016565323,9.456063270568848,-0.6337732672691345,-2.454813003540039
1403637132893319000,-0.006080273538827896,0.04101330041885376,0.08751805871725082,9.431723594665527,-0.5190747380256653,-2.44614839553833
1403637132898319000,-0.005378782749176025,0.034674495458602905,0.07860014587640762,9.358551025390625,-0.4864530861377716,-2.42170786857605
1403637132903319000,-0.009621875360608101,0.027646884322166443,0.06321083754301071,9.400035858154297,-0.4789038896560669,-2.4216301441192627
1403637132908319000,-0.016665730625391006,0.025584489107131958,0.050554245710372925,9.416359901428223,-0.43843206763267517,-2.388887643814087
1403637132913319000,-0.01950419321656227,0.013055715709924698,0.034521088004112244,9.36767292022705,-0.4953317940235138,-2.3885340690612793
1403637132918319000,-0.020941291004419327,0.00672738254070282,0.03183439373970032,9.55553913116455,-0.6189954876899719,-2.3976871967315674
1403637132923319000,-0.020941201597452164,0.015220467001199722,0.02987552434206009,9.538614273071289,-0.7338624000549316,-2.3649942874908447
1403637132928319000,-0.0181756392121315,0.019531242549419403,0.03691304475069046,9.51384162902832,-0.920972466468811,-2.3486440181732178
1403637132933319000,-0.018882472068071365,0.02866937592625618,0.04743094742298126,9.489643096923828,-1.051140308380127,-2.3648324012756348
1403637132938319000,-0.006183907389640808,0.024457242339849472,0.06483954936265945,9.350807189941406,-1.1321076154708862,-2.3892228603363037
1403637132943319000,-0.0020003952085971832,0.027191326022148132,0.08502846956253052,9.269330024719238,-1.0904163122177124,-2.4057438373565674
1403637132948319000,-0.002750687301158905,0.020811598747968674,0.10877533257007599,9.237260818481445,-1.0813380479812622,-2.487713575363159
1403637132953319000,-0.0034829601645469666,0.022175487130880356,0.12827754020690918,9.375638008117676,-0.9671807289123535,-2.5378880500793457
1403637132958319000,-0.004873692989349365,0.022288687527179718,0.14494241774082184,9.358911514282227,-0.9341687560081482,-2.5871174335479736
1403637132963319000,-0.002057742327451706,0.020861677825450897,0.16443514823913574,9.382879257202148,-0.9185017347335815,-2.563281774520874
1403637132968319000,-0.0014468878507614136,0.006765440106391907,0.17492792010307312,9.308859825134277,-0.9113836288452148,-2.407304048538208
1403637132973319000,0.007020462304353714,-0.0017171725630760193,0.17344385385513306,9.357260704040527,-0.8388323783874512,-2.3406529426574707
1403637132978319000,0.011285465210676193,-0.010090768337249756,0.16990412771701813,9.406129837036133,-0.5945144891738892,-2.356912612915039
1403637132983319000,0.009861201047897339,-0.014237981289625168,0.1559258997440338,9.5446138381958,-0.3993018865585327,-2.3247363567352295
1403637132988319000,0.0035335980355739594,-0.023293551057577133,0.13564467430114746,9.560845375061035,-0.26154109835624695,-2.299877405166626
1403637132993319000,-0.005535349249839783,-0.01978331431746483,0.1119522824883461,9.666991233825684,-0.2543526887893677,-2.3648574352264404
1403637132998319000,-0.011145256459712982,-0.017657700926065445,0.09960396587848663,9.601325988769531,-0.32819128036499023,-2.2829172611236572
1403637133003319000,-0.016752280294895172,-0.005751144140958786,0.08502726256847382,9.560880661010742,-0.40980085730552673,-2.2977631092071533
1403637133008319000,-0.012512335553765297,-0.0063141509890556335,0.08713625371456146,9.333232879638672,-0.5724978446960449,-2.27299165725708
1403637133013319000,-0.006855182349681854,-0.002819206565618515,0.08436811715364456,9.391357421875,-0.6538696885108948,-2.3461050987243652
1403637133018319000,-0.004002455621957779,0.006217356771230698,0.08568138629198074,9.416214942932129,-0.6281461119651794,-2.453603506088257
1403637133023319000,-0.006046954542398453,0.022220700979232788,0.0813332349061966,9.579421997070312,-0.5285170674324036,-2.634648561477661
1403637133028319000,-0.010928058996796608,0.03135402500629425,0.07849467545747757,9.497987747192383,-0.5436725616455078,-2.717938184738159
1403637133033319000,-0.01931852288544178,0.041118308901786804,0.07438606023788452,9.432819366455078,-0.5435287952423096,-2.7427570819854736
1403637133038319000,-0.02003612369298935,0.037534743547439575,0.06953742355108261,9.22107219696045,-0.6160956025123596,-2.6934328079223633
1403637133043319000,-0.020067377015948296,0.029003433883190155,0.06461279094219208,9.123933792114258,-0.7217710018157959,-2.6929142475128174
1403637133048319000,-0.015161257237195969,0.013575877994298935,0.06598621606826782,9.157482147216797,-0.8201169967651367,-2.7594504356384277
1403637133053319000,-0.00037953630089759827,0.0024255290627479553,0.06236431002616882,9.532793998718262,-0.812486469745636,-2.892303943634033
1403637133058319000,0.012951523065567017,0.00604601576924324,0.055977363139390945,9.694653511047363,-0.7552759051322937,-2.9022727012634277
1403637133063319000,0.01927463710308075,0.01582617312669754,0.04125051572918892,9.979138374328613,-0.5762024521827698,-3.000422477722168
1403637133068319000,0.022035300731658936,0.03960408270359039,0.031475432217121124,10.141311645507812,-0.5028651356697083,-3.1068437099456787
1403637133073319000,0.012899234890937805,0.06691372394561768,0.022485706955194473,10.148322105407715,-0.39729297161102295,-3.1876866817474365
1403637133078319000,0.00017452239990234375,0.09910719096660614,0.030354470014572144,9.879463195800781,-0.5603178143501282,-3.1214396953582764
1403637133083319000,0.0015373453497886658,0.11232157051563263,0.042386796325445175,9.685126304626465,-0.8141242265701294,-3.0788047313690186
1403637133088319000,0.015567503869533539,0.11432154476642609,0.06899929791688919,9.310639381408691,-1.1410688161849976,-2.9145731925964355
1403637133093319000,0.04082478582859039,0.1030314713716507,0.09685689955949783,9.262151718139648,-1.3046059608459473,-2.774815320968628
1403637133098319000,0.07024505734443665,0.08685779571533203,0.11553505808115005,9.090956687927246,-1.1979866027832031,-2.700852394104004
1403637133103319000,0.08770681917667389,0.06998298317193985,0.13353902101516724,9.253779411315918,-0.8787577748298645,-2.6767702102661133
1403637133108319000,0.09388576447963715,0.06373520195484161,0.14472943544387817,9.334512710571289,-0.6821797490119934,-2.611646890640259
1403637133113319000,0.090186208486557,0.06032903492450714,0.14466355741024017,9.512731552124023,-0.6424848437309265,-2.521486759185791
1403637133118319000,0.08946678042411804,0.05750581622123718,0.15309284627437592,9.47914981842041,-0.5044779777526855,-2.4134750366210938
1403637133123319000,0.08309396356344223,0.06377243995666504,0.15944963693618774,9.649686813354492,-0.42290034890174866,-2.362971544265747
1403637133128319000,0.06403420865535736,0.06460855901241302,0.15659749507904053,9.462028503417969,-0.36640191078186035,-2.353425979614258
1403637133133319000,0.050725534558296204,0.06113007664680481,0.14595982432365417,9.64981746673584,-0.278869092464447,-2.3374433517456055
1403637133138319000,0.03322336822748184,0.054249659180641174,0.12430629134178162,9.519472122192383,-0.4258127510547638,-2.263427257537842
1403637133143319000,0.01728884130716324,0.031124278903007507,0.09643431752920151,9.609638214111328,-0.4183669090270996,-2.2800252437591553
1403637133148319000,0.0034497901797294617,0.024050939828157425,0.07846587896347046,9.748422622680664,-0.3937138319015503,-2.272716522216797
1403637133153319000,-0.006191238760948181,0.01704910397529602,0.05985991656780243,9.861501693725586,-0.42614009976387024,-2.199796199798584
1403637133158319000,-0.01803033985197544,0.010092038661241531,0.046739209443330765,9.828213691711426,-0.37780019640922546,-2.0610580444335938
1403637133163319000,-0.02776370570063591,0.018456503748893738,0.03685661405324936,10.032471656799316,-0.31170934438705444,-2.149803876876831
1403637133168319000,-0.038968611508607864,0.028375856578350067,0.022781163454055786,9.85287857055664,-0.42410561442375183,-2.1256022453308105
1403637133173319000,-0.045136697590351105,0.033233337104320526,0.009492501616477966,9.837260246276855,-0.32680657505989075,-2.1169795989990234
1403637133178319000,-0.05142362788319588,0.0466589480638504,-0.0015198513865470886,9.495887756347656,-0.325128972530365,-2.0260772705078125
1403637133183319000,-0.06054602935910225,0.03903280198574066,-0.024492956697940826,9.465113639831543,-0.34898072481155396,-2.097959280014038
1403637133188319000,-0.08313360810279846,0.03212388604879379,-0.030630238354206085,9.163962364196777,-0.4145870804786682,-1.9432834386825562
1403637133193319000,-0.09007702022790909,0.01875784993171692,-0.04317731410264969,9.157336235046387,-0.47948598861694336,-1.9907859563827515
1403637133198319000,-0.10126125067472458,0.015321489423513412,-0.05162227898836136,9.150368690490723,-0.6174185872077942,-2.049543619155884
1403637133203319000,-0.10674947500228882,0.011165149509906769,-0.05861767381429672,9.337977409362793,-0.6180555820465088,-2.156667709350586
1403637133208319000,-0.1151612251996994,0.021006405353546143,-0.06208748370409012,9.321636199951172,-0.7229967713356018,-2.25649356842041
1403637133213319000,-0.11367940902709961,0.020236961543560028,-0.06139258295297623,9.517946243286133,-0.9432176351547241,-2.4622676372528076
1403637133218319000,-0.11079874634742737,0.02994513511657715,-0.05510096997022629,9.623586654663086,-1.049338459968567,-2.644068956375122
1403637133223319000,-0.09952573478221893,0.029214147478342056,-0.03897600620985031,9.56550121307373,-1.0397597551345825,-2.7353296279907227
1403637133228319000,-0.08824533969163895,0.018714308738708496,-0.03205208480358124,9.590045928955078,-0.924688458442688,-2.850504159927368
1403637133233319000,-0.08192962408065796,0.00821690633893013,-0.026703864336013794,9.72807788848877,-0.6887750029563904,-2.900397539138794
1403637133238319000,-0.0848776251077652,-0.007877390831708908,-0.030984245240688324,9.75158405303955,-0.5500414371490479,-2.916943073272705
1403637133243319000,-0.08992210030555725,-0.018427226692438126,-0.04429259151220322,9.98819351196289,-0.49426156282424927,-2.917734384536743
1403637133248319000,-0.09418300539255142,-0.016986042261123657,-0.05539465695619583,10.020565032958984,-0.5528379678726196,-2.8519351482391357
1403637133253319000,-0.0899631530046463,-0.016951780766248703,-0.05519814044237137,10.068915367126465,-0.5867800712585449,-2.785968065261841
1403637133258319000,-0.0864877924323082,-0.005019066855311394,-0.0473509207367897,10.028016090393066,-0.6527252197265625,-2.719727039337158
1403637133263319000,-0.07456653565168381,-0.0008417554199695587,-0.03130289167165756,9.91356086730957,-0.6941120028495789,-2.637007236480713
1403637133268319000,-0.06406932324171066,0.004063166677951813,-0.015340335667133331,9.758955001831055,-0.6939177513122559,-2.570383310317993
1403637133273319000,-0.05573533847928047,-0.004303939640522003,0.004870571196079254,9.604499816894531,-0.7503958344459534,-2.471355438232422
1403637133278319000,-0.04312162473797798,-0.006458744406700134,0.01945527270436287,9.678465843200684,-0.7746457457542419,-2.511155605316162
1403637133283319000,-0.030483879148960114,-0.005713885650038719,0.035521961748600006,9.637162208557129,-0.6354422569274902,-2.4704439640045166
1403637133288319000,-0.02843722701072693,-0.011368315666913986,0.04395117610692978,9.735109329223633,-0.5280001163482666,-2.5677335262298584
1403637133293319000,-0.029309749603271484,-0.019887883216142654,0.05086904019117355,9.857256889343262,-0.5363710522651672,-2.585463762283325
1403637133298319000,-0.03148523345589638,-0.0221109539270401,0.04439476132392883,10.076547622680664,-0.504999577999115,-2.5852808952331543
1403637133303319000,-0.04276255890727043,-0.02211681753396988,0.04152504354715347,10.15753173828125,-0.5536119341850281,-2.6017518043518066
1403637133308319000,-0.051154401153326035,-0.02629741281270981,0.03954431414604187,10.2144136428833,-0.5294390916824341,-2.610001564025879
1403637133313319000,-0.058046963065862656,-0.029057422652840614,0.038233473896980286,10.361226081848145,-0.48115354776382446,-2.6918787956237793
1403637133318319000,-0.06272872537374496,-0.02268408238887787,0.031963154673576355,10.44222354888916,-0.3425186276435852,-2.7742671966552734
1403637133323319000,-0.07602397352457047,-0.02899211272597313,0.03202463686466217,10.385051727294922,-0.33380773663520813,-2.8154873847961426
1403637133328319000,-0.0928068459033966,-0.026931194588541985,0.018752571195364,10.295978546142578,-0.3096674680709839,-2.790842294692993
1403637133333319000,-0.1060270443558693,-0.03451799228787422,0.01810278743505478,10.100567817687988,-0.3418130874633789,-2.6918673515319824
1403637133338319000,-0.11711150407791138,-0.04081139713525772,0.0211053267121315,10.117425918579102,-0.3172396719455719,-2.6746466159820557
1403637133343319000,-0.12337316572666168,-0.049253255128860474,0.028217308223247528,10.09353256225586,-0.406684547662735,-2.658635377883911
1403637133348319000,-0.1352517157793045,-0.04571748897433281,0.03797200322151184,10.085453987121582,-0.3498203456401825,-2.642446279525757
1403637133353319000,-0.14577586948871613,-0.04765552654862404,0.05329953506588936,9.922499656677246,-0.38134416937828064,-2.53617787361145
1403637133358319000,-0.1520918309688568,-0.04840358719229698,0.06931659579277039,9.97981071472168,-0.454758882522583,-2.5192484855651855
1403637133363319000,-0.15483048558235168,-0.051914282143116,0.09027239680290222,9.865174293518066,-0.4545014202594757,-2.494680404663086
1403637133368319000,-0.15970347821712494,-0.04204714670777321,0.11055551469326019,9.799988746643066,-0.4698087275028229,-2.5024280548095703
1403637133373319000,-0.16255295276641846,-0.04465611279010773,0.1203295886516571,9.417372703552246,-0.5665445923805237,-2.412189245223999
1403637133378319000,-0.1639070361852646,-0.0523623488843441,0.1025700718164444,9.369959831237793,-0.5667611360549927,-2.5499825477600098
1403637133383319000,-0.16322506964206696,-0.06073907017707825,0.09614827483892441,9.313243865966797,-0.5903153419494629,-2.58428955078125
1403637133388319000,-0.15758797526359558,-0.06919597089290619,0.09004584699869156,9.370293617248535,-0.5819919109344482,-2.666545867919922
1403637133393319000,-0.1527787446975708,-0.07544761896133423,0.08462294191122055,9.1419677734375,-0.6476805210113525,-2.4799771308898926
1403637133398319000,-0.15150925517082214,-0.09282603114843369,0.0812523365020752,8.913551330566406,-0.6155019998550415,-2.2484233379364014
1403637133403319000,-0.14318010210990906,-0.11020590364933014,0.08966970443725586,8.742480278015137,-0.7129105925559998,-2.230865001678467
1403637133408319000,-0.12986354529857635,-0.11098289489746094,0.09020105004310608,9.052849769592285,-0.7872937321662903,-2.290067434310913
1403637133413319000,-0.11725607514381409,-0.108843132853508,0.09911597520112991,9.068282127380371,-0.7875207662582397,-2.324225664138794
1403637133418319000,-0.11034533381462097,-0.10175703465938568,0.09996519982814789,9.157772064208984,-0.7301571369171143,-2.3335483074188232
1403637133423319000,-0.09711666405200958,-0.0967111885547638,0.10638929903507233,8.953546524047852,-0.8768641948699951,-2.332955837249756
1403637133428319000,-0.07115446031093597,-0.09121951460838318,0.11605262756347656,8.920388221740723,-1.0250794887542725,-2.439223527908325
1403637133433319000,-0.044606763869524,-0.09062787145376205,0.13200139999389648,8.642744064331055,-1.1719166040420532,-2.4725229740142822
1403637133438319000,-0.01241961121559143,-0.10547034442424774,0.13957905769348145,8.668084144592285,-1.1144882440567017,-2.620086193084717
1403637133443319000,0.002854112535715103,-0.11451743543148041,0.14636766910552979,8.60297966003418,-0.8037277460098267,-2.6701924800872803
1403637133448319000,0.013927582651376724,-0.12569397687911987,0.14971566200256348,8.782196044921875,-0.6647114753723145,-2.7200286388397217
1403637133453319000,0.02071128785610199,-0.14324167370796204,0.14621421694755554,8.732671737670898,-0.755926787853241,-2.6805968284606934
1403637133458319000,0.029825814068317413,-0.15167848765850067,0.128001868724823,8.928260803222656,-0.6920245289802551,-2.713423252105713
1403637133463319000,0.03752809017896652,-0.15435364842414856,0.12252514809370041,8.886621475219727,-0.5683316588401794,-2.6560285091400146
1403637133468319000,0.044523462653160095,-0.15923847258090973,0.11496305465698242,9.114640235900879,-0.4300488531589508,-2.6228151321411133
1403637133473319000,0.033903464674949646,-0.16133570671081543,0.10302750021219254,8.893731117248535,-0.13785769045352936,-2.3343846797943115
1403637133478319000,0.01363130658864975,-0.1838899403810501,0.10797278583049774,8.820211410522461,0.40155622363090515,-2.026113986968994
1403637133483319000,-0.022784721106290817,-0.19738979637622833,0.11516336351633072,8.886419296264648,0.7213326692581177,-1.7379895448684692
1403637133488319000,-0.06054045632481575,-0.2150467485189438,0.11444607377052307,9.172361373901367,0.768163800239563,-1.6076332330703735
1403637133493319000,-0.08979843556880951,-0.21431927382946014,0.1151920035481453,9.55523681640625,0.5527719259262085,-1.666468620300293
1403637133498319000,-0.10570251941680908,-0.19725625216960907,0.11472906917333603,9.838972091674805,0.13504229485988617,-1.7983604669570923
1403637133503319000,-0.10469314455986023,-0.17031441628932953,0.11898026615381241,9.706599235534668,-0.23117010295391083,-1.993391752243042
1403637133508319000,-0.09180405735969543,-0.13874451816082,0.12092398852109909,9.478021621704102,-0.33514124155044556,-2.1483514308929443
1403637133513319000,-0.08188235759735107,-0.12893709540367126,0.13556334376335144,8.883143424987793,-0.38844969868659973,-2.1794748306274414
1403637133518319000,-0.08048988878726959,-0.14590491354465485,0.14949706196784973,8.616246223449707,-0.4023938477039337,-2.4167637825012207
1403637133523319000,-0.07843029499053955,-0.1648564636707306,0.16738876700401306,8.463177680969238,-0.4166523516178131,-2.5836386680603027
1403637133528319000,-0.07497251033782959,-0.1850653886795044,0.17768827080726624,8.545699119567871,-0.43920189142227173,-2.7419793605804443
1403637133533319000,-0.07937594503164291,-0.19890515506267548,0.17698246240615845,8.644031524658203,-0.5609539747238159,-2.803253412246704
1403637133538319000,-0.07389576733112335,-0.20236733555793762,0.1770133376121521,8.978046417236328,-0.6188458800315857,-2.879404067993164
1403637133543319000,-0.06908529251813889,-0.19472122192382812,0.17850355803966522,9.139521598815918,-0.6108430624008179,-2.832287073135376
1403637133548319000,-0.06982190907001495,-0.1878911554813385,0.17788097262382507,9.383094787597656,-0.5051565170288086,-2.8570239543914795
1403637133553319000,-0.07121239602565765,-0.16700556874275208,0.1771918386220932,9.602396965026855,-0.31024038791656494,-2.906099796295166
1403637133558319000,-0.07322444766759872,-0.1570882499217987,0.17361107468605042,9.7483549118042,-0.2705588638782501,-2.9791696071624756
1403637133563319000,-0.08014804124832153,-0.14718136191368103,0.1665104329586029,9.796772003173828,-0.2559216320514679,-2.9790377616882324
1403637133568319000,-0.0864465981721878,-0.15218998491764069,0.15178528428077698,9.878193855285645,-0.20790214836597443,-3.0019636154174805
1403637133573319000,-0.09762582927942276,-0.1509193778038025,0.1337047815322876,9.902209281921387,-0.10154184699058533,-3.0657434463500977
1403637133578319000,-0.10244719684123993,-0.15450088679790497,0.1150093674659729,9.983906745910645,-0.10214988142251968,-3.057173490524292
1403637133583319000,-0.11435830593109131,-0.14963562786579132,0.09757817536592484,10.074234008789062,-0.20123140513896942,-3.1625940799713135
1403637133588319000,-0.11848583817481995,-0.13909772038459778,0.09202326834201813,10.082682609558105,-0.2830342948436737,-3.187650680541992
1403637133593319000,-0.12051484733819962,-0.1250690370798111,0.09000812470912933,9.985395431518555,-0.4290216565132141,-3.178812026977539
1403637133598319000,-0.11692636460065842,-0.11811136454343796,0.10190276801586151,9.831050872802734,-0.534686803817749,-3.1707441806793213
1403637133603319000,-0.11623242497444153,-0.10416492819786072,0.10461802780628204,9.823712348937988,-0.5915330648422241,-3.1868326663970947
1403637133608319000,-0.11199600994586945,-0.10266219079494476,0.11288224160671234,9.59542179107666,-0.5250136852264404,-3.202956438064575
1403637133613319000,-0.1070944219827652,-0.09495391696691513,0.11425860971212387,9.555815696716309,-0.5974608659744263,-3.2524430751800537
1403637133618319000,-0.10506824404001236,-0.09775560349225998,0.11564703285694122,9.499421119689941,-0.62227863073349,-3.252941846847534
1403637133623319000,-0.09806711226701736,-0.09008894860744476,0.11356034874916077,9.539913177490234,-0.5323179960250854,-3.260735273361206
1403637133628319000,-0.0953303724527359,-0.09365645051002502,0.11918476223945618,9.645949363708496,-0.5316527485847473,-3.285780191421509
1403637133633319000,-0.09889121353626251,-0.09029673039913177,0.113533616065979,9.873895645141602,-0.4592530429363251,-3.2943718433380127
1403637133638319000,-0.09612063318490982,-0.09034629166126251,0.10567779839038849,10.093382835388184,-0.43571528792381287,-3.3190813064575195
1403637133643319000,-0.10242060571908951,-0.07635565102100372,0.08742652833461761,10.386405944824219,-0.3954783082008362,-3.4172651767730713
1403637133648319000,-0.10449206084012985,-0.06935352087020874,0.07422168552875519,10.532486915588379,-0.41274166107177734,-3.4259493350982666
1403637133653319000,-0.10937700420618057,-0.06381054222583771,0.04843147471547127,10.760660171508789,-0.37305381894111633,-3.5560667514801025
1403637133658319000,-0.1156436949968338,-0.04980114847421646,0.03457173705101013,10.727596282958984,-0.4221031665802002,-3.5645902156829834
1403637133663319000,-0.11913314461708069,-0.042137667536735535,0.013035140931606293,10.728161811828613,-0.5450727343559265,-3.5961434841156006
1403637133668319000,-0.12191450595855713,-0.0358615405857563,-0.001655280590057373,10.590068817138672,-0.5778875946998596,-3.522393226623535
1403637133673319000,-0.12182556837797165,-0.02814626321196556,-0.01285049319267273,10.533631324768066,-0.585203230381012,-3.5289652347564697
1403637133678319000,-0.12038411945104599,-0.030920887365937233,-0.011328697204589844,10.395548820495605,-0.6008321642875671,-3.51290225982666
1403637133683319000,-0.1182682141661644,-0.024714862927794456,-0.009854309260845184,10.445412635803223,-0.650087296962738,-3.5700814723968506
1403637133688319000,-0.11478815972805023,-0.018452424556016922,0.006944224238395691,10.372167587280273,-0.7312912940979004,-3.5300981998443604
1403637133693319000,-0.11058302223682404,-0.011405380442738533,0.01877608895301819,10.388603210449219,-0.7308717370033264,-3.545854091644287
1403637133698319000,-0.10362008213996887,-0.007896680384874344,0.03403150290250778,10.27460765838623,-0.8200141191482544,-3.513497829437256
1403637133703319000,-0.09099170565605164,-0.0003269389271736145,0.05279458314180374,10.396970748901367,-0.7797857522964478,-3.5213937759399414
1403637133708319000,-0.08402655273675919,0.005290381610393524,0.07516743242740631,10.265850067138672,-0.7222350239753723,-3.529405355453491
1403637133713319000,-0.08482397347688675,0.0038309209048748016,0.07646141946315765,10.47805404663086,-0.5754497051239014,-3.5215158462524414
1403637133718319000,-0.08986445516347885,0.0024139173328876495,0.0833309218287468,10.494101524353027,-0.6083093285560608,-3.4804749488830566
1403637133723319000,-0.09195703268051147,0.0003198161721229553,0.07982014864683151,10.63247299194336,-0.6504500508308411,-3.578390121459961
1403637133728319000,-0.09264528751373291,0.0017035342752933502,0.07629566639661789,10.648883819580078,-0.7404785752296448,-3.6282618045806885
1403637133733319000,-0.09049573540687561,0.012184049934148788,0.07073401659727097,10.779165267944336,-0.7081113457679749,-3.660991907119751
1403637133738319000,-0.09048998355865479,0.01714993640780449,0.07088640332221985,10.713407516479492,-0.7160645127296448,-3.6365108489990234
1403637133743319000,-0.0946909636259079,0.02763482928276062,0.06112190708518028,10.729910850524902,-0.6759756207466125,-3.611271381378174
1403637133748319000,-0.09896084666252136,0.026856977492570877,0.06525761634111404,10.558819770812988,-0.7980779409408569,-3.48838210105896
1403637133753319000,-0.1038459837436676,0.03027375042438507,0.06673100590705872,10.624602317810059,-0.8311304450035095,-3.446725606918335
1403637133758319000,-0.10873360186815262,0.03104877471923828,0.07245630025863647,10.477720260620117,-0.895596981048584,-3.3239715099334717
1403637133763319000,-0.11152804642915726,0.02894667536020279,0.07034886628389359,10.567479133605957,-0.8144374489784241,-3.1762449741363525
1403637133768319000,-0.12067416310310364,0.03601526468992233,0.08366729319095612,10.379281044006348,-0.7405916452407837,-2.9953572750091553
1403637133773319000,-0.12696725130081177,0.027532510459423065,0.09212897717952728,10.43612003326416,-0.6187323927879333,-2.8960485458374023
1403637133778319000,-0.13816379010677338,0.021829858422279358,0.09904715418815613,10.460655212402344,-0.5452495217323303,-2.878898859024048
1403637133783319000,-0.15141919255256653,0.017502237111330032,0.09830790758132935,10.794610977172852,-0.3999179005622864,-2.879272699356079
1403637133788319000,-0.16964340209960938,0.011948861181735992,0.09273386001586914,10.875731468200684,-0.4002278447151184,-2.886958599090576
1403637133793319000,-0.18993474543094635,0.0021497681736946106,0.07869181036949158,11.071566581726074,-0.35301658511161804,-2.927746057510376
1403637133798319000,-0.20461498200893402,-0.007647193968296051,0.06687789410352707,11.071305274963379,-0.42685651779174805,-2.8864283561706543
1403637133803319000,-0.21367792785167694,-0.0245080403983593,0.06854607164859772,11.275403022766113,-0.5092077255249023,-2.9514963626861572
1403637133808319000,-0.21641290187835693,-0.03148888051509857,0.0757255107164383,11.300151824951172,-0.6638528108596802,-3.0173919200897217
1403637133813319000,-0.2163294553756714,-0.039822857826948166,0.09380774945020676,11.488933563232422,-0.7286680936813354,-3.222560405731201
1403637133818319000,-0.2155933678150177,-0.03680937737226486,0.11330126225948334,11.407322883605957,-0.7759023308753967,-3.2734665870666504
1403637133823319000,-0.20991605520248413,-0.040188614279031754,0.12573617696762085,11.358567237854004,-0.7827547192573547,-3.387892723083496
1403637133828319000,-0.21275031566619873,-0.04298562556505203,0.13401873409748077,11.171106338500977,-0.7487936615943909,-3.405106544494629
1403637133833319000,-0.20991797745227814,-0.05141235142946243,0.13260430097579956,11.147154808044434,-0.6664181351661682,-3.4620726108551025
1403637133838319000,-0.21282422542572021,-0.06256584823131561,0.12919890880584717,10.95168685913086,-0.6655095219612122,-3.405621290206909
1403637133843319000,-0.21991035342216492,-0.07862917333841324,0.11594046652317047,10.985443115234375,-0.6253824830055237,-3.4379220008850098
1403637133848319000,-0.22420161962509155,-0.08836515992879868,0.10612429678440094,10.928716659545898,-0.617493212223053,-3.3652191162109375
1403637133853319000,-0.22912493348121643,-0.09885866940021515,0.10547024756669998,11.075870513916016,-0.642601728439331,-3.4222123622894287
1403637133858319000,-0.23120522499084473,-0.10241694748401642,0.0998840257525444,11.206507682800293,-0.7008033394813538,-3.4237797260284424
1403637133863319000,-0.22631773352622986,-0.10390210151672363,0.10408239811658859,11.336605072021484,-0.7915123105049133,-3.374866247177124
1403637133868319000,-0.2220810353755951,-0.10107579827308655,0.11538602411746979,11.369014739990234,-0.8972699642181396,-3.447902202606201
1403637133873319000,-0.20733259618282318,-0.09758677333593369,0.13712069392204285,11.442117691040039,-0.9868214726448059,-3.464839220046997
1403637133878319000,-0.1897999495267868,-0.0975533053278923,0.1657595932483673,11.392626762390137,-1.059044599533081,-3.5621986389160156
1403637133883319000,-0.17370891571044922,-0.09547028690576553,0.18171900510787964,11.498844146728516,-1.0828477144241333,-3.66953444480896
1403637133888319000,-0.1547909677028656,-0.08627888560295105,0.19126436114311218,11.375911712646484,-1.0005215406417847,-3.7264955043792725
1403637133893319000,-0.1380261778831482,-0.09047514200210571,0.19245480000972748,11.310540199279785,-0.8776291608810425,-3.759387254714966
1403637133898319000,-0.13888143002986908,-0.08417690545320511,0.1881430745124817,11.229104042053223,-0.7553187012672424,-3.767120838165283
1403637133903319000,-0.14396396279335022,-0.09048126637935638,0.1798645257949829,11.131156921386719,-0.7313187122344971,-3.766727924346924
1403637133908319000,-0.1475205272436142,-0.0940384566783905,0.16109302639961243,11.025494575500488,-0.6996504664421082,-3.6605610847473145
1403637133913319000,-0.14746537804603577,-0.10105837881565094,0.14287802577018738,10.952746391296387,-0.7327967286109924,-3.618948221206665
1403637133918319000,-0.14746305346488953,-0.09681720286607742,0.13450482487678528,10.985706329345703,-0.7337875366210938,-3.5620765686035156
1403637133923319000,-0.14112955331802368,-0.09391716122627258,0.1339033842086792,10.912226676940918,-0.8402937650680542,-3.5291848182678223
1403637133928319000,-0.13399627804756165,-0.08414889872074127,0.12840913236141205,10.96935749053955,-0.8003010153770447,-3.5295352935791016
1403637133933319000,-0.126215860247612,-0.07292213290929794,0.12422281503677368,10.8220853805542,-0.7831388711929321,-3.5124857425689697
1403637133938319000,-0.12759535014629364,-0.06097221374511719,0.12206204980611801,10.70762825012207,-0.7173444032669067,-3.5769271850585938
1403637133943319000,-0.12895040214061737,-0.05541131645441055,0.11917854845523834,10.667230606079102,-0.7089874744415283,-3.626152276992798
1403637133948319000,-0.13595077395439148,-0.04561159759759903,0.10655558854341507,10.610123634338379,-0.7250800728797913,-3.691054105758667
1403637133953319000,-0.14648732542991638,-0.04624658077955246,0.09617027640342712,10.487672805786133,-0.6673978567123413,-3.691391706466675
1403637133958319000,-0.1555546224117279,-0.039964646100997925,0.08221612870693207,10.496174812316895,-0.601655125617981,-3.756385087966919
1403637133963319000,-0.16603219509124756,-0.03927857428789139,0.06882178038358688,10.4225492477417,-0.6260735392570496,-3.7327587604522705
1403637133968319000,-0.17435014247894287,-0.032292645424604416,0.05553503707051277,10.438690185546875,-0.6187800765037537,-3.7164764404296875
1403637133973319000,-0.18621891736984253,-0.021713830530643463,0.04873763769865036,10.234709739685059,-0.659033477306366,-3.692131280899048
1403637133978319000,-0.19238601624965668,-0.009093403816223145,0.03973263129591942,10.137207984924316,-0.6751182079315186,-3.683924674987793
1403637133983319000,-0.1929425299167633,0.0028218887746334076,0.03761685639619827,9.990448951721191,-0.6261575818061829,-3.561689615249634
1403637133988319000,-0.191493958234787,0.011900879442691803,0.03209507092833519,9.794685363769531,-0.6176614761352539,-3.3728485107421875
1403637133993319000,-0.18872179090976715,0.014653947204351425,0.034283317625522614,9.6485013961792,-0.6339004635810852,-3.232870101928711
1403637133998319000,-0.17822609841823578,0.021598927676677704,0.034990325570106506,9.649029731750488,-0.7156568169593811,-3.175086259841919
1403637134003319000,-0.16145868599414825,0.025800365954637527,0.044746797531843185,9.534647941589355,-0.8622846603393555,-3.118069887161255
1403637134008319000,-0.13345585763454437,0.033429183065891266,0.052362922579050064,9.673308372497559,-0.9114550352096558,-3.118370771408081
1403637134013319000,-0.10482578724622726,0.04178285598754883,0.07044568657875061,9.63158130645752,-0.8537869453430176,-3.0530340671539307
1403637134018319000,-0.08599486202001572,0.045851871371269226,0.07938671857118607,9.77737808227539,-0.6002802848815918,-3.1664607524871826
1403637134023319000,-0.08130082488059998,0.052781835198402405,0.07851926982402802,9.801193237304688,-0.4284469485282898,-3.21626615524292
1403637134028319000,-0.08635251224040985,0.052055343985557556,0.05460653826594353,9.93101692199707,-0.21694113314151764,-3.2484958171844482
1403637134033319000,-0.0984020084142685,0.04724205285310745,0.03017808124423027,9.759882926940918,-0.2658553123474121,-3.215665578842163
1403637134038319000,-0.11172311007976532,0.0452253520488739,0.0009988769888877869,9.768767356872559,-0.2913026809692383,-3.2722699642181396
1403637134043319000,-0.12714140117168427,0.04184049367904663,-0.026054151356220245,9.655315399169922,-0.3813444972038269,-3.297544002532959
1403637134048319000,-0.14175823330879211,0.045393869280815125,-0.03840159624814987,9.67990493774414,-0.3735184967517853,-3.2819910049438477
1403637134053319000,-0.15563330054283142,0.048994280397892,-0.04172735661268234,9.459851264953613,-0.3322671055793762,-3.2251484394073486
1403637134058319000,-0.1722896695137024,0.05391313135623932,-0.05375053733587265,9.476802825927734,-0.30761590600013733,-3.1924984455108643
1403637134063319000,-0.19317209720611572,0.053981512784957886,-0.06221730262041092,9.248567581176758,-0.3231023848056793,-3.1761605739593506
1403637134068319000,-0.20558875799179077,0.05395963788032532,-0.07396415621042252,9.257183074951172,-0.3717788755893707,-3.184828281402588
1403637134073319000,-0.21671685576438904,0.05756846070289612,-0.08567603677511215,9.094728469848633,-0.5179202556610107,-3.1442322731018066
1403637134078319000,-0.2208540439605713,0.05199800431728363,-0.08976518362760544,9.11948299407959,-0.5996440649032593,-3.1034035682678223
1403637134083319000,-0.21872758865356445,0.055511608719825745,-0.08123456686735153,8.98079776763916,-0.6722543239593506,-3.0704941749572754
1403637134088319000,-0.21304354071617126,0.05613378435373306,-0.06237643212080002,9.119316101074219,-0.6799859404563904,-3.119791269302368
1403637134093319000,-0.20814096927642822,0.0595676451921463,-0.03952606022357941,9.110458374023438,-0.6795838475227356,-3.153214693069458
1403637134098319000,-0.20393329858779907,0.06507014483213425,-0.030728578567504883,9.313523292541504,-0.49996739625930786,-3.1781115531921387
1403637134103319000,-0.20539119839668274,0.06787440180778503,-0.030128926038742065,9.288200378417969,-0.35222429037094116,-3.1042909622192383
1403637134108319000,-0.20825505256652832,0.06926551461219788,-0.050464190542697906,9.393777847290039,-0.2303505539894104,-3.0542314052581787
1403637134113319000,-0.21608510613441467,0.06997621059417725,-0.07416973263025284,9.303770065307617,-0.08408255130052567,-2.9142956733703613
1403637134118319000,-0.22522684931755066,0.0692579373717308,-0.09420610219240189,9.401596069335938,0.06266921013593674,-2.8880484104156494
1403637134123319000,-0.2421278953552246,0.07499054819345474,-0.11004636436700821,9.222376823425293,0.0708879604935646,-2.83048152923584
1403637134128319000,-0.2533271908760071,0.07853791862726212,-0.11275053769350052,9.124918937683105,0.012250775471329689,-2.7315833568573
1403637134133319000,-0.2503781318664551,0.09188628941774368,-0.10713709145784378,8.9542236328125,-0.11070571839809418,-2.6408944129943848
1403637134138319000,-0.2495720088481903,0.09607772529125214,-0.10089994221925735,8.872812271118164,-0.1431576907634735,-2.5911571979522705
1403637134143319000,-0.24603895843029022,0.1023087203502655,-0.10305198282003403,8.857072830200195,-0.2323232740163803,-2.574866533279419
1403637134148319000,-0.24464285373687744,0.10575850307941437,-0.11006569117307663,8.955492973327637,-0.30560705065727234,-2.6654610633850098
1403637134153319000,-0.23825374245643616,0.11484633386135101,-0.11348096281290054,9.045248985290527,-0.36199986934661865,-2.7649621963500977
1403637134158319000,-0.23685699701309204,0.11477921903133392,-0.10147701948881149,9.232264518737793,-0.35275140404701233,-2.847715377807617
1403637134163319000,-0.23129335045814514,0.11819063127040863,-0.09449034184217453,9.345674514770508,-0.4335615038871765,-2.856820583343506
1403637134168319000,-0.2334440052509308,0.11944644153118134,-0.08136405795812607,9.605598449707031,-0.3934318721294403,-2.8569254875183105
1403637134173319000,-0.23418769240379333,0.13197104632854462,-0.07456693798303604,9.718823432922363,-0.40113338828086853,-2.865020275115967
1403637134178319000,-0.23421818017959595,0.13891702890396118,-0.06569936126470566,9.856741905212402,-0.376766175031662,-2.9061355590820312
1403637134183319000,-0.24052713811397552,0.16206611692905426,-0.06919743865728378,9.848329544067383,-0.3933011293411255,-2.906287670135498
1403637134188319000,-0.24251993000507355,0.18874591588974,-0.06409820169210434,9.693070411682129,-0.40134015679359436,-2.905829429626465
1403637134193319000,-0.2444995939731598,0.21882615983486176,-0.0674155130982399,9.473560333251953,-0.3189062476158142,-2.9545445442199707
1403637134198319000,-0.2521357536315918,0.2376766949892044,-0.07099848240613937,9.115809440612793,-0.19535481929779053,-2.954369306564331
1403637134203319000,-0.26057419180870056,0.25586801767349243,-0.08021799474954605,8.69373607635498,-0.15366074442863464,-3.0110862255096436
1403637134208319000,-0.2703912556171417,0.26494354009628296,-0.08294863253831863,8.410089492797852,-0.10519299656152725,-2.9459431171417236
1403637134213319000,-0.2716915011405945,0.2732720375061035,-0.08141345530748367,8.248080253601074,-0.11335644125938416,-2.9121031761169434
1403637134218319000,-0.26182493567466736,0.26765406131744385,-0.07080904394388199,8.117918968200684,-0.25268206000328064,-2.8716936111450195
1403637134223319000,-0.24421954154968262,0.2774224877357483,-0.05887237936258316,8.109968185424805,-0.3272697627544403,-2.822908639907837
1403637134228319000,-0.22175374627113342,0.2836505174636841,-0.03865549713373184,8.133940696716309,-0.28654277324676514,-2.782229423522949
1403637134233319000,-0.19724053144454956,0.2953946590423584,-0.024184145033359528,8.288104057312012,-0.23684248328208923,-2.7744898796081543
1403637134238319000,-0.17493179440498352,0.3128858804702759,-0.010372631251811981,8.245926856994629,-0.19627124071121216,-2.692502021789551
1403637134243319000,-0.1469915211200714,0.322670042514801,6.0655176639556885e-05,8.261796951293945,-0.15564171969890594,-2.6914610862731934
1403637134248319000,-0.11774207651615143,0.3296075463294983,0.01549983024597168,8.138558387756348,-0.245222270488739,-2.5927021503448486
1403637134253319000,-0.09691856801509857,0.33158940076828003,0.02520715817809105,8.211313247680664,-0.14765878021717072,-2.5257174968719482
1403637134258319000,-0.07824833691120148,0.3273659944534302,0.03698756918311119,8.113065719604492,-0.06553780287504196,-2.5246105194091797
1403637134263319000,-0.05662695690989494,0.32452112436294556,0.047369666397571564,8.210518836975098,0.10570169240236282,-2.4345264434814453
1403637134268319000,-0.055428456515073776,0.32520461082458496,0.05853448063135147,8.168838500976562,0.11326593905687332,-2.326965093612671
1403637134273319000,-0.055513836443424225,0.3322148323059082,0.05844487249851227,8.23354721069336,0.12896737456321716,-2.3020408153533936
1403637134278319000,-0.04919198900461197,0.34066617488861084,0.06481462717056274,8.053303718566895,0.08819311857223511,-2.2108685970306396
1403637134283319000,-0.049065105617046356,0.35390037298202515,0.06561125069856644,8.061967849731445,0.11274968087673187,-2.25917387008667
1403637134288319000,-0.04484427720308304,0.3657910227775574,0.07615934312343597,7.7434163093566895,0.18647530674934387,-2.2091872692108154
1403637134293319000,-0.04624740034341812,0.36853915452957153,0.07612894475460052,7.695389270782471,0.22744342684745789,-2.2327661514282227
1403637134298319000,-0.04683972895145416,0.368461012840271,0.0802823156118393,7.606367588043213,0.21123845875263214,-2.2825536727905273
1403637134303319000,-0.04676714912056923,0.3642582297325134,0.06968045234680176,7.7376275062561035,0.211367666721344,-2.3823397159576416
1403637134308319000,-0.046722713857889175,0.36430823802948,0.06187900900840759,7.802732467651367,0.16310743987560272,-2.384049654006958
1403637134313319000,-0.04380340874195099,0.3615345358848572,0.046502381563186646,7.957633972167969,0.18775947391986847,-2.409472942352295
1403637134318319000,-0.039600517600774765,0.3601715564727783,0.04458243399858475,7.915708541870117,0.1308741420507431,-2.3444106578826904
1403637134323319000,-0.03187473863363266,0.36577707529067993,0.04327778145670891,8.07813549041748,0.10635039955377579,-2.279049873352051
1403637134328319000,-0.01998872682452202,0.3713850975036621,0.05589839816093445,7.938096046447754,0.04940660297870636,-2.188189744949341
1403637134333319000,-0.010883193463087082,0.37695419788360596,0.06279557943344116,8.011519432067871,0.06596951931715012,-2.17968487739563
1403637134338319000,-0.006073888391256332,0.3882372975349426,0.07463175803422928,7.765817642211914,0.08272504061460495,-2.0472309589385986
1403637134343319000,-0.008307717740535736,0.39038676023483276,0.07740729302167892,7.6023054122924805,0.10715441405773163,-1.9547415971755981
1403637134348319000,-0.007689725607633591,0.3952513337135315,0.07531844079494476,7.2592620849609375,0.18080851435661316,-1.8368819952011108
1403637134353319000,-0.014803148806095123,0.39242076873779297,0.06979205459356308,7.10451602935791,0.18921130895614624,-1.7773122787475586
1403637134358319000,-0.02260947972536087,0.3889380097389221,0.07486085593700409,6.858668804168701,0.13175755739212036,-1.5955277681350708
1403637134363319000,-0.028938941657543182,0.37487107515335083,0.07906477153301239,6.7530927658081055,0.22897598147392273,-1.5196627378463745
1403637134368319000,-0.038055598735809326,0.3656417727470398,0.09088361263275146,6.565287113189697,0.27863046526908875,-1.4698569774627686
1403637134373319000,-0.04779120534658432,0.35656994581222534,0.10623165965080261,6.598610877990723,0.27008262276649475,-1.5118467807769775
1403637134378319000,-0.05751711130142212,0.3594455122947693,0.11806749552488327,6.5653204917907715,0.21225067973136902,-1.5134546756744385
1403637134383319000,-0.0686097964644432,0.34901320934295654,0.12498997896909714,6.606246471405029,0.14697256684303284,-1.580241084098816
1403637134388319000,-0.07763223350048065,0.34272241592407227,0.12993189692497253,6.606116771697998,0.07393461465835571,-1.623000979423523
1403637134393319000,-0.08457103371620178,0.331537663936615,0.13704273104667664,6.671259880065918,0.04105141758918762,-1.6572625637054443
1403637134398319000,-0.09294643998146057,0.32171791791915894,0.14478878676891327,6.605624675750732,0.00039777407073415816,-1.7321768999099731
1403637134403319000,-0.09568385779857635,0.30432772636413574,0.16154241561889648,6.686990737915039,-0.03213108330965042,-1.6768141984939575
1403637134408319000,-0.09845279157161713,0.29253941774368286,0.1755114495754242,6.792966842651367,-0.09723315387964249,-1.6939001083374023
1403637134413319000,-0.09208656847476959,0.2757788896560669,0.18303078413009644,6.9151787757873535,-0.08099029958248138,-1.7203799486160278
1403637134418319000,-0.09141445904970169,0.27087026834487915,0.187788724899292,7.045368671417236,-0.08072090893983841,-1.696880578994751
1403637134423319000,-0.08442039787769318,0.26039040088653564,0.20537710189819336,7.077285289764404,-0.08919788151979446,-1.6562490463256836
1403637134428319000,-0.07039923965930939,0.263977587223053,0.2223433256149292,6.96201229095459,-0.13028739392757416,-1.589411735534668
1403637134433319000,-0.059264056384563446,0.25702494382858276,0.24195817112922668,6.774046421051025,-0.17113952338695526,-1.5054991245269775
1403637134438319000,-0.04323720932006836,0.25550973415374756,0.2551388442516327,6.537456512451172,-0.138170525431633,-1.3803004026412964
1403637134443319000,-0.02729010581970215,0.2371661514043808,0.27451005578041077,6.236153602600098,-0.08873693645000458,-1.2059024572372437
1403637134448319000,-0.017636708915233612,0.22437633574008942,0.277733713388443,6.148497104644775,0.09053436666727066,-1.1717095375061035
1403637134453319000,-0.013670302927494049,0.21173308789730072,0.2860261797904968,5.969783306121826,0.10721874237060547,-1.1064239740371704
1403637134458319000,-0.008875735104084015,0.19911499321460724,0.28690874576568604,5.9219889640808105,0.1553182452917099,-1.130911946296692
1403637134463319000,-0.0033010244369506836,0.18439827859401703,0.29674625396728516,5.792083740234375,0.0982767641544342,-1.1157060861587524
1403637134468319000,0.003668859601020813,0.17318306863307953,0.2980286478996277,5.849732875823975,0.1794547289609909,-1.0416539907455444
1403637134473319000,0.0014223679900169373,0.15212230384349823,0.30425751209259033,5.760076999664307,0.163448765873909,-1.0172038078308105
1403637134478319000,-0.006329573690891266,0.13042588531970978,0.2916835844516754,5.98091459274292,0.33364927768707275,-1.0262317657470703
1403637134483319000,-0.02038029581308365,0.10950665175914764,0.28042832016944885,6.037754058837891,0.44833269715309143,-1.0844852924346924
1403637134488319000,-0.038532085716724396,0.09513936936855316,0.26025277376174927,6.216388702392578,0.4400603473186493,-1.1759847402572632
1403637134493319000,-0.05101948231458664,0.08211970329284668,0.2429545819759369,6.25609827041626,0.3333553969860077,-1.1852432489395142
1403637134498319000,-0.05785934627056122,0.06690501421689987,0.2242405116558075,6.39403772354126,0.22698619961738586,-1.2265084981918335
1403637134503319000,-0.056333065032958984,0.05017837882041931,0.2166719138622284,6.295257568359375,0.08909064531326294,-1.2600314617156982
1403637134508319000,-0.059115923941135406,0.03833679109811783,0.20404091477394104,6.393704891204834,0.08076556026935577,-1.3510342836380005
1403637134513319000,-0.057010896503925323,0.02581990510225296,0.1991139054298401,6.279075622558594,-0.04083526134490967,-1.3110332489013672
1403637134518319000,-0.04992510378360748,0.00909491628408432,0.19913628697395325,6.385934829711914,-0.008249931037425995,-1.3599984645843506
1403637134523319000,-0.03730878233909607,0.0007368773221969604,0.20205393433570862,6.206198215484619,-0.06430986523628235,-1.2619260549545288
1403637134528319000,-0.026209846138954163,-0.02239777147769928,0.1999184489250183,6.215351581573486,-0.015054025687277317,-1.1949119567871094
1403637134533319000,-0.010223239660263062,-0.03163503110408783,0.19988274574279785,6.069261074066162,0.026100510731339455,-1.1784113645553589
1403637134538319000,-0.004068631678819656,-0.04771341383457184,0.19420236349105835,6.159990310668945,0.1566910743713379,-1.2108806371688843
1403637134543319000,-0.0014835149049758911,-0.05608677864074707,0.19204893708229065,6.038330554962158,0.2793051600456238,-1.170139193534851
1403637134548319000,-0.004424169659614563,-0.07076731324195862,0.1807827651500702,6.088407516479492,0.49083295464515686,-1.1774858236312866
1403637134553319000,-0.01645500212907791,-0.07919076830148697,0.1660982370376587,6.039722442626953,0.6454822421073914,-1.169061303138733
1403637134558319000,-0.0347394198179245,-0.0923914760351181,0.13947157561779022,6.104633331298828,0.7831302285194397,-1.1927422285079956
1403637134563319000,-0.05511860549449921,-0.10557139664888382,0.10938821732997894,6.071518898010254,0.839384138584137,-1.1845225095748901
1403637134568319000,-0.07176267355680466,-0.11725150048732758,0.07943923771381378,6.1851806640625,0.7411189675331116,-1.232932686805725
1403637134573319000,-0.0891512930393219,-0.12608088552951813,0.054549574851989746,6.208661079406738,0.54494309425354,-1.299692988395691
1403637134578319000,-0.10159387439489365,-0.1399749219417572,0.032985907047986984,6.371246814727783,0.4307689964771271,-1.3497651815414429
1403637134583319000,-0.10640235245227814,-0.1525207757949829,0.009298279881477356,6.313438892364502,0.2605840861797333,-1.35101318359375
1403637134588319000,-0.10272589325904846,-0.1686115860939026,0.002258099615573883,6.435801982879639,0.17135615646839142,-1.4172381162643433
1403637134593319000,-0.09923264384269714,-0.17558333277702332,-0.005438454449176788,6.5417609214782715,-0.015478064306080341,-1.4351893663406372
1403637134598319000,-0.09509377181529999,-0.18675516545772552,-0.008970402181148529,6.5901641845703125,-0.08798905462026596,-1.4519325494766235
1403637134603319000,-0.08747954666614532,-0.19021518528461456,-0.01311173290014267,6.524961948394775,-0.1437235325574875,-1.46083402633667
1403637134608319000,-0.06789390742778778,-0.2021135836839676,-0.00963950902223587,6.53358268737793,-0.1754484623670578,-1.4938796758651733
1403637134613319000,-0.05473993718624115,-0.20919053256511688,-0.004827506840229034,6.533611297607422,-0.19158481061458588,-1.4941667318344116
1403637134618319000,-0.04302060604095459,-0.2183198779821396,0.0020843446254730225,6.4929094314575195,-0.18339364230632782,-1.4857679605484009
1403637134623319000,-0.033954471349716187,-0.22317181527614594,0.014655157923698425,6.6160664558410645,-0.09341181814670563,-1.53415048122406
1403637134628319000,-0.02350105717778206,-0.2315206080675125,0.02936830371618271,6.5423359870910645,-0.01189624797552824,-1.5423253774642944
1403637134633319000,-0.01722688600420952,-0.23151293396949768,0.030561745166778564,6.608042240142822,0.08510060608386993,-1.5494519472122192
1403637134638319000,-0.017321502789855003,-0.24201196432113647,0.03326643258333206,6.5669846534729,0.1332920789718628,-1.615167498588562
1403637134643319000,-0.01445426233112812,-0.244167760014534,0.029842890799045563,6.616030216217041,0.23868943750858307,-1.614561915397644
1403637134648319000,-0.020893191918730736,-0.2539233863353729,0.02998289465904236,6.460783958435059,0.20571278035640717,-1.5819504261016846
1403637134653319000,-0.028656702488660812,-0.25947102904319763,0.01669222116470337,6.493809223175049,0.14744672179222107,-1.6150285005569458
1403637134658319000,-0.030095316469669342,-0.26571542024612427,0.00556192547082901,6.363025665283203,0.032638464123010635,-1.6001338958740234
1403637134663319000,-0.030692238360643387,-0.27412426471710205,-0.015436157584190369,6.461352825164795,0.00815576408058405,-1.6409692764282227
1403637134668319000,-0.02862394228577614,-0.2874680757522583,-0.027318336069583893,6.379754066467285,-0.023858271539211273,-1.576215147972107
1403637134673319000,-0.030023042112588882,-0.3029141426086426,-0.045475490391254425,6.5432562828063965,0.02528403513133526,-1.623860239982605
1403637134678319000,-0.0251377671957016,-0.31625473499298096,-0.05653116852045059,6.534944534301758,-0.03127961978316307,-1.55900239944458
1403637134683319000,-0.02086818590760231,-0.3295087218284607,-0.06566854566335678,6.820981025695801,-0.11306160688400269,-1.607362151145935
1403637134688319000,-0.00820838287472725,-0.34272921085357666,-0.06299155205488205,7.057356834411621,-0.2599731981754303,-1.7079576253890991
1403637134693319000,0.004477296024560928,-0.35103899240493774,-0.057469822466373444,7.367037296295166,-0.32542380690574646,-1.848832368850708
1403637134698319000,0.02125110849738121,-0.3565492033958435,-0.03923299163579941,7.447839260101318,-0.46403443813323975,-1.925007939338684
1403637134703319000,0.04862414300441742,-0.3627912998199463,-0.013304933905601501,7.643561363220215,-0.5135533213615417,-1.9993951320648193
1403637134708319000,0.07731565833091736,-0.36620038747787476,0.027227289974689484,7.576725959777832,-0.5210473537445068,-2.0983388423919678
1403637134713319000,0.09694227576255798,-0.3745505213737488,0.059170350432395935,7.755786418914795,-0.34916070103645325,-2.2954559326171875
1403637134718319000,0.11082333326339722,-0.3857547640800476,0.08899673074483871,7.71425724029541,-0.2423447221517563,-2.378603935241699
1403637134723319000,0.11564889550209045,-0.39559370279312134,0.1027846410870552,7.869607448577881,-0.12093455344438553,-2.4439444541931152
1403637134728319000,0.1169242411851883,-0.4011356830596924,0.10327944904565811,7.8448309898376465,-0.1542021483182907,-2.608978748321533
1403637134733319000,0.1133640706539154,-0.41160285472869873,0.09056956321001053,7.8690595626831055,-0.04050273075699806,-2.7246527671813965
1403637134738319000,0.10632619261741638,-0.41722166538238525,0.0752914622426033,7.885939598083496,-0.02410494163632393,-2.766103744506836
1403637134743319000,0.09507322311401367,-0.4263417720794678,0.046008914709091187,7.837159156799316,-0.04138216748833656,-2.840303897857666
1403637134748319000,0.08029308915138245,-0.43757909536361694,0.01665376126766205,7.813542366027832,-0.14051024615764618,-2.8331050872802734
1403637134753319000,0.07618796825408936,-0.4572333097457886,-0.006306201219558716,7.953691482543945,-0.30478379130363464,-2.8995769023895264
1403637134758319000,0.07775451242923737,-0.4669928550720215,-0.01938183605670929,7.9863972663879395,-0.39463120698928833,-2.9338974952697754
1403637134763319000,0.09335258603096008,-0.47735273838043213,-0.012102499604225159,8.117886543273926,-0.509121298789978,-2.8689074516296387
1403637134768319000,0.10109728574752808,-0.48568832874298096,0.006989665329456329,8.224160194396973,-0.5497378706932068,-2.876746892929077
1403637134773319000,0.1165679395198822,-0.4961323142051697,0.03568930923938751,8.288904190063477,-0.549196720123291,-2.835803508758545
1403637134778319000,0.12640893459320068,-0.49678677320480347,0.0747276097536087,8.55028247833252,-0.5651223063468933,-2.9419310092926025
1403637134783319000,0.13833589851856232,-0.49463194608688354,0.11793073266744614,8.614480972290039,-0.5895803570747375,-3.0333120822906494
1403637134788319000,0.14676232635974884,-0.4911784529685974,0.15058162808418274,8.834423065185547,-0.5085551738739014,-3.254455327987671
1403637134793319000,0.14878907799720764,-0.4806262254714966,0.17062050104141235,8.800686836242676,-0.4509550631046295,-3.386232852935791
