#timestamp [ns],w_RS_S_x [rad s^-1],w_RS_S_y [rad s^-1],w_RS_S_z [rad s^-1],a_RS_S_x [m s^-2],a_RS_S_y [m s^-2],a_RS_S_z [m s^-2]
1403637130498319000,-0.032114058236695664,0.05445427266222308,0.07749261878854824,9.447072833333333,-0.9398039583333333,-2.4516625
1403637130503319000,-0.017453292519943295,0.04328416544945937,0.06632251157578452,9.250939833333334,-1.1359369583333332,-2.4108014583333333
1403637130508319000,0.003490658503988659,0.033510321638291124,0.05375614096142535,9.16921775,-1.1849702083333333,-2.4434902916666665
1403637130513319000,0.019547687622336492,0.017453292519943295,0.05026548245743669,9.144701125,-1.0296982499999998,-2.435318083333333
1403637130518319000,0.029321531433504733,0.004886921905584123,0.056548667764616284,9.226423208333333,-0.7436709583333333,-2.4925235416666665
1403637130523319000,0.025132741228718346,0.0006981317007977319,0.06492624817418906,9.487933875,-0.4494714583333333,-2.459834708333333
1403637130528319000,0.0027925268031909274,0.004886921905584123,0.07539822368615504,9.422556208333333,-0.3350605416666666,-2.3944570416666666
1403637130533319000,-0.017453292519943295,0.0013962634015954637,0.09215338450530061,9.46341725,-0.43312704166666666,-2.4189736666666666
1403637130538319000,-0.030019663134302467,0.014660765716752367,0.10262536001726656,9.586000375,-0.661948875,-2.3862848333333333
1403637130543319000,-0.0307177948351002,0.025132741228718346,0.11519173063162574,9.635033625,-0.8417374583333332,-2.3535959999999996
1403637130548319000,-0.02024581932313422,0.03630284844148206,0.11309733552923257,9.659550249999999,-0.9970094166666666,-2.4108014583333333
1403637130553319000,-0.0006981317007977319,0.04258603374866164,0.1075122819228507,9.577828166666666,-1.0133538333333332,-2.3045627499999997
1403637130558319000,0.017453292519943295,0.03700098014227979,0.08936085770210968,9.316317499999998,-0.8662540833333333,-2.2718739166666664
1403637130563319000,0.029321531433504733,0.0153588974175501,0.07051130178057091,9.332661916666666,-0.6782932916666666,-2.3699404166666667
1403637130568319000,0.030019663134302467,0.020943951023931952,0.06422811647339133,9.422556208333333,-0.4739880833333333,-2.476179125
1403637130573319000,0.017453292519943295,0.014660765716752367,0.07051130178057091,9.414383999999998,-0.220649625,-2.6151066666666667
1403637130578319000,-0.0020943951023931952,0.01884955592153876,0.07539822368615504,9.520622708333333,-0.14709974999999997,-2.6477955
1403637130583319000,-0.020943951023931952,0.021642082724729686,0.0879645943005142,9.340834124999999,-0.2778550833333333,-2.59876225
1403637130588319000,-0.0307177948351002,0.02024581932313422,0.08656833089891874,9.389867375,-0.6782932916666666,-2.549729
1403637130593319000,-0.02722713633111154,0.02234021442552742,0.07749261878854824,9.430728416666666,-0.9724927916666666,-2.582417833333333
1403637130598319000,-0.004886921905584123,0.024434609527920613,0.06911503837897544,9.389867375,-1.0869037083333333,-2.557901208333333
1403637130603319000,0.012566370614359173,0.01884955592153876,0.06911503837897544,9.316317499999998,-1.103248125,-2.459834708333333
1403637130608319000,0.030019663134302467,0.016057029118347832,0.07120943348136866,9.389867375,-0.8580818749999999,-2.4680069166666665
1403637130613319000,0.03560471674068433,0.0013962634015954637,0.08237954069413235,9.210078791666666,-0.7273265416666667,-2.3209071666666663
1403637130618319000,0.02583087292951608,-0.006283185307179587,0.08307767239493008,9.381695166666667,-0.6782932916666666,-2.280046125
1403637130623319000,0.025132741228718346,-0.009773843811168246,0.08377580409572781,9.536967125,-0.73549875,-2.1656352083333332
1403637130628319000,0.02583087292951608,-0.01117010721276371,0.07260569688296412,9.814822208333332,-0.563882375,-2.214668458333333
1403637130633319000,0.024434609527920613,0.0041887902047863905,0.07819075048934597,9.782133375,-0.4739880833333333,-2.157463
1403637130638319000,0.016057029118347832,0.009075712110370514,0.06562437987498679,9.724927916666667,-0.34323275000000003,-2.2718739166666664
1403637130643319000,0.0049826353788375854,0.025919394567608833,0.04881373047828674,9.558177947998047,-0.44558030366897583,-2.328491449356079
1403637130648319000,-0.005586542189121246,0.03778122365474701,0.027176745235919952,9.410908699035645,-0.4445009231567383,-2.556633234024048
1403637130653319000,-0.009018689393997192,0.03778224438428879,0.0396449975669384,9.38715648651123,-0.3383014500141144,-2.7847821712493896
1403637130658319000,-0.012440808117389679,0.046874575316905975,0.06126265600323677,9.583329200744629,-0.27415701746940613,-2.9967989921569824
1403637130663319000,-0.01807587593793869,0.05592290312051773,0.07740972936153412,9.362676620483398,-0.29918473958969116,-2.997274160385132
1403637130668319000,-0.0326719656586647,0.053848691284656525,0.07259470969438553,9.256488800048828,-0.3230632245540619,-2.916184425354004
1403637130673319000,-0.05015473812818527,0.04265758395195007,0.060014743357896805,9.00301742553711,-0.5669891834259033,-2.842608690261841
1403637130678319000,-0.05014093220233917,0.027297524735331535,0.04808806627988815,9.00243854522705,-0.7137414813041687,-2.7610599994659424
1403637130683319000,-0.04664188623428345,0.009745931252837181,0.06895902752876282,8.961617469787598,-0.7705855369567871,-2.6467645168304443
1403637130688319000,-0.04315716773271561,-0.0014424528926610947,0.08903589099645615,9.239155769348145,-0.8118858337402344,-2.523956775665283
1403637130693319000,-0.03615815192461014,-0.011083999648690224,0.0987888053059578,9.401443481445312,-1.1473290920257568,-2.2623696327209473
1403637130698319000,-0.023416489362716675,-0.010392127558588982,0.09061048924922943,9.613017082214355,-1.4756672382354736,-1.9363285303115845
1403637130703319000,0.00616426020860672,-0.013869667425751686,0.08164345473051071,9.530385971069336,-1.6888270378112793,-1.6836910247802734
1403637130708319000,0.04873223602771759,-0.012575836852192879,0.07514545321464539,9.8016939163208,-1.3050886392593384,-1.879318118095398
1403637130713319000,0.060386210680007935,0.004206426441669464,0.0912095457315445,9.934747695922852,-0.4643341600894928,-2.1808924674987793
1403637130718319000,0.04141160845756531,0.033706001937389374,0.10807869583368301,10.025259971618652,0.2360118329524994,-2.51487398147583
1403637130723319000,-0.005433768033981323,0.06866071373224258,0.12630927562713623,9.788666725158691,0.3117654621601105,-2.645817995071411
1403637130728319000,-0.04044341295957565,0.08128457516431808,0.120725616812706,9.584263801574707,-0.1511620134115219,-2.613975763320923
1403637130733319000,-0.04249154031276703,0.07358095049858093,0.11139719188213348,9.11756420135498,-0.9348493814468384,-2.44313645362854
1403637130738319000,-0.013132095336914062,0.05383561551570892,0.09589357674121857,9.075448036193848,-1.2296628952026367,-2.4513192176818848
1403637130743319000,0.020254656672477722,0.03134605288505554,0.08005564659833908,8.952901840209961,-1.017059087753296,-2.5005297660827637
1403637130748319000,0.02859007567167282,0.01113474927842617,0.0635753944516182,9.150071144104004,-0.2909696102142334,-2.761854410171509
1403637130753319000,0.018227890133857727,0.004236659035086632,0.05533177778124809,9.21605396270752,-0.021809641271829605,-2.793863296508789
1403637130758319000,-0.008203253149986267,-0.008304839953780174,0.04539349675178528,9.22433090209961,-0.029187731444835663,-2.5976192951202393
1403637130763319000,-0.03606114536523819,-0.023067740723490715,0.040936872363090515,9.2814302444458,-0.28131064772605896,-2.441884994506836
1403637130768319000,-0.04302994906902313,-0.01536731980741024,0.03799428045749664,9.721171379089355,-0.5194145441055298,-2.440959930419922
1403637130773319000,-0.045220039784908295,0.007764233276247978,0.04997420310974121,9.736516952514648,-0.8302808403968811,-2.424934148788452
1403637130778319000,-0.030575573444366455,0.02321767248213291,0.05790446698665619,9.80167293548584,-0.9523120522499084,-2.4907774925231934
1403637130783319000,-0.015849310904741287,0.0414884015917778,0.06706348806619644,9.662776947021484,-0.933902382850647,-2.4990909099578857
1403637130788319000,-0.005406707525253296,0.05255775898694992,0.0717845931649208,9.524164199829102,-0.8027641773223877,-2.482963800430298
1403637130793319000,-0.008970558643341064,0.05516895651817322,0.07507631182670593,9.320470809936523,-0.6813719272613525,-2.3930652141571045
1403637130798319000,-0.009660273790359497,0.042604513466358185,0.06667307764291763,9.247366905212402,-0.7659563422203064,-2.205320358276367
1403637130803319000,-0.0074638500809669495,0.01476331613957882,0.05639324337244034,9.082616806030273,-1.2985516786575317,-2.033940076828003
1403637130808319000,0.014293521642684937,-0.016772674396634102,0.046738170087337494,9.368227005004883,-1.3889002799987793,-2.0747439861297607
1403637130813319000,0.04994663596153259,-0.028725920245051384,0.06350695341825485,9.484665870666504,-0.8897154927253723,-2.2627217769622803
1403637130818319000,0.05054682493209839,-0.022946888580918312,0.07740210741758347,9.869566917419434,-0.10579229146242142,-2.5564870834350586
1403637130823319000,0.018994875252246857,0.015631964430212975,0.08987917006015778,9.934534072875977,0.23919999599456787,-2.7189157009124756
1403637130828319000,-0.018078401684761047,0.04428704082965851,0.0856553390622139,9.893787384033203,0.053172800689935684,-2.7105565071105957
1403637130833319000,-0.035544052720069885,0.0616072341799736,0.082785964012146,9.57532787322998,-0.5901657342910767,-2.507302761077881
1403637130838319000,-0.02072339504957199,0.058725811541080475,0.0800505131483078,9.361918449401855,-1.015106439590454,-2.402165651321411
1403637130843319000,-0.0025657564401626587,0.04816474765539169,0.08509497344493866,9.05091381072998,-1.0324944257736206,-2.378500461578369
1403637130848319000,0.009740352630615234,0.03347430378198624,0.08088473975658417,9.11609935760498,-0.7651735544204712,-2.5415689945220947
1403637130853319000,0.004746243357658386,0.023142652586102486,0.07457537949085236,9.091789245605469,-0.6742655038833618,-2.6876842975616455
1403637130858319000,7.843971252441406e-05,0.014162814244627953,0.06825046986341476,9.320455551147461,-0.7136614322662354,-2.6459484100341797
1403637130863319000,0.0009445101022720337,0.007079610601067543,0.07728303968906403,9.230652809143066,-0.7379255890846252,-2.5147976875305176
1403637130868319000,0.0002969801425933838,-0.0014481563121080399,0.08071764558553696,9.47604751586914,-0.6507214903831482,-2.433140993118286
1403637130873319000,-0.00889424979686737,-0.0028620585799217224,0.08704786002635956,9.4599027633667,-0.7255561947822571,-2.302936315536499
1403637130878319000,-0.011126592755317688,-0.0028149187564849854,0.09195924550294876,9.598600387573242,-0.912670373916626,-2.3196027278900146
1403637130883319000,-0.002011924982070923,0.012019464746117592,0.10169395804405212,9.622764587402344,-1.0649348497390747,-2.3278629779815674
1403637130888319000,0.012731343507766724,0.026044247671961784,0.11696897447109222,9.737025260925293,-0.9489995241165161,-2.4992361068725586
1403637130893319000,0.026033803820610046,0.04556010663509369,0.1280965358018875,9.549287796020508,-0.6972492337226868,-2.4913082122802734
1403637130898319000,0.023136571049690247,0.05102575570344925,0.12601575255393982,9.45186710357666,-0.3086507022380829,-2.409848928451538
1403637130903319000,0.009059160947799683,0.04602154344320297,0.11781497299671173,9.174463272094727,-0.22774381935596466,-2.3123111724853516
1403637130908319000,-0.0033873766660690308,0.022940048947930336,0.1074189692735672,9.239710807800293,-0.35738998651504517,-2.328831434249878
1403637130913319000,-0.007477954030036926,0.006924303248524666,0.08777643740177155,9.4112548828125,-0.5116010308265686,-2.451014757156372
1403637130918319000,-0.00048035383224487305,0.001454019919037819,0.0702703520655632,9.558123588562012,-0.5123382806777954,-2.6057910919189453
1403637130923319000,0.00014497339725494385,0.012064957991242409,0.061188727617263794,9.517182350158691,-0.49531295895576477,-2.630028009414673
1403637130928319000,-0.0027405917644500732,0.026793429628014565,0.05699591711163521,9.639511108398438,-0.45312947034835815,-2.629502058029175
1403637130933319000,-0.0027051568031311035,0.035064540803432465,0.062070492655038834,9.484498023986816,-0.517358660697937,-2.4907329082489014
1403637130938319000,-0.0011525899171829224,0.030635902658104897,0.06561440974473953,9.419224739074707,-0.5583523511886597,-2.417815923690796
1403637130943319000,-0.001135990023612976,0.025656579062342644,0.06061825156211853,9.272082328796387,-0.6731120944023132,-2.3774149417877197
1403637130948319000,-0.005455955862998962,0.01385745219886303,0.05571761727333069,9.435229301452637,-0.6417701244354248,-2.4507031440734863
1403637130953319000,-0.00836009532213211,0.013337260112166405,0.05436049774289131,9.427038192749023,-0.6420556902885437,-2.4098665714263916
1403637130958319000,-0.00967879593372345,0.007843716070055962,0.048721425235271454,9.516754150390625,-0.657933235168457,-2.433983325958252
1403637130963319000,-0.011628903448581696,0.012030551210045815,0.057140424847602844,9.45116901397705,-0.7148094773292542,-2.4255318641662598
1403637130968319000,-0.006018608808517456,0.016837505623698235,0.06263170391321182,9.614241600036621,-0.7078703045845032,-2.5067191123962402
1403637130973319000,-0.0033373981714248657,0.027273980900645256,0.06674414873123169,9.541358947753906,-0.6424837112426758,-2.5475995540618896
1403637130978319000,-0.004092462360858917,0.03356422483921051,0.06267829239368439,9.590970039367676,-0.5194514989852905,-2.5480051040649414
1403637130983319000,-0.01177418977022171,0.032207049429416656,0.06830630451440811,9.337955474853516,-0.4614373445510864,-2.524132251739502
1403637130988319000,-0.018702715635299683,0.025917788967490196,0.06404148787260056,9.411382675170898,-0.47004231810569763,-2.556905746459961
1403637130993319000,-0.020084135234355927,0.025190459564328194,0.06620725989341736,9.304930686950684,-0.5353959798812866,-2.524160861968994
1403637130998319000,-0.01867888867855072,0.024476295337080956,0.06270953267812729,9.34538745880127,-0.6174235343933105,-2.5810554027557373
1403637131003319000,-0.020115360617637634,0.020298825576901436,0.07031065225601196,9.25542163848877,-0.5516382455825806,-2.5566279888153076
1403637131008319000,-0.020139627158641815,0.020260939374566078,0.0689394623041153,9.369732856750488,-0.5517405271530151,-2.5404224395751953
1403637131013319000,-0.02288781851530075,0.020954327657818794,0.07383713126182556,9.320793151855469,-0.583835244178772,-2.5079102516174316
1403637131018319000,-0.027033045887947083,0.01955779828131199,0.076571524143219,9.5007963180542,-0.698814868927002,-2.4180314540863037
1403637131023319000,-0.022812485694885254,0.01339777559041977,0.07940009236335754,9.369654655456543,-0.9768389463424683,-2.230213165283203
1403637131028319000,-0.007390961050987244,0.0008214078843593597,0.06406683474779129,9.581389427185059,-1.2142672538757324,-2.083070755004883
1403637131033319000,0.016333408653736115,-0.004846349358558655,0.05988868325948715,9.606071472167969,-1.13224196434021,-2.0667269229888916
1403637131038319000,0.0296219140291214,0.0027737095952033997,0.059858668595552444,9.69754409790039,-0.5856814384460449,-2.1734836101531982
1403637131043319000,0.01908901333808899,0.017537033185362816,0.06962060928344727,9.67322826385498,-0.12892161309719086,-2.3774006366729736
1403637131048319000,-0.008928410708904266,0.0378393679857254,0.06902690976858139,9.770917892456055,0.06749337166547775,-2.646033763885498
1403637131053319000,-0.0313447043299675,0.04971564561128616,0.06414642930030823,9.485275268554688,-0.27406495809555054,-2.613621711730957
1403637131058319000,-0.03479524701833725,0.05669047683477402,0.055017855018377304,9.403191566467285,-0.763449490070343,-2.6297693252563477
1403637131063319000,-0.013798654079437256,0.04695314168930054,0.04531562700867653,9.059294700622559,-1.0983004570007324,-2.4831717014312744
1403637131068319000,0.00993645191192627,0.02873203717172146,0.03481359779834747,9.132652282714844,-0.9768819212913513,-2.5893492698669434
1403637131073319000,0.021015286445617676,0.01538761518895626,0.0313522070646286,9.141237258911133,-0.6917091012001038,-2.6953747272491455
1403637131078319000,0.015433207154273987,0.009079843759536743,0.029962699860334396,9.353896141052246,-0.5442965030670166,-2.743995189666748
1403637131083319000,0.004304245114326477,-0.0041420962661504745,0.04673583060503006,9.19051456451416,-0.5677435994148254,-2.572620153427124
1403637131088319000,-0.0074891597032547,-0.00836808979511261,0.06201449781656265,9.353586196899414,-0.7553925514221191,-2.4581353664398193
1403637131093319000,-0.010255053639411926,-0.00907973200082779,0.08215129375457764,9.402076721191406,-0.9193044304847717,-2.311162233352661
1403637131098319000,-0.009567037224769592,-0.0035124924033880234,0.10162951797246933,9.647212982177734,-0.8793419003486633,-2.3032350540161133
1403637131103319000,-0.006878562271595001,0.00709741935133934,0.12394265085458755,9.61447811126709,-0.9448601603507996,-2.295224189758301
1403637131108319000,-0.004781603813171387,0.02325471304357052,0.1434534192085266,9.786173820495605,-0.836985170841217,-2.4012532234191895
1403637131113319000,-0.002017959952354431,0.03859805315732956,0.1608792245388031,9.712796211242676,-0.8352348208427429,-2.4421260356903076
1403637131118319000,-0.0020134150981903076,0.056031279265880585,0.15793514251708984,9.688374519348145,-0.9013234972953796,-2.425776243209839
1403637131123319000,0.0042479634284973145,0.0595601424574852,0.14329546689987183,9.320433616638184,-1.1725165843963623,-2.238269805908203
1403637131128319000,0.02379019558429718,0.04759819060564041,0.13235965371131897,8.90351390838623,-1.2385473251342773,-2.279099225997925
1403637131133319000,0.05242510139942169,0.013907602056860924,0.13798701763153076,8.937406539916992,-0.8382916450500488,-2.458562135696411
1403637131138319000,0.06298817694187164,0.004102954640984535,0.1379932463169098,9.306427001953125,-0.1695171296596527,-2.7364683151245117
1403637131143319000,0.04766499996185303,0.002840191125869751,0.13601380586624146,9.535404205322266,0.34437981247901917,-2.8100523948669434
1403637131148319000,0.004988044500350952,0.01625661365687847,0.1129399836063385,9.648977279663086,0.3534175455570221,-2.7771236896514893
1403637131153319000,-0.02440246194601059,0.020462317392230034,0.0967724621295929,9.558311462402344,-0.13444648683071136,-2.556579828262329
1403637131158319000,-0.0228559747338295,0.023080656304955482,0.08843936771154404,9.50013542175293,-0.6565460562705994,-2.377173900604248
1403637131163319000,-0.00041612982749938965,0.01593375764787197,0.07940170168876648,9.360952377319336,-0.869914710521698,-2.2308475971221924
1403637131168319000,0.019778728485107422,0.012402718886733055,0.06275315582752228,9.44295597076416,-0.5609013438224792,-2.2964038848876953
1403637131173319000,0.023825161159038544,0.0069717224687337875,0.05241922661662102,9.516858100891113,-0.2755085527896881,-2.3451480865478516
1403637131178319000,0.004950463771820068,0.013365091755986214,0.033495206385850906,9.623632431030273,-0.1363545060157776,-2.320223331451416
1403637131183319000,-0.013778619468212128,0.011994767934083939,0.02714437246322632,9.574923515319824,-0.35571181774139404,-2.2462399005889893
1403637131188319000,-0.02339494228363037,0.01897015981376171,0.0264197438955307,9.54126262664795,-0.633453369140625,-2.3108623027801514
1403637131193319000,-0.015078619122505188,0.019632088020443916,0.03534308820962906,9.67935562133789,-0.9124522805213928,-2.3919317722320557
1403637131198319000,-0.008913829922676086,0.03359391540288925,0.04457036033272743,9.590110778808594,-0.9375687837600708,-2.4658865928649902
1403637131203319000,-0.008296921849250793,0.034989409148693085,0.05519263818860054,9.47702407836914,-0.7892127633094788,-2.4422237873077393
1403637131208319000,-0.0069498345255851746,0.03366521745920181,0.06969477981328964,9.297419548034668,-0.8034927248954773,-2.4426660537719727
1403637131213319000,-0.0048036128282547,0.026660071685910225,0.0751202255487442,9.296893119812012,-0.8761149644851685,-2.417992353439331
1403637131218319000,-0.0026704519987106323,0.025879064574837685,0.0827714204788208,9.28010082244873,-0.9100552201271057,-2.466628313064575
1403637131223319000,0.0007911846041679382,0.01817251555621624,0.09470302611589432,9.296449661254883,-0.8546238541603088,-2.4910008907318115
1403637131228319000,0.004256710410118103,0.011215494945645332,0.10732906311750412,9.3616304397583,-0.7818713784217834,-2.483001708984375
1403637131233319000,0.00012376904487609863,0.004910098388791084,0.10800453275442123,9.4759521484375,-0.7084096074104309,-2.4749746322631836
1403637131238319000,0.003722362220287323,0.012570388615131378,0.10790704935789108,9.484420776367188,-0.6344012022018433,-2.4344146251678467
1403637131243319000,0.0023297742009162903,0.015433358028531075,0.10497062653303146,9.704907417297363,-0.6087188720703125,-2.4747822284698486
1403637131248319000,0.002206087112426758,0.02812478132545948,0.10018554329872131,9.476164817810059,-0.5507697463035583,-2.3769919872283936
1403637131253319000,0.00012680143117904663,0.03297165781259537,0.09547562897205353,9.582343101501465,-0.39542096853256226,-2.5154521465301514
1403637131258319000,-0.004790261387825012,0.03916815668344498,0.09273325651884079,9.402610778808594,-0.49403855204582214,-2.4749979972839355
1403637131263319000,-0.012420959770679474,0.034207507967948914,0.08845223486423492,9.565801620483398,-0.5838081240653992,-2.5565764904022217
1403637131268319000,-0.006829366087913513,0.03701072186231613,0.08359553664922714,9.369575500488281,-0.6738125085830688,-2.46703839302063
1403637131273319000,-0.004049807786941528,0.019525283947587013,0.08151077479124069,9.222949981689453,-0.5926194190979004,-2.312167167663574
1403637131278319000,0.002165958285331726,0.004843445494771004,0.08221931755542755,9.272115707397461,-0.4129129648208618,-2.3854568004608154
1403637131283319000,-0.007511362433433533,0.014706633985042572,0.07738020271062851,9.664262771606445,-0.20925337076187134,-2.6296916007995605
1403637131288319000,-0.02290303260087967,0.021748555824160576,0.06279129534959793,9.419601440429688,-0.1774303913116455,-2.5325498580932617
1403637131293319000,-0.03959936648607254,0.016853680834174156,0.0452614389359951,9.533773422241211,-0.5529863834381104,-2.51591157913208
1403637131298319000,-0.026315197348594666,0.022491319105029106,0.05150340870022774,9.361286163330078,-0.9680811166763306,-2.3766894340515137
1403637131303319000,-0.009567484259605408,0.018903149291872978,0.05562913417816162,9.41023063659668,-1.0578351020812988,-2.3850362300872803
1403637131308319000,0.007119506597518921,0.018159689381718636,0.06331558525562286,9.48377799987793,-0.9849627614021301,-2.360605239868164
1403637131313319000,0.013438433408737183,0.027325527742505074,0.06132369115948677,9.647461891174316,-0.6744904518127441,-2.482743501663208
1403637131318319000,0.011263981461524963,0.023879652842879295,0.05858074128627777,9.231178283691406,-0.5110539197921753,-2.4589991569519043
1403637131323319000,-0.006809398531913757,0.015357853844761848,0.06549248099327087,9.40310287475586,-0.5279925465583801,-2.5076334476470947
1403637131328319000,-0.008201859891414642,0.023093489930033684,0.07734857499599457,9.28048038482666,-0.6578570604324341,-2.4095399379730225
1403637131333319000,-0.0026350319385528564,0.01612321473658085,0.08838581293821335,9.394418716430664,-0.7561941146850586,-2.4503960609436035
1403637131338319000,5.301833152770996e-05,0.013337181881070137,0.0918641984462738,9.565409660339355,-0.8379108309745789,-2.580486297607422
1403637131343319000,0.00642695277929306,0.02945505641400814,0.089127317070961,9.565685272216797,-0.7557896375656128,-2.572453498840332
1403637131348319000,0.011280104517936707,0.033620961010456085,0.09961657971143723,9.378271102905273,-0.5670731067657471,-2.5892927646636963
1403637131353319000,0.004995301365852356,0.03707954287528992,0.09191634505987167,9.492743492126465,-0.3222425580024719,-2.711811065673828
1403637131358319000,-0.008221819996833801,0.038508810102939606,0.0856335237622261,9.354182243347168,-0.25693145394325256,-2.646714448928833
1403637131363319000,-0.022212661802768707,0.03486069291830063,0.07037652283906937,9.263941764831543,-0.396102637052536,-2.556974172592163
1403637131368319000,-0.025088101625442505,0.015988854691386223,0.06831453740596771,9.149291038513184,-0.7887940406799316,-2.3770205974578857
1403637131373319000,-0.017962690442800522,0.0014541801065206528,0.07109677046537399,9.230268478393555,-1.100095272064209,-2.2628016471862793
1403637131378319000,0.003056645393371582,-0.01599128730595112,0.08564913272857666,9.384248733520508,-1.320519208908081,-2.221881151199341
1403637131383319000,0.02255481481552124,-0.008388109505176544,0.0889926329255104,9.678593635559082,-1.206003189086914,-2.2135326862335205
1403637131388319000,0.030914828181266785,-0.008285420015454292,0.0891125425696373,9.704602241516113,-0.9447243213653564,-2.156566858291626
1403637131393319000,0.03162166476249695,0.009182155132293701,0.09066066890954971,9.85263442993164,-0.6017122864723206,-2.1971845626831055
1403637131398319000,0.03021077811717987,0.026662586256861687,0.09412986040115356,9.796300888061523,-0.2990180552005768,-2.2785744667053223
1403637131403319000,0.017667219042778015,0.04545433074235916,0.09686721861362457,9.67382526397705,-0.17647899687290192,-2.4259376525878906
1403637131408319000,-0.0075139328837394714,0.051760099828243256,0.09822621941566467,9.615985870361328,-0.1601950079202652,-2.5730960369110107
1403637131413319000,-0.02371753752231598,0.0636872723698616,0.08840502053499222,9.411637306213379,-0.37251970171928406,-2.614244222640991
1403637131418319000,-0.02586285024881363,0.05251128971576691,0.07871946692466736,9.247681617736816,-0.7477325201034546,-2.540849447250366
1403637131423319000,-0.005507320165634155,0.04196719080209732,0.0704479068517685,9.050392150878906,-1.082195520401001,-2.4591422080993652
1403637131428319000,0.015558257699012756,0.011936651542782784,0.06198856979608536,9.041923522949219,-1.1479123830795288,-2.4099254608154297
1403637131433319000,0.03293905407190323,-0.004941646009683609,0.05293694883584976,9.164734840393066,-0.887771725654602,-2.409618854522705
1403637131438319000,0.04129955172538757,-0.017553146928548813,0.054419003427028656,9.29649829864502,-0.47995680570602417,-2.466461658477783
1403637131443319000,0.024582386016845703,-0.012526366859674454,0.05577888339757919,9.468950271606445,-0.210214763879776,-2.55603289604187
1403637131448319000,-0.0005055516958236694,-0.004724519327282906,0.05992363393306732,9.615962028503418,-0.18452759087085724,-2.5232744216918945
1403637131453319000,-0.0172467902302742,0.006437512114644051,0.06477203220129013,9.57470989227295,-0.40440380573272705,-2.392990827560425
1403637131458319000,-0.020742662250995636,0.01683506928384304,0.07021879404783249,9.70468807220459,-0.6410163044929504,-2.3846325874328613
1403637131463319000,-0.016617558896541595,0.0314917266368866,0.07376538217067719,9.581345558166504,-0.8450841903686523,-2.4093570709228516
1403637131468319000,-0.009653940796852112,0.037800490856170654,0.06967620551586151,9.630257606506348,-0.8366342186927795,-2.5563175678253174
1403637131473319000,-0.0062467604875564575,0.051099054515361786,0.0634046196937561,9.328458786010742,-0.8607543706893921,-2.605597734451294
1403637131478319000,0.0028484463691711426,0.0391659215092659,0.06341299414634705,9.043111801147461,-0.6159689426422119,-2.5813348293304443
1403637131483319000,0.005728378891944885,0.02098601497709751,0.07173997908830643,9.019207000732422,-0.41296663880348206,-2.581097364425659
1403637131488319000,0.0043357014656066895,0.005546916276216507,0.07935193181037903,9.444282531738281,-0.2919458746910095,-2.62947678565979
1403637131493319000,-0.016617029905319214,0.007673921063542366,0.07943306863307953,9.468926429748535,-0.2431737631559372,-2.589040994644165
1403637131498319000,-0.035437509417533875,0.004249116405844688,0.06754520535469055,9.689196586608887,-0.43109485507011414,-2.5482993125915527
1403637131503319000,-0.040296994149684906,0.013438338413834572,0.0674767717719078,9.549514770507812,-0.8296903967857361,-2.4912402629852295
1403637131508319000,-0.030496150255203247,0.015484495088458061,0.07929261028766632,9.606472969055176,-0.9344673752784729,-2.4833545684814453
1403637131513319000,-0.010956615209579468,0.027225321158766747,0.08907273411750793,9.508683204650879,-0.8852640986442566,-2.361114263534546
1403637131518319000,-0.0019598230719566345,0.027909914031624794,0.08427038043737411,9.549962997436523,-0.6488569378852844,-2.4016473293304443
1403637131523319000,-0.004110768437385559,0.0342644527554512,0.07669336348772049,9.32959270477295,-0.48546576499938965,-2.3366177082061768
1403637131528319000,-0.011048935353755951,0.02588062174618244,0.06896072626113892,9.362419128417969,-0.3799537718296051,-2.41813063621521
1403637131533319000,-0.017272792756557465,0.026590606197714806,0.0717351958155632,9.362252235412598,-0.4454863965511322,-2.524062395095825
1403637131538319000,-0.022137559950351715,0.02523091994225979,0.07100607454776764,9.565973281860352,-0.4626014232635498,-2.6055212020874023
1403637131543319000,-0.02704353630542755,0.024567531421780586,0.07586341351270676,9.500407218933105,-0.6263453364372253,-2.5402135848999023
1403637131548319000,-0.02707763761281967,0.028058459982275963,0.07797477394342422,9.639192581176758,-0.879657506942749,-2.5233852863311768
1403637131553319000,-0.021519288420677185,0.035745762288570404,0.08641684055328369,9.337122917175293,-1.025180697441101,-2.31176495552063
1403637131558319000,-0.007487490773200989,0.027337515726685524,0.09330326318740845,9.296202659606934,-1.1638824939727783,-2.2958781719207764
1403637131563319000,0.0071420818567276,0.021738728508353233,0.1051047295331955,9.230600357055664,-1.179911494255066,-2.3283419609069824
1403637131568319000,0.022412262856960297,0.020947670564055443,0.11069406569004059,9.369635581970215,-0.9595547914505005,-2.417894124984741
1403637131573319000,0.02516563981771469,0.022356314584612846,0.12058505415916443,9.403003692626953,-0.6495901346206665,-2.4830055236816406
1403637131578319000,0.013348892331123352,0.02590767852962017,0.12135238200426102,9.477007865905762,-0.3727487325668335,-2.5318634510040283
1403637131583319000,0.001555904746055603,0.0203861054033041,0.1289316713809967,9.403401374816895,-0.25830575823783875,-2.4750399589538574
1403637131588319000,-0.015874192118644714,0.020951321348547935,0.12319990247488022,9.525571823120117,-0.331878662109375,-2.4425106048583984
1403637131593319000,-0.02079480141401291,0.013247247785329819,0.10988271236419678,9.549748420715332,-0.6666879057884216,-2.3118817806243896
1403637131598319000,-0.009625084698200226,0.009823204949498177,0.09115493297576904,9.655159950256348,-0.9200453758239746,-2.3036415576934814
1403637131603319000,0.009898528456687927,0.016206754371523857,0.08429571986198425,9.581470489501953,-1.0011005401611328,-2.311840057373047
1403637131608319000,0.026006944477558136,0.023856880143284798,0.0787041038274765,9.622577667236328,-0.8376943469047546,-2.368853807449341
1403637131613319000,0.0337049663066864,0.021028952673077583,0.08222509175539017,9.467906951904297,-0.5518783926963806,-2.4339661598205566
1403637131618319000,0.028775855898857117,0.02514520473778248,0.07524646073579788,9.460344314575195,-0.29978281259536743,-2.442023754119873
1403637131623319000,0.008457660675048828,0.01885523460805416,0.071051225066185,9.346118927001953,-0.3648626506328583,-2.458317518234253
1403637131628319000,-0.005439527332782745,0.018808169290423393,0.06137273088097572,9.386748313903809,-0.478293240070343,-2.491022825241089
1403637131633319000,-0.006837561726570129,0.017550794407725334,0.06065298244357109,9.39450740814209,-0.7070069313049316,-2.4584221839904785
1403637131638319000,-0.0019574016332626343,0.019021226093173027,0.057784613221883774,9.451177597045898,-0.8544197678565979,-2.540027618408203
1403637131643319000,0.00852687656879425,0.016174757853150368,0.059184372425079346,9.377365112304688,-0.9353610873222351,-2.499156951904297
1403637131648319000,0.016824036836624146,0.02310902811586857,0.06128958985209465,9.418313026428223,-0.746340811252594,-2.5724971294403076
1403637131653319000,0.01957911252975464,0.019606811925768852,0.06687574088573456,9.435179710388184,-0.5831359028816223,-2.564307689666748
1403637131658319000,0.011990413069725037,0.01886957697570324,0.06825297325849533,9.492592811584473,-0.46964511275291443,-2.5643701553344727
1403637131663319000,0.005065709352493286,0.014691812917590141,0.07521337270736694,9.41116714477539,-0.40519455075263977,-2.483096122741699
1403637131668319000,-0.006140992045402527,0.015368953347206116,0.07661786675453186,9.304834365844727,-0.5121327638626099,-2.4180681705474854
1403637131673319000,-0.006820857524871826,0.0035209674388170242,0.08081713318824768,9.443244934082031,-0.5530245900154114,-2.4260518550872803
1403637131678319000,-0.008891060948371887,0.018239518627524376,0.08083871006965637,9.541080474853516,-0.5525688529014587,-2.4749650955200195
1403637131683319000,-0.008941113948822021,0.021024448797106743,0.08074884116649628,9.598237037658691,-0.5519527196884155,-2.4830057621002197
1403637131688319000,-0.010329082608222961,0.031479500234127045,0.07720247656106949,9.565563201904297,-0.5592700242996216,-2.5074503421783447
1403637131693319000,-0.009652316570281982,0.032202109694480896,0.07933150231838226,9.50052547454834,-0.5913985371589661,-2.474769115447998
1403637131698319000,-0.009647354483604431,0.034928373992443085,0.07241368293762207,9.443672180175781,-0.5755285024642944,-2.450518846511841
1403637131703319000,-0.008932918310165405,0.02651279978454113,0.06412488967180252,9.362324714660645,-0.5185158252716064,-2.4669854640960693
1403637131708319000,-0.010301254689693451,0.02307281829416752,0.06068190187215805,9.354165077209473,-0.47844839096069336,-2.4751899242401123
1403637131713319000,-0.01102304458618164,0.015438063070178032,0.05567551404237747,9.484612464904785,-0.5278664827346802,-2.499440908432007
1403637131718319000,-0.016576848924160004,0.02169802226126194,0.04866865277290344,9.476288795471191,-0.633867084980011,-2.4911885261535645
1403637131723319000,-0.01795710250735283,0.019612083211541176,0.04943223297595978,9.476160049438477,-0.7394213676452637,-2.442304849624634
1403637131728319000,-0.014471344649791718,0.021023357287049294,0.050835877656936646,9.312475204467773,-0.8129556179046631,-2.3772811889648438
1403637131733319000,-0.006794683635234833,0.013982776552438736,0.05224491283297539,9.418676376342773,-0.7808597683906555,-2.3852014541625977
1403637131738319000,-0.0040193647146224976,0.019588904455304146,0.06067715212702751,9.435295104980469,-0.7646164298057556,-2.4014432430267334
1403637131743319000,-0.0068343281745910645,0.01820032112300396,0.06056326627731323,9.541936874389648,-0.6745158433914185,-2.4177775382995605
1403637131748319000,-0.006883680820465088,0.025275489315390587,0.072403185069561,9.460179328918457,-0.6330121755599976,-2.4993679523468018
1403637131753319000,-0.012439057230949402,0.02737731672823429,0.07523978501558304,9.51708984375,-0.649642288684845,-2.548240900039673
1403637131758319000,-0.015903249382972717,0.03501273691654205,0.07862935215234756,9.44317626953125,-0.8457701802253723,-2.5644514560699463
1403637131763319000,-0.00751977413892746,0.039214812219142914,0.07931551337242126,9.499920845031738,-1.0828595161437988,-2.5071914196014404
1403637131768319000,0.0008506625890731812,0.03575727343559265,0.08500075340270996,9.164846420288086,-1.1320773363113403,-2.2059133052825928
1403637131773319000,0.017596080899238586,0.009795773774385452,0.09402793645858765,9.140718460083008,-1.0015732049942017,-2.263054370880127
1403637131778319000,0.028758317232131958,0.002044612541794777,0.10800125449895859,9.30453872680664,-0.7972099184989929,-2.3607757091522217
1403637131783319000,0.02171863615512848,-0.0028159581124782562,0.10517793893814087,9.590868949890137,-0.5111538767814636,-2.5400843620300293
1403637131788319000,0.014740504324436188,0.012677228078246117,0.1093425303697586,9.623732566833496,-0.3721858263015747,-2.5481526851654053
1403637131793319000,0.005055166780948639,0.023240817710757256,0.11006014049053192,9.713346481323242,-0.347461074590683,-2.5151426792144775
1403637131798319000,-0.010346904397010803,0.032967619597911835,0.10931719839572906,9.500933647155762,-0.3963177502155304,-2.483076810836792
1403637131803319000,-0.013102464377880096,0.03559797257184982,0.11074443906545639,9.590765953063965,-0.47860464453697205,-2.4669957160949707
1403637131808319000,-0.010349005460739136,0.03908122330904007,0.11077499389648438,9.419008255004883,-0.6334866881370544,-2.475374460220337
1403637131813319000,-0.005529165267944336,0.035646528005599976,0.0988699346780777,9.378015518188477,-0.6577216982841492,-2.45113468170166
1403637131818319000,0.0008214712142944336,0.02172308973968029,0.08714178204536438,9.239056587219238,-0.6412820219993591,-2.401988983154297
1403637131823319000,0.009241938591003418,0.011208556592464447,0.07175714522600174,9.402494430541992,-0.5928802490234375,-2.426079511642456
1403637131828319000,0.007783055305480957,0.007692595943808556,0.06542810052633286,9.280176162719727,-0.42964300513267517,-2.3853838443756104
1403637131833319000,0.0029975026845932007,0.0013757608830928802,0.05505925416946411,9.54977798461914,-0.31635478138923645,-2.4665708541870117
1403637131838319000,-0.0060684531927108765,0.004237102344632149,0.05298592895269394,9.549779891967773,-0.3650089502334595,-2.4824655055999756
1403637131843319000,-0.012425698339939117,0.011203838512301445,0.05084921792149544,9.680780410766602,-0.3477872908115387,-2.523296594619751
1403637131848319000,-0.019365034997463226,0.020341718569397926,0.053635597229003906,9.599165916442871,-0.5025256872177124,-2.515547752380371
1403637131853319000,-0.02285771071910858,0.030154084786772728,0.05636236071586609,9.631542205810547,-0.6251070499420166,-2.5727035999298096
1403637131858319000,-0.020135365426540375,0.039972178637981415,0.06053979694843292,9.48404312133789,-0.77142333984375,-2.572749376296997
1403637131863319000,-0.013859502971172333,0.044792190194129944,0.06198824197053909,9.394054412841797,-0.8857321739196777,-2.5399999618530273
1403637131868319000,-0.00964328646659851,0.03845491260290146,0.07113924622535706,9.149242401123047,-0.8611271977424622,-2.4830822944641113
1403637131873319000,-0.0026662200689315796,0.024443363770842552,0.07877682149410248,9.173873901367188,-0.6662601232528687,-2.4344708919525146
1403637131878319000,-0.005465105175971985,0.0076469238847494125,0.08498396724462509,9.149518966674805,-0.5935527086257935,-2.4100890159606934
1403637131883319000,-0.011724844574928284,-0.0014600958675146103,0.08561068773269653,9.484664916992188,-0.4956439435482025,-2.458742380142212
1403637131888319000,-0.017983071506023407,0.004256805405020714,0.07930760830640793,9.500768661499023,-0.6501984000205994,-2.4093687534332275
1403637131893319000,-0.012364596128463745,0.006440626457333565,0.07512155175209045,9.688250541687012,-0.7070216536521912,-2.498713493347168
1403637131898319000,-0.005361154675483704,0.02043992467224598,0.08146438747644424,9.639190673828125,-0.8454965949058533,-2.4172959327697754
1403637131903319000,0.0016100704669952393,0.0280147772282362,0.08141700178384781,9.63914966583252,-0.8289758563041687,-2.4257352352142334
1403637131908319000,0.009213641285896301,0.038399145007133484,0.08840901404619217,9.492459297180176,-0.7548477649688721,-2.4423234462738037
1403637131913319000,0.005660943686962128,0.039834313094615936,0.08635932207107544,9.500832557678223,-0.6898279190063477,-2.4913363456726074
1403637131918319000,0.0021909326314926147,0.03986895829439163,0.09195537120103836,9.22315502166748,-0.673385739326477,-2.458956241607666
1403637131923319000,0.0036222711205482483,0.02517988719046116,0.0926828682422638,9.30478572845459,-0.6496952772140503,-2.491497755050659
1403637131928319000,0.0028920024633407593,0.018179619684815407,0.09197907149791718,9.296449661254883,-0.6666101813316345,-2.4913082122802734
1403637131933319000,-0.0005735009908676147,0.012608489021658897,0.08915812522172928,9.394305229187012,-0.5935518741607666,-2.4996469020843506
1403637131938319000,-0.0005693584680557251,0.011210711672902107,0.08501807600259781,9.320832252502441,-0.6422403454780579,-2.4750072956085205
1403637131943319000,0.0015251636505126953,0.014038803055882454,0.07729357481002808,9.51688003540039,-0.6173373460769653,-2.4748005867004395
1403637131948319000,0.001539573073387146,0.015458738431334496,0.0654294416308403,9.443373680114746,-0.6899808049201965,-2.466668128967285
1403637131953319000,0.006498083472251892,0.0181868989020586,0.061235882341861725,9.574163436889648,-0.6415321230888367,-2.466646671295166
1403637131958319000,0.00920046865940094,0.021685229614377022,0.06337685883045197,9.378167152404785,-0.6168114542961121,-2.4259884357452393
1403637131963319000,0.011308379471302032,0.01678168587386608,0.05992599576711655,9.54147720336914,-0.5279549956321716,-2.409611225128174
1403637131968319000,0.004388704895973206,0.019578726962208748,0.05860510468482971,9.48431396484375,-0.5362690687179565,-2.3036391735076904
1403637131973319000,0.0008794665336608887,0.013970283791422844,0.05507247895002365,9.435436248779297,-0.5450039505958557,-2.279439687728882
1403637131978319000,-0.0019267499446868896,0.004883753135800362,0.05639273300766945,9.361665725708008,-0.6511388421058655,-2.2305428981781006
1403637131983319000,-0.002610146999359131,0.002099035307765007,0.04870457202196121,9.59834098815918,-0.6348318457603455,-2.311776876449585
1403637131988319000,-0.003320351243019104,0.009146098047494888,0.04246635362505913,9.582505226135254,-0.511791467666626,-2.3850858211517334
1403637131993319000,-0.008238956332206726,0.01686841808259487,0.03969702869653702,9.648199081420898,-0.43871989846229553,-2.45021653175354
1403637131998319000,-0.015222504734992981,0.029508566483855247,0.04949051886796951,9.42762565612793,-0.5030146837234497,-2.4666168689727783
1403637132003319000,-0.016600310802459717,0.03718516230583191,0.052222855389118195,9.541844367980957,-0.551490306854248,-2.5235977172851562
1403637132008319000,-0.01733313873410225,0.03917399048805237,0.05776328593492508,9.435602188110352,-0.6976496577262878,-2.662219285964966
1403637132013319000,-0.013839498162269592,0.04541109502315521,0.05707035958766937,9.386675834655762,-0.7142770290374756,-2.678926706314087
1403637132018319000,-0.010332003235816956,0.03428533673286438,0.05920359864830971,9.149551391601562,-0.7390494346618652,-2.5648913383483887
1403637132023319000,-0.008251972496509552,0.020961379632353783,0.06551042199134827,9.296353340148926,-0.6662474274635315,-2.605478286743164
1403637132028319000,-0.00686413049697876,0.011184107512235641,0.06972109526395798,9.124996185302734,-0.6411919593811035,-2.5647871494293213
1403637132033319000,-0.014504238963127136,0.0013756509870290756,0.07100001722574234,9.329269409179688,-0.6416200399398804,-2.5240604877471924
1403637132038319000,-0.01384146511554718,-0.002743871882557869,0.07380309700965881,9.312337875366211,-0.7720745205879211,-2.433852434158325
1403637132043319000,-0.013805769383907318,-0.0006035212427377701,0.08072960376739502,9.549237251281738,-0.747916579246521,-2.384827136993408
1403637132048319000,-0.005387157201766968,0.004969332367181778,0.08909475058317184,9.598404884338379,-0.7643429040908813,-2.3115522861480713
1403637132053319000,-0.0011365711688995361,0.01049550250172615,0.08702828735113144,9.721297264099121,-0.6832590103149414,-2.287130355834961
1403637132058319000,0.003692835569381714,0.01821702904999256,0.09052905440330505,9.606902122497559,-0.625598669052124,-2.2954647541046143
1403637132063319000,0.0002012103796005249,0.02868853323161602,0.07866664230823517,9.696736335754395,-0.5520747303962708,-2.360722064971924
1403637132068319000,-0.004038408398628235,0.039861828088760376,0.08150846511125565,9.550091743469238,-0.4618009626865387,-2.417820930480957
1403637132073319000,-0.010998748242855072,0.03990338742733002,0.0745333880186081,9.542216300964355,-0.4380161762237549,-2.4588100910186768
1403637132078319000,-0.015251219272613525,0.039177730679512024,0.07448315620422363,9.305075645446777,-0.5112396478652954,-2.418382406234741
1403637132083319000,-0.01450897753238678,0.029356149956583977,0.07174405455589294,9.378331184387207,-0.6665549278259277,-2.4264638423919678
1403637132088319000,-0.006867490708827972,0.02655097283422947,0.07038792222738266,9.304502487182617,-0.8050137758255005,-2.426116704940796
1403637132093319000,0.0029264241456985474,0.02030395157635212,0.06828475743532181,9.361815452575684,-0.7316363453865051,-2.4587666988372803
1403637132098319000,0.008505493402481079,0.014063989743590355,0.0704117864370346,9.321163177490234,-0.6661055088043213,-2.450676441192627
1403637132103319000,0.00854356586933136,0.010531028732657433,0.06196387857198715,9.525423049926758,-0.46211668848991394,-2.483120918273926
1403637132108319000,-0.0005548149347305298,0.006980409845709801,0.06406418979167938,9.46047592163086,-0.4132251441478729,-2.4505128860473633
1403637132113319000,-0.010292604565620422,0.011179765686392784,0.059223905205726624,9.648355484008789,-0.31576821208000183,-2.4830033779144287
1403637132118319000,-0.01866871863603592,0.01960921101272106,0.06617708504199982,9.541997909545898,-0.3068399727344513,-2.4423258304595947
1403637132123319000,-0.032644689083099365,0.025943255051970482,0.0578162856400013,9.598875999450684,-0.27448585629463196,-2.483241558074951
1403637132128319000,-0.03896082192659378,0.028029678389430046,0.05568516626954079,9.525071144104004,-0.49490079283714294,-2.4913792610168457
1403637132133319000,-0.038263678550720215,0.03360524773597717,0.050771564245224,9.532869338989258,-0.6990141868591309,-2.5157294273376465
1403637132138319000,-0.027799054980278015,0.03433336317539215,0.05079152435064316,9.410055160522461,-0.94342440366745,-2.499191999435425
1403637132143319000,-0.015878386795520782,0.03572320193052292,0.04940733313560486,9.434513092041016,-1.0252208709716797,-2.547819137573242
1403637132148319000,-0.002625897526741028,0.03786700218915939,0.06267327070236206,9.295941352844238,-1.0250533819198608,-2.5722744464874268
1403637132153319000,0.0001249462366104126,0.035716764628887177,0.07100609689950943,9.329133987426758,-0.8703363537788391,-2.6049866676330566
1403637132158319000,0.0035809725522994995,0.027999484911561012,0.08849812299013138,9.051575660705566,-0.9597909450531006,-2.5235483646392822
1403637132163319000,0.009229794144630432,0.01748238317668438,0.10034961998462677,9.22296142578125,-0.9185125827789307,-2.507326126098633
1403637132168319000,0.012657731771469116,0.010497193783521652,0.11213608831167221,9.206704139709473,-0.8937408328056335,-2.499114751815796
1403637132173319000,0.01549435406923294,0.004189407452940941,0.11838003993034363,9.47628116607666,-0.7396303415298462,-2.474808692932129
1403637132178319000,0.01546834409236908,0.007727865129709244,0.12398163229227066,9.508809089660645,-0.6661994457244873,-2.393336057662964
1403637132183319000,0.013371773064136505,0.006340561434626579,0.12182974815368652,9.655789375305176,-0.5765100121498108,-2.377122163772583
1403637132188319000,0.01270388811826706,0.015386058017611504,0.11698637902736664,9.590519905090332,-0.5433865785598755,-2.3039987087249756
1403637132193319000,0.012762948870658875,0.022377850487828255,0.10932859033346176,9.647856712341309,-0.49482491612434387,-2.3204290866851807
1403637132198319000,0.01620940864086151,0.02377706579864025,0.10164114832878113,9.525284767150879,-0.5360986590385437,-2.3121747970581055
1403637132203319000,0.01831473410129547,0.028706246986985207,0.09473764896392822,9.680574417114258,-0.34094393253326416,-2.4261257648468018
1403637132208319000,0.00782802700996399,0.0356881320476532,0.08294345438480377,9.574602127075195,-0.3078984022140503,-2.4832301139831543
1403637132213319000,0.004336103796958923,0.036364324390888214,0.07038518041372299,9.550027847290039,-0.29138776659965515,-2.507737398147583
1403637132218319000,-0.00683806836605072,0.03428062051534653,0.06276773661375046,9.321340560913086,-0.2984088063240051,-2.532397747039795
1403637132223319000,-0.011744961142539978,0.025888385251164436,0.05366716533899307,9.370365142822266,-0.3152218163013458,-2.5405216217041016
1403637132228319000,-0.020840518176555634,0.02162810228765011,0.04459086433053017,9.313056945800781,-0.46133527159690857,-2.589252471923828
1403637132233319000,-0.023667708039283752,0.019538095220923424,0.036938585340976715,9.419357299804688,-0.5105127096176147,-2.572878360748291
1403637132238319000,-0.022941701114177704,0.018243933096528053,0.03205348923802376,9.329378128051758,-0.6164302825927734,-2.5401408672332764
1403637132243319000,-0.019381821155548096,0.016843212768435478,0.03273667395114899,9.410626411437988,-0.7556334137916565,-2.5563199520111084
1403637132248319000,-0.012362256646156311,0.014045538380742073,0.041845083236694336,9.25495719909668,-0.9432726502418518,-2.433858871459961
1403637132253319000,-0.005389481782913208,0.010538849979639053,0.04244645684957504,9.385313987731934,-1.0672506093978882,-2.303255081176758
1403637132258319000,0.005804695188999176,0.008459063246846199,0.05501453951001167,9.336039543151855,-1.1243362426757812,-2.2623088359832764
1403637132263319000,0.016283541917800903,0.0021440815180540085,0.07383934408426285,9.540811538696289,-0.944930374622345,-2.278683662414551
1403637132268319000,0.017662614583969116,0.007724670693278313,0.09120187163352966,9.516921997070312,-0.7979734539985657,-2.2951667308807373
1403637132273319000,0.010670579969882965,0.010526025667786598,0.09471932053565979,9.623680114746094,-0.6108158826828003,-2.2790143489837646
1403637132278319000,0.005708910524845123,0.013361042365431786,0.10309857130050659,9.566553115844727,-0.5361577868461609,-2.3035147190093994
1403637132283319000,0.0008204057812690735,0.02313489280641079,0.10159000754356384,9.648100852966309,-0.5274953842163086,-2.360637903213501
1403637132288319000,0.0029264092445373535,0.02591034583747387,0.09815368801355362,9.56622314453125,-0.5925489068031311,-2.3932747840881348
1403637132293319000,0.005049444735050201,0.03147924691438675,0.09055571258068085,9.598880767822266,-0.5354775786399841,-2.5402231216430664
1403637132298319000,0.008472949266433716,0.03988580405712128,0.08561877906322479,9.42750072479248,-0.45341503620147705,-2.5812811851501465
1403637132303319000,0.00010956078767776489,0.040584392845630646,0.07589935511350632,9.40310001373291,-0.3476383686065674,-2.646719217300415
1403637132308319000,-0.010369956493377686,0.037745505571365356,0.07602432370185852,9.223549842834473,-0.3389812111854553,-2.646759510040283
1403637132313319000,-0.013850584626197815,0.026554806157946587,0.0724814385175705,9.2479248046875,-0.39617037773132324,-2.58962082862854
1403637132318319000,-0.02014382928609848,0.023059187456965446,0.07523788511753082,9.182103157043457,-0.6652228236198425,-2.5404958724975586
1403637132323319000,-0.019396550953388214,0.009769430384039879,0.07732906937599182,9.418478965759277,-0.8291192650794983,-2.5399770736694336
1403637132328319000,-0.009644389152526855,0.00704934261739254,0.08357439935207367,9.377408981323242,-0.951794445514679,-2.43388295173645
1403637132333319000,-0.0019690170884132385,0.007753452286124229,0.09191824495792389,9.516118049621582,-0.9844188690185547,-2.4094841480255127
1403637132338319000,0.007137604057788849,0.011228589341044426,0.10031871497631073,9.491697311401367,-0.9429924488067627,-2.3440425395965576
1403637132343319000,0.014173313975334167,0.01264197938144207,0.10999724268913269,9.655616760253906,-0.7719709277153015,-2.3683648109436035
1403637132348319000,0.01339682936668396,0.021693864837288857,0.11419790238142014,9.615291595458984,-0.649761974811554,-2.3358492851257324
1403637132353319000,0.006420396268367767,0.02517382614314556,0.11703450977802277,9.591129302978516,-0.5602880716323853,-2.3197805881500244
1403637132358319000,0.006448499858379364,0.033552542328834534,0.12122556567192078,9.476653099060059,-0.5687664747238159,-2.2955989837646484
1403637132363319000,0.011301204562187195,0.03010621853172779,0.11837272346019745,9.549637794494629,-0.6264201402664185,-2.4015698432922363
1403637132368319000,0.011284485459327698,0.03499279171228409,0.11629923433065414,9.435221672058105,-0.674749493598938,-2.46697735786438
1403637132373319000,0.019688963890075684,0.03774136304855347,0.110746368765831,9.492406845092773,-0.5519518256187439,-2.5647923946380615
1403637132378319000,0.01610630750656128,0.03706228733062744,0.11216692626476288,9.30496883392334,-0.38851529359817505,-2.5975282192230225
1403637132383319000,0.009828679263591766,0.031465426087379456,0.10732422769069672,9.32970905303955,-0.28250768780708313,-2.6873772144317627
1403637132388319000,0.0022393912076950073,0.026548122987151146,0.10176447778940201,9.3216552734375,-0.33101436495780945,-2.630229949951172
1403637132393319000,-0.006167113780975342,0.023022430017590523,0.0843028873205185,9.345975875854492,-0.3881131410598755,-2.5731918811798096
1403637132398319000,-0.00967174768447876,0.011865237727761269,0.07176696509122849,9.239514350891113,-0.45320597290992737,-2.4917335510253906
1403637132403319000,-0.010305933654308319,0.004921404644846916,0.06480371206998825,9.418829917907715,-0.4780743420124054,-2.458876371383667
1403637132408319000,-0.011709898710250854,0.004208408296108246,0.0599052719771862,9.451314926147461,-0.5352159142494202,-2.401637315750122
1403637132413319000,-0.015902996063232422,0.0013545714318752289,0.052241161465644836,9.557705879211426,-0.4701397120952606,-2.3608803749084473
1403637132418319000,-0.015115626156330109,0.0063221268355846405,0.04389471560716629,9.565937995910645,-0.5272159576416016,-2.279193878173828
1403637132423319000,-0.0109395831823349,0.010535940527915955,0.03616289794445038,9.671682357788086,-0.6744728088378906,-2.327596426010132
1403637132428319000,-0.010957151651382446,0.02382235787808895,0.035488784313201904,9.663775444030762,-0.7154737710952759,-2.3111860752105713
1403637132433319000,-0.012346982955932617,0.030831074342131615,0.035497866570949554,9.680521011352539,-0.6752831935882568,-2.384634017944336
1403637132438319000,-0.01450471580028534,0.03715670108795166,0.044575080275535583,9.468356132507324,-0.6342167258262634,-2.425769567489624
1403637132443319000,-0.01660902053117752,0.036423102021217346,0.04597928002476692,9.451884269714355,-0.6750300526618958,-2.4585020542144775
1403637132448319000,-0.015899308025836945,0.03496928513050079,0.055754147469997406,9.304890632629395,-0.7970991730690002,-2.4911162853240967
1403637132453319000,-0.012411937117576599,0.0237822737544775,0.059918180108070374,9.272396087646484,-0.7806357741355896,-2.4749832153320312
1403637132458319000,-0.009674206376075745,0.02030947618186474,0.06474168598651886,9.206886291503906,-0.7725796699523926,-2.4343457221984863
1403637132463319000,0.0015278905630111694,0.007031561806797981,0.070319265127182,9.312662124633789,-0.7975738048553467,-2.458641529083252
1403637132468319000,0.005054742097854614,0.008398862555623055,0.07591936737298965,9.378095626831055,-0.7232673764228821,-2.4993247985839844
1403637132473319000,0.005032151937484741,0.009132999926805496,0.07799987494945526,9.492551803588867,-0.6494295001029968,-2.5320162773132324
1403637132478319000,0.002952985465526581,0.01755962334573269,0.08150659501552582,9.42714786529541,-0.698329746723175,-2.491163492202759
1403637132483319000,-0.0005430430173873901,0.012653322890400887,0.08768893778324127,9.541315078735352,-0.6823078989982605,-2.4584176540374756
1403637132488319000,-0.004054121673107147,0.023117514327168465,0.09321050345897675,9.484073638916016,-0.7881720662117004,-2.4257936477661133
1403637132493319000,0.0022792071104049683,0.020290063694119453,0.09959027171134949,9.459718704223633,-0.7476056218147278,-2.320065498352051
1403637132498319000,0.007839113473892212,0.020970331504940987,0.10105016827583313,9.427087783813477,-0.6583250164985657,-2.3038644790649414
1403637132503319000,0.012690216302871704,0.016112303361296654,0.10380788147449493,9.524918556213379,-0.6016736626625061,-2.3282172679901123
1403637132508319000,0.012715637683868408,0.016775542870163918,0.09056459367275238,9.54951286315918,-0.4863954186439514,-2.4259960651397705
1403637132513319000,0.0028977170586586,0.01816350407898426,0.07936439663171768,9.541637420654297,-0.4619361162185669,-2.4505116939544678
1403637132518319000,-0.004069037735462189,0.01891935057938099,0.06823071837425232,9.443869590759277,-0.4137631356716156,-2.377129554748535
1403637132523319000,-0.007496930658817291,0.013327732682228088,0.061984751373529434,9.403082847595215,-0.44671809673309326,-2.38539457321167
1403637132528319000,-0.008895307779312134,0.018193157389760017,0.05784827843308449,9.525583267211914,-0.47076159715652466,-2.4178078174591064
1403637132533319000,-0.0075305551290512085,0.016783667728304863,0.06136045604944229,9.52560806274414,-0.478922039270401,-2.4505362510681152
1403637132538319000,-0.009617209434509277,0.022416992112994194,0.0508493110537529,9.484824180603027,-0.4140203595161438,-2.4426429271698
1403637132543319000,-0.013835400342941284,0.01893332041800022,0.04806164279580116,9.484493255615234,-0.42995399236679077,-2.458815336227417
1403637132548319000,-0.017985589802265167,0.022404389455914497,0.03761851787567139,9.517108917236328,-0.49459895491600037,-2.458667278289795
1403637132553319000,-0.015859883278608322,0.026544122025370598,0.029879644513130188,9.533284187316895,-0.5028602480888367,-2.5074167251586914
1403637132558319000,-0.022881366312503815,0.025921067222952843,0.02578916773200035,9.468143463134766,-0.5687516331672668,-2.523754835128784
1403637132563319000,-0.019396379590034485,0.025945404544472694,0.024376899003982544,9.402494430541992,-0.7481899857521057,-2.5562164783477783
1403637132568319000,-0.020077228546142578,0.02802945487201214,0.03407341241836548,9.345381736755371,-0.7879786491394043,-2.531773328781128
1403637132573319000,-0.01174444705247879,0.02382957749068737,0.048773668706417084,9.296395301818848,-0.8533734679222107,-2.5236034393310547
1403637132578319000,-0.010976359248161316,0.022440647706389427,0.05569608509540558,9.353628158569336,-0.7312958240509033,-2.507392406463623
1403637132583319000,-0.00824323296546936,0.015437638387084007,0.06614077836275101,9.328837394714355,-0.7639941573143005,-2.5073249340057373
1403637132588319000,-0.008950836956501007,0.013995861634612083,0.07315134257078171,9.410542488098145,-0.7638704180717468,-2.5153608322143555
1403637132593319000,-0.009635642170906067,0.010465754196047783,0.07586700469255447,9.45974063873291,-0.7476795315742493,-2.393094539642334
1403637132598319000,-0.007469251751899719,0.010538434609770775,0.0807611495256424,9.468010902404785,-0.7319516539573669,-2.344447135925293
1403637132603319000,-0.006100974977016449,0.009810587391257286,0.08213849365711212,9.451512336730957,-0.7320603132247925,-2.3202154636383057
1403637132608319000,-0.006798863410949707,0.010516082867980003,0.07645948231220245,9.590401649475098,-0.7074750065803528,-2.393411159515381
1403637132613319000,0.0008436292409896851,0.01261925883591175,0.08215481787919998,9.574116706848145,-0.6989141702651978,-2.4177305698394775
1403637132618319000,0.0015620589256286621,0.02732021175324917,0.08634393662214279,9.631391525268555,-0.6825892329216003,-2.4746816158294678
1403637132623319000,0.003639630973339081,0.0315515398979187,0.09259653091430664,9.46807861328125,-0.6660533547401428,-2.4667255878448486
1403637132628319000,0.005760520696640015,0.03641407936811447,0.09410038590431213,9.443643569946289,-0.6170075535774231,-2.434373617172241
1403637132633319000,0.0063842907547950745,0.032179102301597595,0.09611573815345764,9.40260124206543,-0.706447184085846,-2.4995312690734863
1403637132638319000,0.0028796792030334473,0.03424268215894699,0.09048318862915039,9.410956382751465,-0.7150006294250488,-2.4833173751831055
1403637132643319000,0.004288144409656525,0.027253558859229088,0.09547789394855499,9.29661750793457,-0.6821741461753845,-2.4508304595947266
1403637132648319000,0.0035851895809173584,0.021707406267523766,0.10028959810733795,9.386423110961914,-0.6904261708259583,-2.4833123683929443
1403637132653319000,6.447732448577881e-05,0.016117414459586143,0.11142006516456604,9.353644371032715,-0.7145513296127319,-2.4506680965423584
1403637132658319000,-0.000569365918636322,0.013977091759443283,0.11498232185840607,9.484339714050293,-0.7397345304489136,-2.4750611782073975
1403637132663319000,0.004269614815711975,0.015394626185297966,0.1233188584446907,9.443355560302734,-0.7559752464294434,-2.4177210330963135
1403637132668319000,0.00917784869670868,0.016823643818497658,0.12952393293380737,9.574061393737793,-0.7065646052360535,-2.450131416320801
1403637132673319000,0.012021966278553009,0.02519899047911167,0.12954401969909668,9.48432445526123,-0.616767942905426,-2.409635543823242
1403637132678319000,0.01061849296092987,0.029385780915617943,0.11699138581752777,9.549818992614746,-0.47049880027770996,-2.499459743499756
1403637132683319000,0.004969403147697449,0.0314679816365242,0.10658495873212814,9.410943984985352,-0.42940929532051086,-2.5159831047058105
1403637132688319000,-0.0005630999803543091,0.033596500754356384,0.09265555441379547,9.517029762268066,-0.32308220863342285,-2.540350914001465
1403637132693319000,-0.0026475638151168823,0.03144630789756775,0.08499744534492493,9.40260124206543,-0.4128718972206116,-2.5564956665039062
1403637132698319000,-0.004051476716995239,0.02514985390007496,0.07592891156673431,9.435258865356445,-0.5032112002372742,-2.531937599182129
1403637132703319000,0.0015293210744857788,0.023764094337821007,0.07033132761716843,9.312445640563965,-0.5927126407623291,-2.4668161869049072
1403637132708319000,0.0050388723611831665,0.016802674159407616,0.058501582592725754,9.451213836669922,-0.6173908710479736,-2.515615940093994
1403637132713319000,0.0022090375423431396,0.015369800850749016,0.06065789610147476,9.459437370300293,-0.6823179721832275,-2.539844036102295
1403637132718319000,0.0015525147318840027,0.016792362555861473,0.06271547079086304,9.492315292358398,-0.6903221011161804,-2.5072858333587646
1403637132723319000,0.002956174314022064,0.013314573094248772,0.07941263169050217,9.40256404876709,-0.7884956002235413,-2.393061637878418
1403637132728319000,0.00014711171388626099,0.018204698339104652,0.09194765985012054,9.4841890335083,-0.8048456907272339,-2.3930349349975586
1403637132733319000,0.002246469259262085,0.017511164769530296,0.11213274300098419,9.443479537963867,-0.821087658405304,-2.2954049110412598
1403637132738319000,0.004333987832069397,0.01958947815001011,0.12119722366333008,9.549773216247559,-0.7884742021560669,-2.311786651611328
1403637132743319000,0.002883702516555786,0.02308402769267559,0.12260595709085464,9.468162536621094,-0.7066859602928162,-2.2874600887298584
1403637132748319000,0.002252250909805298,0.019603366032242775,0.11349434405565262,9.59912395477295,-0.5276273488998413,-2.3039145469665527
1403637132753319000,0.008535996079444885,0.023776603862643242,0.1044362485408783,9.541900634765625,-0.48674604296684265,-2.3283321857452393
1403637132758319000,0.0008375644683837891,0.022389264777302742,0.09052635729312897,9.6482515335083,-0.3562183082103729,-2.3690290451049805
1403637132763319000,-0.0012528523802757263,0.02381044439971447,0.07662417739629745,9.542070388793945,-0.2991366684436798,-2.4098215103149414
1403637132768319000,-0.004687771201133728,0.027290908619761467,0.060568228363990784,9.63984489440918,-0.3161527216434479,-2.491206645965576
1403637132773319000,-0.009647727012634277,0.03360337018966675,0.046611934900283813,9.492774963378906,-0.42177775502204895,-2.4993650913238525
1403637132778319000,-0.013773322105407715,0.03360354155302048,0.04248135909438133,9.427530288696289,-0.46243152022361755,-2.4996156692504883
1403637132783319000,-0.011001147329807281,0.03217286616563797,0.04325731471180916,9.263873100280762,-0.5761615633964539,-2.483336925506592
1403637132788319000,-0.011759355664253235,0.02588396705687046,0.043259598314762115,9.345342636108398,-0.617038905620575,-2.564680576324463
1403637132793319000,-0.009648889303207397,0.023744789883494377,0.04188452661037445,9.328843116760254,-0.7637652158737183,-2.5643227100372314
1403637132798319000,-0.009586215019226074,0.02030506543815136,0.041093237698078156,9.426789283752441,-0.8536335229873657,-2.588566780090332
1403637132803319000,-0.008978486061096191,0.018975699320435524,0.04590244218707085,9.353097915649414,-1.0000982284545898,-2.5151419639587402
1403637132808319000,0.003660641610622406,0.011260906234383583,0.06122274324297905,9.516153335571289,-1.016985297203064,-2.466054677963257
1403637132813319000,0.016249313950538635,0.01192270778119564,0.08219009637832642,9.377614974975586,-0.9025435447692871,-2.433626174926758
1403637132818319000,0.0154985710978508,0.011883871629834175,0.09753856807947159,9.443624496459961,-0.6494888067245483,-2.4828665256500244
1403637132823319000,0.004298023879528046,0.021010423079133034,0.10943354666233063,9.460126876831055,-0.48605838418006897,-2.4748106002807617
1403637132828319000,-0.005480833351612091,0.029450545087456703,0.11004438996315002,9.582365989685059,-0.486346572637558,-2.58085560798645
1403637132833319000,-0.008988209068775177,0.03501220792531967,0.10997918248176575,9.43540096282959,-0.5024669766426086,-2.5159244537353516
1403637132838319000,-0.0081997811794281,0.03357294946908951,0.10301326215267181,9.418973922729492,-0.5685059428215027,-2.3774945735931396
1403637132843319000,-0.002630792558193207,0.03353305160999298,0.10165195167064667,9.353217124938965,-0.5931409001350403,-2.3936665058135986
1403637132848319000,6.780028343200684e-05,0.02232254482805729,0.09682457149028778,9.426841735839844,-0.5528634786605835,-2.442626714706421
1403637132853319000,-0.004792310297489166,0.0258363988250494,0.08709505200386047,9.46820068359375,-0.48728787899017334,-2.4101052284240723
1403637132858319000,-0.006797865033149719,0.0209906417876482,0.08357812464237213,9.55003547668457,-0.46245715022087097,-2.450681209564209
1403637132863319000,-0.018675506114959717,0.0279987845569849,0.08841948211193085,9.501184463500977,-0.5272729396820068,-2.40177059173584
1403637132868319000,-0.02009858936071396,0.02870851941406727,0.09605999290943146,9.607260704040527,-0.5845479965209961,-2.4179868698120117
1403637132873319000,-0.020082086324691772,0.03638526797294617,0.1024254709482193,9.574568748474121,-0.6982511878013611,-2.4177889823913574
1403637132878319000,-0.013828903436660767,0.039163507521152496,0.10453978925943375,9.566123962402344,-0.7306323647499084,-2.425978422164917
1403637132883319000,-0.009637251496315002,0.044764697551727295,0.10448440909385681,9.451796531677246,-0.7384746670722961,-2.4751553535461426
1403637132888319000,-0.0047376155853271484,0.04408001899719238,0.09609661996364594,9.451927185058594,-0.624398946762085,-2.458925247192383
1403637132893319000,-0.006851948797702789,0.04195001721382141,0.08772200345993042,9.427637100219727,-0.5101149082183838,-2.4508018493652344
1403637132898319000,-0.006176367402076721,0.03563840687274933,0.07869244366884232,9.354009628295898,-0.4782543182373047,-2.426396131515503
1403637132903319000,-0.010298319160938263,0.028645982965826988,0.06341958045959473,9.394708633422852,-0.47079554200172424,-2.4261250495910645
1403637132908319000,-0.01731078326702118,0.026554694399237633,0.05092208832502365,9.41098403930664,-0.43034958839416504,-2.393463134765625
1403637132913319000,-0.020045451819896698,0.014022497460246086,0.03484905883669853,9.362082481384277,-0.48786821961402893,-2.3934195041656494
1403637132918319000,-0.021437548100948334,0.007693106308579445,0.03194675222039223,9.54967975616455,-0.6108232140541077,-2.401413679122925
1403637132923319000,-0.021464325487613678,0.016141725704073906,0.029874136671423912,9.533095359802246,-0.7247263193130493,-2.368645668029785
1403637132928319000,-0.018654465675354004,0.020353173837065697,0.036876097321510315,9.508460998535156,-0.9118312001228333,-2.352200746536255
1403637132933319000,-0.019364576786756516,0.02952350117266178,0.04738156870007515,9.483823776245117,-1.0417811870574951,-2.368368148803711
1403637132938319000,-0.006836012005805969,0.025319242849946022,0.06483437865972519,9.344925880432129,-1.12338125705719,-2.392939567565918
1403637132943319000,-0.0026385560631752014,0.02801668830215931,0.08499792963266373,9.263442993164062,-1.0824216604232788,-2.409466028213501
1403637132948319000,-0.0034343302249908447,0.021695630624890327,0.10864336788654327,9.23106861114502,-1.0736533403396606,-2.4910337924957275
1403637132953319000,-0.004161261022090912,0.02317650429904461,0.12811164557933807,9.370208740234375,-0.959026575088501,-2.5400030612945557
1403637132958319000,-0.0055883824825286865,0.023234454914927483,0.14484646916389465,9.353950500488281,-0.9264209270477295,-2.588986873626709
1403637132963319000,-0.0027562379837036133,0.02179102785885334,0.1643775999546051,9.378536224365234,-0.9100779891014099,-2.564533233642578
1403637132968319000,-0.0020216256380081177,0.007779182866215706,0.1748029887676239,9.304847717285156,-0.902413547039032,-2.4096667766571045
1403637132973319000,0.006348840892314911,-0.0007050670683383942,0.1733597218990326,9.353878021240234,-0.8295953273773193,-2.344569206237793
1403637132978319000,0.01051253080368042,-0.0091318991035223,0.16991683840751648,9.403215408325195,-0.5847532749176025,-2.3611373901367188
1403637132983319000,0.009207889437675476,-0.013307666406035423,0.15598103404045105,9.54252815246582,-0.3890931010246277,-2.328742504119873
1403637132988319000,0.002970360219478607,-0.022320104762911797,0.13583743572235107,9.558723449707031,-0.25089043378829956,-2.3042988777160645
1403637132993319000,-0.006121806800365448,-0.01878214441239834,0.11221026629209518,9.664687156677246,-0.2429528832435608,-2.3691282272338867
1403637132998319000,-0.011660955846309662,-0.016755683347582817,0.09960715472698212,9.599282264709473,-0.3162597715854645,-2.287693500518799
1403637133003319000,-0.017237044870853424,-0.004859142005443573,0.08496731519699097,9.558170318603516,-0.3975417912006378,-2.3039910793304443
1403637133008319000,-0.013078629970550537,-0.005501881241798401,0.08718791604042053,9.329222679138184,-0.560610294342041,-2.279533624649048
1403637133013319000,-0.007536053657531738,-0.0020078904926776886,0.084376759827137,9.386375427246094,-0.6420912742614746,-2.3527162075042725
1403637133018319000,-0.004765689373016357,0.007052520290017128,0.085716612637043,9.410822868347168,-0.6163516044616699,-2.4586193561553955
1403637133023319000,-0.006857052445411682,0.023156704381108284,0.0815749242901802,9.574453353881836,-0.5179398655891418,-2.6378071308135986
1403637133028319000,-0.011777117848396301,0.03230199217796326,0.07873967289924622,9.49270248413086,-0.5339762568473816,-2.719463348388672
1403637133033319000,-0.02014075219631195,0.04206345975399017,0.07452273368835449,9.427412033081055,-0.5341054201126099,-2.7440121173858643
1403637133038319000,-0.02082686871290207,0.03845887631177902,0.06970834732055664,9.215139389038086,-0.6076039671897888,-2.695049285888672
1403637133043319000,-0.020798612385988235,0.03000466339290142,0.0647992491722107,9.117166519165039,-0.7141109108924866,-2.6951942443847656
1403637133048319000,-0.015972446650266647,0.014655917882919312,0.06616275757551193,9.149715423583984,-0.8120653033256531,-2.760430097579956
1403637133053319000,-0.0012877658009529114,0.0035046767443418503,0.06261366605758667,9.524994850158691,-0.8042433857917786,-2.8904924392700195
1403637133058319000,0.012018635869026184,0.006995832547545433,0.05630164593458176,9.687849998474121,-0.7472779750823975,-2.898177146911621
1403637133063319000,0.018379203975200653,0.016849612817168236,0.04164910316467285,9.973250389099121,-0.5677838325500488,-2.995645761489868
1403637133068319000,0.021213695406913757,0.04062040150165558,0.0318758562207222,10.136103630065918,-0.49398401379585266,-3.10135555267334
1403637133073319000,0.012105464935302734,0.06783681362867355,0.022852584719657898,10.144462585449219,-0.3872069716453552,-3.1832265853881836
1403637133078319000,-0.0005145594477653503,0.09989209473133087,0.030552886426448822,9.875890731811523,-0.5499929785728455,-3.1185519695281982
1403637133083319000,0.0009111091494560242,0.11319705098867416,0.04238900542259216,9.680481910705566,-0.8028866052627563,-3.0779266357421875
1403637133088319000,0.014779016375541687,0.11533036082983017,0.0689314529299736,9.304834365844727,-1.1288105249404907,-2.9149672985076904
1403637133093319000,0.039849668741226196,0.10415870696306229,0.09685395658016205,9.254878044128418,-1.2919232845306396,-2.776309013366699
1403637133098319000,0.06919865310192108,0.08793752640485764,0.11569801717996597,9.082938194274902,-1.185968041419983,-2.70282244682312
1403637133103319000,0.08660584688186646,0.07113926857709885,0.13379383087158203,9.246331214904785,-0.8688944578170776,-2.678334951400757
1403637133108319000,0.09285435080528259,0.0648672953248024,0.14491945505142212,9.328186988830566,-0.673384964466095,-2.612924098968506
1403637133113319000,0.08946661651134491,0.06138332933187485,0.14479869604110718,9.508363723754883,-0.6323904395103455,-2.523175001144409
1403637133118319000,0.08876465260982513,0.058578699827194214,0.1532530039548874,9.476507186889648,-0.49361440539360046,-2.417436122894287
1403637133123319000,0.08248086273670197,0.06490675359964371,0.15952283143997192,9.648568153381348,-0.4133833050727844,-2.3688385486602783
1403637133128319000,0.06359243392944336,0.06562840193510056,0.1567046046257019,9.46049690246582,-0.3564804494380951,-2.3611648082733154
1403637133133319000,0.05029061436653137,0.062118612229824066,0.14636856317520142,9.648564338684082,-0.2670508027076721,-2.3450610637664795
1403637133138319000,0.03278246521949768,0.05515220761299133,0.12474897503852844,9.517382621765137,-0.4142366349697113,-2.271923303604126
1403637133143319000,0.016801029443740845,0.03203731030225754,0.09681285172700882,9.607173919677734,-0.4065857231616974,-2.2884621620178223
1403637133148319000,0.002884872257709503,0.025026807561516762,0.07880007475614548,9.746039390563965,-0.38235706090927124,-2.279932975769043
1403637133153319000,-0.006885536015033722,0.01810550130903721,0.05993344634771347,9.860929489135742,-0.41653838753700256,-2.206193685531616
1403637133158319000,-0.018688783049583435,0.01118558645248413,0.0466671958565712,9.8294677734375,-0.3678271770477295,-2.0678961277008057
1403637133163319000,-0.028376899659633636,0.019678892567753792,0.03698822483420372,10.03390121459961,-0.3022860288619995,-2.156751871109009
1403637133168319000,-0.0395238995552063,0.029493847861886024,0.02299654483795166,9.854300498962402,-0.415603369474411,-2.1326913833618164
1403637133173319000,-0.04585428535938263,0.0343647301197052,0.009767524898052216,9.838306427001953,-0.31664612889289856,-2.1248862743377686
1403637133178319000,-0.0521068200469017,0.047657310962677,-0.0012489408254623413,9.495105743408203,-0.31612369418144226,-2.035560369491577
1403637133183319000,-0.0612310990691185,0.039982207119464874,-0.024358607828617096,9.461856842041016,-0.34127894043922424,-2.108501672744751
1403637133188319000,-0.08360849320888519,0.03288305550813675,-0.03056391328573227,9.159276962280273,-0.4062623679637909,-1.954172134399414
1403637133193319000,-0.09057950228452682,0.019631167873740196,-0.043107770383358,9.150691986083984,-0.4716299772262573,-2.002675771713257
1403637133198319000,-0.10171708464622498,0.016217483207583427,-0.05163726955652237,9.142072677612305,-0.6108021140098572,-2.059175968170166
1403637133203319000,-0.10732473433017731,0.012069379910826683,-0.058607637882232666,9.329837799072266,-0.611747145652771,-2.1648194789886475
1403637133208319000,-0.11565094441175461,0.021981900557875633,-0.06209643930196762,9.313623428344727,-0.7180231213569641,-2.262111186981201
1403637133213319000,-0.11432091891765594,0.021327776834368706,-0.06149296462535858,9.509750366210938,-0.9383171200752258,-2.465081214904785
1403637133218319000,-0.11150908470153809,0.031050046905875206,-0.05514413118362427,9.616106033325195,-1.0431865453720093,-2.644315242767334
1403637133223319000,-0.10025767982006073,0.03032590262591839,-0.03916361927986145,9.559538841247559,-1.0347187519073486,-2.7344067096710205
1403637133228319000,-0.08906605839729309,0.01971207745373249,-0.032292142510414124,9.584465980529785,-0.92029869556427,-2.848430633544922
1403637133233319000,-0.08290176093578339,0.009175628423690796,-0.026684381067752838,9.722832679748535,-0.6827731132507324,-2.8977136611938477
1403637133238319000,-0.08566270023584366,-0.0069075580686330795,-0.030883662402629852,9.747349739074707,-0.5433672070503235,-2.914381504058838
1403637133243319000,-0.09054680913686752,-0.017455512657761574,-0.0442071333527565,9.983622550964355,-0.4870169162750244,-2.9140846729278564
1403637133248319000,-0.09472730755805969,-0.01597914658486843,-0.0552879199385643,10.015897750854492,-0.5441771149635315,-2.8485898971557617
1403637133253319000,-0.09050657600164413,-0.015937458723783493,-0.05530605465173721,10.064617156982422,-0.5775957107543945,-2.7834746837615967
1403637133258319000,-0.08699807524681091,-0.0040456075221300125,-0.047683268785476685,10.023775100708008,-0.6429112553596497,-2.7182669639587402
1403637133263319000,-0.0751541331410408,0.00015124306082725525,-0.031556129455566406,9.909624099731445,-0.6837092041969299,-2.6369526386260986
1403637133268319000,-0.06466533243656158,0.005035946145653725,-0.015487141907215118,9.75465202331543,-0.6831298470497131,-2.572206497192383
1403637133273319000,-0.056268543004989624,-0.0034204740077257156,0.004710152745246887,9.599442481994629,-0.740388035774231,-2.474547863006592
1403637133278319000,-0.04367595911026001,-0.005518291145563126,0.01938416063785553,9.672785758972168,-0.7645580172538757,-2.514972448348999
1403637133283319000,-0.031121879816055298,-0.004836414009332657,0.03546905145049095,9.631731986999512,-0.6258068084716797,-2.4746387004852295
1403637133288319000,-0.029069043695926666,-0.01040010154247284,0.043801199644804,9.729799270629883,-0.5199817419052124,-2.572645664215088
1403637133293319000,-0.029790706932544708,-0.01877770945429802,0.050730038434267044,9.852067947387695,-0.5280717015266418,-2.5888400077819824
1403637133298319000,-0.031869128346443176,-0.020917922258377075,0.04439510405063629,10.07258129119873,-0.4951418936252594,-2.588552474975586
1403637133303319000,-0.04307663440704346,-0.02091764099895954,0.04152682423591614,10.154489517211914,-0.5445801615715027,-2.6050376892089844
1403637133308319000,-0.051440075039863586,-0.025039147585630417,0.03944871947169304,10.212017059326172,-0.5204136371612549,-2.613121747970581
1403637133313319000,-0.058466628193855286,-0.027778949588537216,0.038072653114795685,10.358580589294434,-0.4717583954334259,-2.6943655014038086
1403637133318319000,-0.06341083347797394,-0.02149081602692604,0.031896330416202545,10.440080642700195,-0.33327752351760864,-2.7756502628326416
1403637133323319000,-0.07660619169473648,-0.027883881703019142,0.03193427622318268,10.383211135864258,-0.32553523778915405,-2.816498279571533
1403637133328319000,-0.0933670699596405,-0.02575303427875042,0.01862294226884842,10.293457984924316,-0.3011954724788666,-2.7920470237731934
1403637133333319000,-0.10668673366308212,-0.03343860059976578,0.0179133377969265,10.097707748413086,-0.3338456153869629,-2.6944785118103027
1403637133338319000,-0.11783751100301743,-0.03976590558886528,0.02071293443441391,10.11418628692627,-0.30930235981941223,-2.6780285835266113
1403637133343319000,-0.12406880408525467,-0.04812810570001602,0.027629537507891655,10.089606285095215,-0.39882054924964905,-2.661517381668091
1403637133348319000,-0.13597214221954346,-0.04454653710126877,0.037516284734010696,10.081682205200195,-0.34127333760261536,-2.6452643871307373
1403637133353319000,-0.1464684009552002,-0.04661610722541809,0.052894726395606995,9.918545722961426,-0.37364304065704346,-2.5396435260772705
1403637133358319000,-0.1527218371629715,-0.04734378308057785,0.06877674162387848,9.975707054138184,-0.44659242033958435,-2.523014545440674
1403637133363319000,-0.15550684928894043,-0.05085936188697815,0.0897141695022583,9.861412048339844,-0.4458378851413727,-2.498809576034546
1403637133368319000,-0.16038137674331665,-0.041117437183856964,0.10992778092622757,9.796165466308594,-0.4623742401599884,-2.5072717666625977
1403637133373319000,-0.16321931779384613,-0.043919436633586884,0.11968540400266647,9.412052154541016,-0.5601114630699158,-2.418073892593384
1403637133378319000,-0.16464586555957794,-0.05156736075878143,0.10232320427894592,9.363018989562988,-0.5601018071174622,-2.556739091873169
1403637133383319000,-0.16395294666290283,-0.05993878096342087,0.09607119858264923,9.305835723876953,-0.5850156545639038,-2.5893867015838623
1403637133388319000,-0.1582786738872528,-0.06834525614976883,0.08969266712665558,9.363059997558594,-0.5774834156036377,-2.670863151550293
1403637133393319000,-0.15339131653308868,-0.0746452584862709,0.08414953947067261,9.134055137634277,-0.6423813700675964,-2.483294725418091
1403637133398319000,-0.1520272195339203,-0.0920553132891655,0.08085773885250092,8.905171394348145,-0.6099460124969482,-2.255072593688965
1403637133403319000,-0.14367052912712097,-0.10955550521612167,0.08926473557949066,8.733499526977539,-0.7076963186264038,-2.238546848297119
1403637133408319000,-0.13034479320049286,-0.11032121628522873,0.08985985815525055,9.043885231018066,-0.7813671827316284,-2.295675277709961
1403637133413319000,-0.11777736246585846,-0.10815808922052383,0.09901994466781616,9.060148239135742,-0.7806971073150635,-2.3283963203430176
1403637133418319000,-0.11073829978704453,-0.10107362270355225,0.099641814827919,9.150195121765137,-0.7240926623344421,-2.3366003036499023
1403637133423319000,-0.09754092991352081,-0.09618594497442245,0.10585345327854156,8.945549011230469,-0.870384693145752,-2.3358852863311768
1403637133428319000,-0.07174880802631378,-0.0906669944524765,0.11578939110040665,8.912640571594238,-1.0167821645736694,-2.441790819168091
1403637133433319000,-0.04521507769823074,-0.08998513966798782,0.13191697001457214,8.635016441345215,-1.163130283355713,-2.4742939472198486
1403637133438319000,-0.013077080249786377,-0.10459715127944946,0.13948044180870056,8.659932136535645,-1.1063551902770996,-2.6209945678710938
1403637133443319000,0.0021943897008895874,-0.11370427161455154,0.14647051692008972,8.59522819519043,-0.7963194251060486,-2.6699674129486084
1403637133448319000,0.013292700052261353,-0.12496166676282883,0.14987018704414368,8.775217056274414,-0.658511221408844,-2.7189924716949463
1403637133453319000,0.020311400294303894,-0.142408087849617,0.14639702439308167,8.725871086120605,-0.7480453252792358,-2.6780734062194824
1403637133458319000,0.029439374804496765,-0.15077081322669983,0.12836164236068726,8.92122745513916,-0.6818094849586487,-2.7107303142547607
1403637133463319000,0.037134625017642975,-0.15358619391918182,0.12278350442647934,8.880136489868164,-0.5597527623176575,-2.6536221504211426
1403637133468319000,0.044133320450782776,-0.1585497260093689,0.11498383432626724,9.108664512634277,-0.42221108078956604,-2.621086359024048
1403637133473319000,0.03360714763402939,-0.16061590611934662,0.1031738668680191,8.888994216918945,-0.12862002849578857,-2.336353063583374
1403637133478319000,0.013323083519935608,-0.18288157880306244,0.1081225648522377,8.816510200500488,0.4094853699207306,-2.0366547107696533
1403637133483319000,-0.022881977260112762,-0.19625110924243927,0.11499487608671188,8.882013320922852,0.7276840209960938,-1.7525622844696045
1403637133488319000,-0.06057499349117279,-0.21373103559017181,0.1142585352063179,9.167842864990234,0.776229202747345,-1.6233856678009033
1403637133493319000,-0.08985552936792374,-0.21297623217105865,0.1151103526353836,9.5518159866333,0.5635392069816589,-1.6807926893234253
1403637133498319000,-0.10586698353290558,-0.19617491960525513,0.11430831253528595,9.837372779846191,0.14694130420684814,-1.8100063800811768
1403637133503319000,-0.10519162565469742,-0.16964145004749298,0.11836661398410797,9.705985069274902,-0.21926505863666534,-2.0036368370056152
1403637133508319000,-0.09262045472860336,-0.13819940388202667,0.12060746550559998,9.477126121520996,-0.3244447112083435,-2.157755136489868
1403637133513319000,-0.08291739225387573,-0.12843641638755798,0.13530054688453674,8.881502151489258,-0.380521684885025,-2.18977427482605
1403637133518319000,-0.08166082948446274,-0.14521092176437378,0.14922359585762024,8.612567901611328,-0.39622166752815247,-2.4257683753967285
1403637133523319000,-0.07964932918548584,-0.1641329973936081,0.16745826601982117,8.458014488220215,-0.4123978912830353,-2.5885627269744873
1403637133528319000,-0.07616497576236725,-0.18436378240585327,0.17786496877670288,8.540016174316406,-0.4372972548007965,-2.7437710762023926
1403637133533319000,-0.08030057698488235,-0.19822527468204498,0.17705833911895752,8.637548446655273,-0.5592887997627258,-2.8007569313049316
1403637133538319000,-0.07464122772216797,-0.2016897350549698,0.17702043056488037,8.971219062805176,-0.6163649559020996,-2.873922348022461
1403637133543319000,-0.06976184248924255,-0.19402247667312622,0.1783682405948639,9.133824348449707,-0.6089907288551331,-2.824929714202881
1403637133548319000,-0.07042711228132248,-0.1871824562549591,0.17758873105049133,9.378478050231934,-0.5025560259819031,-2.849196672439575
1403637133553319000,-0.07168978452682495,-0.16618545353412628,0.1769373118877411,9.59896183013916,-0.30491015315055847,-2.8979644775390625
1403637133558319000,-0.07376711070537567,-0.1563170850276947,0.17343035340309143,9.745851516723633,-0.26452118158340454,-2.971384286880493
1403637133563319000,-0.08077646046876907,-0.1465671956539154,0.1663990020751953,9.79470157623291,-0.24976901710033417,-2.971306085586548
1403637133568319000,-0.08701368421316147,-0.1514362096786499,0.15181639790534973,9.876060485839844,-0.20157401263713837,-2.9954957962036133
1403637133573319000,-0.09820906072854996,-0.15007881820201874,0.1337248980998993,9.900424003601074,-0.09500130265951157,-3.060683488845825
1403637133578319000,-0.10317008942365646,-0.1536480188369751,0.11484839022159576,9.9816312789917,-0.09501462429761887,-3.052456855773926
1403637133583319000,-0.1150120347738266,-0.1487663984298706,0.0974016934633255,10.071760177612305,-0.19273558259010315,-3.1582999229431152
1403637133588319000,-0.11922765523195267,-0.13826605677604675,0.09184446185827255,10.08046817779541,-0.2736700773239136,-3.183122158050537
1403637133593319000,-0.12136565148830414,-0.1242612823843956,0.08972631394863129,9.983022689819336,-0.4197441637516022,-3.1754567623138428
1403637133598319000,-0.11788433790206909,-0.11724234372377396,0.10159672796726227,9.828364372253418,-0.5255597829818726,-3.167506217956543
1403637133603319000,-0.11715808510780334,-0.10326693207025528,0.10442149639129639,9.82036304473877,-0.5828547477722168,-3.183678150177002
1403637133608319000,-0.11301007121801376,-0.10189001262187958,0.11285751312971115,9.591792106628418,-0.5177043080329895,-3.2004878520965576
1403637133613319000,-0.10809264332056046,-0.09424929320812225,0.11427602916955948,9.550983428955078,-0.5912745594978333,-3.2495551109313965
1403637133618319000,-0.10600265115499496,-0.09706295281648636,0.11559724807739258,9.493276596069336,-0.6156160235404968,-3.2496137619018555
1403637133623319000,-0.09893970936536789,-0.08938009291887283,0.11346428841352463,9.533825874328613,-0.5260695815086365,-3.2582290172576904
1403637133628319000,-0.09614583849906921,-0.09289461374282837,0.11900404840707779,9.639623641967773,-0.5272533893585205,-3.282682418823242
1403637133633319000,-0.09961078315973282,-0.08935810625553131,0.1133643165230751,9.867894172668457,-0.4547109603881836,-3.290508508682251
1403637133638319000,-0.09679408371448517,-0.08930783718824387,0.10571031272411346,10.087897300720215,-0.43030139803886414,-3.314661741256714
1403637133643319000,-0.10307713598012924,-0.07531516253948212,0.08758895844221115,10.38171672821045,-0.38900497555732727,-3.412240743637085
1403637133648319000,-0.10517678409814835,-0.0683148130774498,0.07427872717380524,10.528547286987305,-0.4050874710083008,-3.420145034790039
1403637133653319000,-0.11002645641565323,-0.06274672597646713,0.04849451035261154,10.757133483886719,-0.3650561273097992,-3.550440549850464
1403637133658319000,-0.11636103689670563,-0.0488487109541893,0.03458313271403313,10.724658012390137,-0.41446298360824585,-3.558701515197754
1403637133663319000,-0.11985388398170471,-0.04122166335582733,0.012933321297168732,10.725010871887207,-0.5369089245796204,-3.5912184715270996
1403637133668319000,-0.12260569632053375,-0.03495574742555618,-0.0017008259892463684,10.586466789245605,-0.5693541169166565,-3.517641544342041
1403637133673319000,-0.12263339757919312,-0.027179714292287827,-0.012782663106918335,10.529618263244629,-0.5779713988304138,-3.5258939266204834
1403637133678319000,-0.12127208709716797,-0.030002044513821602,-0.011385567486286163,10.391042709350586,-0.5941774249076843,-3.5098180770874023
1403637133683319000,-0.11913837492465973,-0.023706575855612755,-0.009983211755752563,10.440075874328613,-0.6421459913253784,-3.566863536834717
1403637133688319000,-0.11568747460842133,-0.017363620921969414,0.006828837096691132,10.366610527038574,-0.7237218022346497,-3.5259041786193848
1403637133693319000,-0.11146336793899536,-0.010314044542610645,0.018642880022525787,10.382946968078613,-0.7238125205039978,-3.542280912399292
1403637133698319000,-0.10445711016654968,-0.006885705515742302,0.033911652863025665,10.268641471862793,-0.8136836290359497,-3.5096144676208496
1403637133703319000,-0.09186606109142303,0.0007893852889537811,0.05274590104818344,10.390583992004395,-0.772773265838623,-3.517902135848999
1403637133708319000,-0.08487323671579361,0.006338085979223251,0.07502014935016632,10.259998321533203,-0.7154724597930908,-3.5265798568725586
1403637133713319000,-0.08556635677814484,0.004942990839481354,0.07636816799640656,10.471959114074707,-0.5688026547431946,-3.5184619426727295
1403637133718319000,-0.09047740697860718,0.0035570859909057617,0.08343757688999176,10.487969398498535,-0.6015433669090271,-3.477581739425659
1403637133723319000,-0.09257795661687851,0.0014174599200487137,0.07988220453262329,10.62668514251709,-0.6428671479225159,-3.575540781021118
1403637133728319000,-0.09326495230197906,0.0028123948723077774,0.0762777253985405,10.64283275604248,-0.7329165935516357,-3.6245038509368896
1403637133733319000,-0.09113296866416931,0.013368293642997742,0.07078459113836288,10.773476600646973,-0.7003848552703857,-3.657134771347046
1403637133738319000,-0.09116916358470917,0.018254267051815987,0.07075151801109314,10.708272933959961,-0.7084140181541443,-3.632528781890869
1403637133743319000,-0.09539792686700821,0.028727369382977486,0.060958389192819595,10.72489070892334,-0.6674721240997314,-3.6080565452575684
1403637133748319000,-0.0995834618806839,0.027979521080851555,0.06529095768928528,10.553765296936035,-0.7898242473602295,-3.4855892658233643
1403637133753319000,-0.10446499288082123,0.03146475553512573,0.06664451956748962,10.618996620178223,-0.8224619626998901,-3.444573163986206
1403637133758319000,-0.10939013957977295,0.032186008989810944,0.07212789356708527,10.47212028503418,-0.8878486156463623,-3.322080135345459
1403637133763319000,-0.11217043548822403,0.03010489232838154,0.07011884450912476,10.561836242675781,-0.8064433932304382,-3.1748528480529785
1403637133768319000,-0.1212710365653038,0.03712084889411926,0.08339674770832062,10.374173164367676,-0.7323817610740662,-2.995570659637451
1403637133773319000,-0.1275635063648224,0.028735259547829628,0.09174419939517975,10.431729316711426,-0.6103451251983643,-2.897516965866089
1403637133778319000,-0.1387251615524292,0.02312941662967205,0.0987749695777893,10.456480026245117,-0.5367899537086487,-2.8812220096588135
1403637133783319000,-0.1520005464553833,0.01894094981253147,0.09804952144622803,10.791654586791992,-0.38965901732444763,-2.8800320625305176
1403637133788319000,-0.1701858788728714,0.01337556354701519,0.09235312044620514,10.873600959777832,-0.389921098947525,-2.8876681327819824
1403637133793319000,-0.19047415256500244,0.0036664921790361404,0.07842516154050827,11.070150375366211,-0.34213799238204956,-2.9278054237365723
1403637133798319000,-0.2051476538181305,-0.0061026811599731445,0.06658826768398285,11.070335388183594,-0.4162191152572632,-2.8870046138763428
1403637133803319000,-0.21419882774353027,-0.022894026711583138,0.06788240373134613,11.274662017822266,-0.4979058504104614,-2.951618194580078
1403637133808319000,-0.21693958342075348,-0.02996991202235222,0.0747806578874588,11.299023628234863,-0.6524742245674133,-3.0169739723205566
1403637133813319000,-0.2169598489999771,-0.03828246891498566,0.0929299145936966,11.486908912658691,-0.7179134488105774,-3.221130132675171
1403637133818319000,-0.21625524759292603,-0.035433899611234665,0.112471804022789,11.405313491821289,-0.7665122747421265,-3.2705910205841064
1403637133823319000,-0.21063706278800964,-0.03890840709209442,0.12498582899570465,11.356490135192871,-0.7743903398513794,-3.385324001312256
1403637133828319000,-0.21340204775333405,-0.04168204218149185,0.13341602683067322,11.168620109558105,-0.7407828569412231,-3.402129888534546
1403637133833319000,-0.2106025665998459,-0.0500880628824234,0.13202178478240967,11.143983840942383,-0.6588836908340454,-3.4592130184173584
1403637133838319000,-0.2134421020746231,-0.061281636357307434,0.128488689661026,10.947893142700195,-0.6587899327278137,-3.402076005935669
1403637133843319000,-0.22049269080162048,-0.07733774185180664,0.11527283489704132,10.980586051940918,-0.6179335713386536,-3.4345386028289795
1403637133848319000,-0.2246807962656021,-0.08712423592805862,0.10548315942287445,10.923255920410156,-0.6096426844596863,-3.361058235168457
1403637133853319000,-0.22957131266593933,-0.09755923599004745,0.10470621287822723,11.069862365722656,-0.634644091129303,-3.417931079864502
1403637133858319000,-0.23166173696517944,-0.10105957090854645,0.09910690784454346,11.200075149536133,-0.6920250058174133,-3.4174113273620605
1403637133863319000,-0.22672678530216217,-0.10245655477046967,0.10330444574356079,11.330425262451172,-0.7826950550079346,-3.36795973777771
1403637133868319000,-0.22252090275287628,-0.0996435359120369,0.11450447142124176,11.363103866577148,-0.889003574848175,-3.441579818725586
1403637133873319000,-0.20784854888916016,-0.09616446495056152,0.13610351085662842,11.436552047729492,-0.9785723090171814,-3.4579737186431885
1403637133878319000,-0.1902988851070404,-0.09611769765615463,0.1647767424583435,11.387557983398438,-1.051784873008728,-3.5565788745880127
1403637133883319000,-0.17420095205307007,-0.09404660761356354,0.18077634274959564,11.493725776672363,-1.076230525970459,-3.6630029678344727
1403637133888319000,-0.15534760057926178,-0.08496227860450745,0.19048377871513367,11.37118911743164,-0.9933562874794006,-3.720463514328003
1403637133893319000,-0.1385645568370819,-0.08915623277425766,0.19195297360420227,11.305994987487793,-0.870144784450531,-3.753448963165283
1403637133898319000,-0.1393367052078247,-0.0828702375292778,0.18778091669082642,11.224222183227539,-0.7468044757843018,-3.7617533206939697
1403637133903319000,-0.14428262412548065,-0.08918336033821106,0.17940783500671387,11.126348495483398,-0.7223186492919922,-3.7620766162872314
1403637133908319000,-0.14779438078403473,-0.09273824840784073,0.16060204803943634,11.020037651062012,-0.6895790100097656,-3.6560728549957275
1403637133913319000,-0.14787061512470245,-0.0997346043586731,0.14242196083068848,10.946371078491211,-0.7229779958724976,-3.6151840686798096
1403637133918319000,-0.14780886471271515,-0.09548947215080261,0.13405576348304749,10.978833198547363,-0.7235348224639893,-3.557856321334839
1403637133923319000,-0.14152708649635315,-0.09269212931394577,0.13338708877563477,10.905057907104492,-0.8303194046020508,-3.5251989364624023
1403637133928319000,-0.1345633864402771,-0.08292114734649658,0.12781870365142822,10.961966514587402,-0.7893553376197815,-3.5250136852264404
1403637133933319000,-0.12683528661727905,-0.07174111902713776,0.12373767793178558,10.814664840698242,-0.7730498909950256,-3.5089054107666016
1403637133938319000,-0.12817054986953735,-0.059928230941295624,0.12172801792621613,10.700607299804688,-0.7077326774597168,-3.5745840072631836
1403637133943319000,-0.12964756786823273,-0.054350584745407104,0.11894578486680984,10.6597900390625,-0.699375331401825,-3.6238045692443848
1403637133948319000,-0.13667476177215576,-0.04453464597463608,0.10641750693321228,10.603102684020996,-0.7157213687896729,-3.689378499984741
1403637133953319000,-0.1471729874610901,-0.04524966701865196,0.09591439366340637,10.480790138244629,-0.6583454012870789,-3.689833879470825
1403637133958319000,-0.15626150369644165,-0.03893568739295006,0.08193142712116241,10.489144325256348,-0.5929034948348999,-3.75537109375
1403637133963319000,-0.16678303480148315,-0.038265906274318695,0.06875412911176682,10.415678977966309,-0.6175284385681152,-3.730956554412842
1403637133968319000,-0.17516405880451202,-0.031289469450712204,0.055565185844898224,10.431962966918945,-0.6093959212303162,-3.714723825454712
1403637133973319000,-0.18704742193222046,-0.0208338163793087,0.04858110845088959,10.228151321411133,-0.6502701044082642,-3.690524101257324
1403637133978319000,-0.19331032037734985,-0.00825498253107071,0.03950507938861847,10.130365371704102,-0.6669629812240601,-3.6824564933776855
1403637133983319000,-0.1939626783132553,0.0036285649985074997,0.03747805953025818,9.983202934265137,-0.6177043318748474,-3.560117483139038
1403637133988319000,-0.19249793887138367,0.012708058580756187,0.03195038437843323,9.787403106689453,-0.610000729560852,-3.3723862171173096
1403637133993319000,-0.18966789543628693,0.015462661162018776,0.0340493768453598,9.640106201171875,-0.626198947429657,-3.233640670776367
1403637133998319000,-0.17919571697711945,0.022434448823332787,0.03474839776754379,9.639652252197266,-0.7078473567962646,-3.1763761043548584
1403637134003319000,-0.1624239683151245,0.026641683652997017,0.04448052868247032,9.525105476379395,-0.8540666699409485,-3.119121789932251
1403637134008319000,-0.13443171977996826,0.03434552997350693,0.05211779847741127,9.663643836975098,-0.9027681350708008,-3.118858575820923
1403637134013319000,-0.10572709143161774,0.04270046204328537,0.07030487060546875,9.622581481933594,-0.8452382683753967,-3.05356502532959
1403637134018319000,-0.08688601851463318,0.04686495661735535,0.07937219738960266,9.769771575927734,-0.5922961831092834,-3.1680877208709717
1403637134023319000,-0.0820542499423027,0.053794197738170624,0.0786585807800293,9.79467487335205,-0.42051321268081665,-3.2172579765319824
1403637134028319000,-0.08695977181196213,0.05310039222240448,0.05497690662741661,9.925786972045898,-0.2082347571849823,-3.2500224113464355
1403637134033319000,-0.09885581582784653,0.04818157106637955,0.030558323487639427,9.754722595214844,-0.2576490044593811,-3.2176859378814697
1403637134038319000,-0.11212852597236633,0.04608216881752014,0.0012628771364688873,9.763023376464844,-0.2829318642616272,-3.2749292850494385
1403637134043319000,-0.12754669785499573,0.04260175675153732,-0.025871463119983673,9.648883819580078,-0.3730310797691345,-3.2995972633361816
1403637134048319000,-0.142287015914917,0.046126484870910645,-0.03834950178861618,9.673565864562988,-0.36521661281585693,-3.28342866897583
1403637134053319000,-0.15625429153442383,0.04963309317827225,-0.0417950376868248,9.453121185302734,-0.32425180077552795,-3.226330041885376
1403637134058319000,-0.17299413681030273,0.054551608860492706,-0.05366097390651703,9.469542503356934,-0.2999569773674011,-3.1935136318206787
1403637134063319000,-0.19396066665649414,0.05453896522521973,-0.06190483272075653,9.240805625915527,-0.315762996673584,-3.1771793365478516
1403637134068319000,-0.2065243422985077,0.05456420034170151,-0.07379286736249924,9.249125480651855,-0.36455219984054565,-3.185373306274414
1403637134073319000,-0.21767392754554749,0.0581054762005806,-0.0856972262263298,9.08564567565918,-0.5114747881889343,-3.1443355083465576
1403637134078319000,-0.22184056043624878,0.052539266645908356,-0.08978914469480515,9.110107421875,-0.593734085559845,-3.103281259536743
1403637134083319000,-0.21969521045684814,0.05607164651155472,-0.08143138140439987,8.971123695373535,-0.6667889356613159,-3.0704894065856934
1403637134088319000,-0.21411989629268646,0.056748516857624054,-0.0627487376332283,9.11028003692627,-0.6748210191726685,-3.119420289993286
1403637134093319000,-0.2092425674200058,0.060210131108760834,-0.039700523018836975,9.102023124694824,-0.6741440296173096,-3.152297019958496
1403637134098319000,-0.20500874519348145,0.06580651551485062,-0.03071698546409607,9.306139945983887,-0.4948371350765228,-3.1770267486572266
1403637134103319000,-0.2063991129398346,0.06859452277421951,-0.030049800872802734,9.281676292419434,-0.3481239080429077,-3.103638172149658
1403637134108319000,-0.20916515588760376,0.06998362392187119,-0.05021058768033981,9.387760162353516,-0.22662825882434845,-3.054797887802124
1403637134113319000,-0.21679365634918213,0.07066038250923157,-0.07394301146268845,9.297840118408203,-0.07976949959993362,-2.9164023399353027
1403637134118319000,-0.22589798271656036,0.06996939331293106,-0.09419194608926773,9.39596176147461,0.06634147465229034,-2.8921077251434326
1403637134123319000,-0.24267089366912842,0.07553180307149887,-0.1102011427283287,9.21592903137207,0.07490241527557373,-2.8351945877075195
1403637134128319000,-0.2538421154022217,0.07904381304979324,-0.11297493427991867,9.117714881896973,0.018026698380708694,-2.7375309467315674
1403637134133319000,-0.25102904438972473,0.09236129373311996,-0.10729541629552841,8.945877075195312,-0.10351040214300156,-2.6477792263031006
1403637134138319000,-0.25031617283821106,0.09656599909067154,-0.1009768471121788,8.864005088806152,-0.13593550026416779,-2.598903179168701
1403637134143319000,-0.2468155026435852,0.10286597907543182,-0.10299890488386154,8.847696304321289,-0.2253836989402771,-2.582366466522217
1403637134148319000,-0.24545209109783173,0.1063394770026207,-0.10997050255537033,8.94597053527832,-0.29906824231147766,-2.6715989112854004
1403637134153319000,-0.23920322954654694,0.1154148206114769,-0.11354724317789078,9.036311149597168,-0.35578203201293945,-2.7689931392669678
1403637134158319000,-0.23775196075439453,0.11546450108289719,-0.10175193101167679,9.224801063537598,-0.3476712107658386,-2.8505501747131348
1403637134163319000,-0.23213449120521545,0.1189403161406517,-0.09484037011861801,9.339695930480957,-0.4296473264694214,-2.8585026264190674
1403637134168319000,-0.23429161310195923,0.1203131303191185,-0.08170536905527115,9.601137161254883,-0.38949382305145264,-2.858377456665039
1403637134173319000,-0.2350493222475052,0.1328498274087906,-0.07470662146806717,9.715518951416016,-0.3976680338382721,-2.866504430770874
1403637134178319000,-0.23497845232486725,0.13987037539482117,-0.06565463542938232,9.854286193847656,-0.3732652962207794,-2.907397747039795
1403637134183319000,-0.24131327867507935,0.16297820210456848,-0.06909485906362534,9.846060752868652,-0.3893522322177887,-2.9075582027435303
1403637134188319000,-0.24341514706611633,0.18954385817050934,-0.0641518235206604,9.690869331359863,-0.3970761299133301,-2.9080193042755127
1403637134193319000,-0.24552473425865173,0.21956482529640198,-0.06761948019266129,9.470364570617676,-0.3144010901451111,-2.95737361907959
1403637134198319000,-0.2532556653022766,0.23841889202594757,-0.07104618102312088,9.110690116882324,-0.19190765917301178,-2.957730531692505
1403637134203319000,-0.26163893938064575,0.2565123736858368,-0.07997103780508041,8.6853609085083,-0.15115977823734283,-3.0151255130767822
1403637134208319000,-0.2714064419269562,0.265535444021225,-0.08275900036096573,8.398509979248047,-0.10172933340072632,-2.9501683712005615
1403637134213319000,-0.272847056388855,0.2739329934120178,-0.08130990713834763,8.23454761505127,-0.10899420827627182,-2.917692184448242
1403637134218319000,-0.26302003860473633,0.2684147357940674,-0.0707392767071724,8.1030912399292,-0.2476755827665329,-2.877211570739746
1403637134223319000,-0.24552813172340393,0.2781984210014343,-0.05885770916938782,8.094464302062988,-0.3205830156803131,-2.8281474113464355
1403637134228319000,-0.22322101891040802,0.28447094559669495,-0.03866500407457352,8.118478775024414,-0.27915969491004944,-2.7870829105377197
1403637134233319000,-0.1987341046333313,0.2963632345199585,-0.024109430611133575,8.273710250854492,-0.22971342504024506,-2.7783725261688232
1403637134238319000,-0.1763431429862976,0.3138577342033386,-0.010251231491565704,8.232335090637207,-0.18881215155124664,-2.696681261062622
1403637134243319000,-0.14838384091854095,0.3235805332660675,0.00022115558385849,8.248703002929688,-0.14791949093341827,-2.6966745853424072
1403637134248319000,-0.11902770400047302,0.3304764926433563,0.015648655593395233,8.125842094421387,-0.23776136338710785,-2.5988218784332275
1403637134253319000,-0.09812436252832413,0.3325654864311218,0.025449220091104507,8.199494361877441,-0.13983869552612305,-2.533419132232666
1403637134258319000,-0.07930435985326767,0.32833945751190186,0.03735785558819771,8.101499557495117,-0.059352338314056396,-2.5334343910217285
1403637134263319000,-0.05769103020429611,0.3254906237125397,0.04773751273751259,8.1994047164917,0.1112913191318512,-2.4434168338775635
1403637134268319000,-0.05638616532087326,0.3261992335319519,0.05880528688430786,8.15841007232666,0.11968082189559937,-2.337421178817749
1403637134273319000,-0.05640888214111328,0.3332456946372986,0.05879820138216019,8.223984718322754,0.13649925589561462,-2.312894344329834
1403637134278319000,-0.05018084496259689,0.34164080023765564,0.06516233831644058,8.044180870056152,0.09566757082939148,-2.223212718963623
1403637134283319000,-0.050246767699718475,0.35495853424072266,0.06591562926769257,8.052546501159668,0.12042105942964554,-2.272258758544922
1403637134288319000,-0.046041153371334076,0.3668018877506256,0.07644404470920563,7.733424186706543,0.19446736574172974,-2.2234513759613037
1403637134293319000,-0.04741576313972473,0.36959731578826904,0.07647119462490082,7.684450149536133,0.23493339121341705,-2.2481095790863037
1403637134298319000,-0.0482298880815506,0.3695978820323944,0.08062585443258286,7.594662189483643,0.2188093364238739,-2.297110080718994
1403637134303319000,-0.048167504370212555,0.36536911129951477,0.07013972103595734,7.725484371185303,0.21913965046405792,-2.394742250442505
1403637134308319000,-0.048096105456352234,0.36539024114608765,0.06247041001915932,7.790609359741211,0.1700444221496582,-2.394442319869995
1403637134313319000,-0.045333296060562134,0.36265161633491516,0.047114115208387375,7.945809364318848,0.1939176321029663,-2.4185361862182617
1403637134318319000,-0.04112306237220764,0.3612944185733795,0.0450296625494957,7.904838562011719,0.136513352394104,-2.3531570434570312
1403637134323319000,-0.03339095413684845,0.36691781878471375,0.043620191514492035,8.068408966064453,0.11184295266866684,-2.287623882293701
1403637134328319000,-0.021581891924142838,0.37251073122024536,0.05618763715028763,7.929566383361816,0.055215924978256226,-2.197840452194214
1403637134333319000,-0.012469463050365448,0.37813568115234375,0.06316759437322617,8.003271102905273,0.07125148922204971,-2.1895711421966553
1403637134338319000,-0.007645368576049805,0.38934895396232605,0.07504695653915405,7.757724285125732,0.08762087672948837,-2.0589559078216553
1403637134343319000,-0.009786196053028107,0.39140692353248596,0.07785609364509583,7.593790054321289,0.11187194287776947,-1.969434380531311
1403637134348319000,-0.009125031530857086,0.3961937129497528,0.0757715106010437,7.249900817871094,0.18606354296207428,-1.8554304838180542
1403637134353319000,-0.01612124592065811,0.39335766434669495,0.070224329829216,7.094232082366943,0.1940273642539978,-1.7986328601837158
1403637134358319000,-0.023884296417236328,0.3897642493247986,0.07512202113866806,6.848925590515137,0.1368647664785385,-1.6191635131835938
1403637134363319000,-0.030224569141864777,0.375749409198761,0.07922175526618958,6.7421112060546875,0.2350894957780838,-1.5455505847930908
1403637134368319000,-0.03936561942100525,0.3666113317012787,0.09108920395374298,6.554102420806885,0.28449496626853943,-1.4966306686401367
1403637134373319000,-0.04911315441131592,0.3575983941555023,0.10647173225879669,6.586195468902588,0.2764688730239868,-1.5376733541488647
1403637134378319000,-0.05889101326465607,0.3603854477405548,0.11832834780216217,6.553481101989746,0.21975882351398468,-1.5375218391418457
1403637134383319000,-0.07004481554031372,0.34998294711112976,0.12537848949432373,6.593991756439209,0.15409596264362335,-1.6028131246566772
1403637134388319000,-0.07910040766000748,0.34365251660346985,0.1303294450044632,6.59414529800415,0.0805782899260521,-1.6436538696289062
1403637134393319000,-0.08604501932859421,0.3324703276157379,0.13723012804985046,6.659375190734863,0.04783987998962402,-1.6763827800750732
1403637134398319000,-0.09443295747041702,0.322624146938324,0.14492769539356232,6.594533443450928,0.007143781986087561,-1.7501016855239868
1403637134403319000,-0.0972425639629364,0.30521896481513977,0.1616649031639099,6.676469326019287,-0.025714082643389702,-1.6929453611373901
1403637134408319000,-0.10001432150602341,0.2934367060661316,0.17555692791938782,6.783371448516846,-0.09109185636043549,-1.708927035331726
1403637134413319000,-0.09375032782554626,0.27670252323150635,0.18320505321025848,6.906132698059082,-0.07524566352367401,-1.7331562042236328
1403637134418319000,-0.09303868561983109,0.2718413174152374,0.18811410665512085,7.037359714508057,-0.07550611346960068,-1.7083072662353516
1403637134423319000,-0.08608098328113556,0.26143506169319153,0.20552843809127808,7.070257663726807,-0.08370018750429153,-1.6672641038894653
1403637134428319000,-0.0721384659409523,0.264868825674057,0.22229987382888794,6.956399440765381,-0.12441129237413406,-1.6012457609176636
1403637134433319000,-0.06100985407829285,0.2577816843986511,0.24190622568130493,6.768795013427734,-0.1656547486782074,-1.5189690589904785
1403637134438319000,-0.04499440640211105,0.2562355101108551,0.25519898533821106,6.532198905944824,-0.13279122114181519,-1.3957624435424805
1403637134443319000,-0.029056787490844727,0.23786629736423492,0.27474454045295715,6.229397773742676,-0.08394909650087357,-1.2230267524719238
1403637134448319000,-0.01932472363114357,0.22524376213550568,0.27828070521354675,6.138741493225098,0.09623540937900543,-1.1902154684066772
1403637134453319000,-0.015154153108596802,0.2125515341758728,0.2867320477962494,5.958138942718506,0.11244452744722366,-1.1242374181747437
1403637134458319000,-0.01020706444978714,0.20003844797611237,0.2874622046947479,5.907810688018799,0.1621161550283432,-1.1487849950790405
1403637134463319000,-0.004683509469032288,0.18536989390850067,0.29725444316864014,5.776339054107666,0.10417236387729645,-1.1316254138946533
1403637134468319000,0.002325698733329773,0.17425888776779175,0.2986959218978882,5.832182884216309,0.18586209416389465,-1.0577651262283325
1403637134473319000,0.00028555095195770264,0.15324874222278595,0.3049650490283966,5.741605281829834,0.16887718439102173,-1.0330952405929565
1403637134478319000,-0.007375568151473999,0.1318676471710205,0.2922951877117157,5.96083402633667,0.34206172823905945,-1.0419687032699585
1403637134483319000,-0.02126390114426613,0.11110099405050278,0.2811169922351837,6.017837047576904,0.4567989408969879,-1.0997744798660278
1403637134488319000,-0.03929414600133896,0.09657195955514908,0.26087334752082825,6.196928977966309,0.44831737875938416,-1.190909743309021
1403637134493319000,-0.051808543503284454,0.08331210911273956,0.24340394139289856,6.237821578979492,0.34175732731819153,-1.1994562149047852
1403637134498319000,-0.05875765532255173,0.06803253293037415,0.22454318404197693,6.377343654632568,0.23500071465969086,-1.240993618965149
1403637134503319000,-0.05734439194202423,0.05117769539356232,0.2168474793434143,6.279963970184326,0.09536302089691162,-1.273969292640686
1403637134508319000,-0.06009940803050995,0.03929932415485382,0.20415019989013672,6.378993034362793,0.08716510981321335,-1.364255666732788
1403637134513319000,-0.057986848056316376,0.026684759184718132,0.19932568073272705,6.265633583068848,-0.0359170027077198,-1.3234262466430664
1403637134518319000,-0.050983913242816925,0.010056601837277412,0.19932740926742554,6.372513294219971,-0.0034578770864754915,-1.3721786737442017
1403637134523319000,-0.038412466645240784,0.0016132798045873642,0.20212066173553467,6.193355083465576,-0.060874130576848984,-1.273903727531433
1403637134528319000,-0.027168437838554382,-0.021399477496743202,0.20008015632629395,6.20114803314209,-0.012259334325790405,-1.2083613872528076
1403637134533319000,-0.011122629046440125,-0.03056143783032894,0.20012518763542175,6.0542988777160645,0.028331110253930092,-1.1916712522506714
1403637134538319000,-0.004824578762054443,-0.046462565660476685,0.19439268112182617,6.143738746643066,0.1590084582567215,-1.223920464515686
1403637134543319000,-0.002015836536884308,-0.054843075573444366,0.1923285722732544,6.021022796630859,0.28198879957199097,-1.182865023612976
1403637134548319000,-0.0046925172209739685,-0.06935633718967438,0.18119120597839355,6.068629741668701,0.49467942118644714,-1.1908636093139648
1403637134553319000,-0.016539089381694794,-0.0776338055729866,0.1665300726890564,6.018575191497803,0.6503595113754272,-1.1826950311660767
1403637134558319000,-0.03460600972175598,-0.09077253192663193,0.14003103971481323,6.081974983215332,0.7892634272575378,-1.2077451944351196
1403637134563319000,-0.05475444346666336,-0.10401690751314163,0.11005052924156189,6.047857761383057,0.8459581732749939,-1.1999895572662354
1403637134568319000,-0.0714845284819603,-0.11587967723608017,0.07990515232086182,6.161402702331543,0.746737003326416,-1.2496743202209473
1403637134573319000,-0.08892596513032913,-0.1250312179327011,0.0547185093164444,6.1859564781188965,0.5505927801132202,-1.315805435180664
1403637134578319000,-0.10147871822118759,-0.1390373706817627,0.033001404255628586,6.349854469299316,0.43635228276252747,-1.3649667501449585
1403637134583319000,-0.10635682195425034,-0.15164649486541748,0.009341806173324585,6.293234348297119,0.264680415391922,-1.3653359413146973
1403637134588319000,-0.10286813229322433,-0.1677740067243576,0.002380587160587311,6.416693210601807,0.17464806139469147,-1.430209755897522
1403637134593319000,-0.09931590408086777,-0.17480601370334625,-0.0052878111600875854,6.524298191070557,-0.012418873608112335,-1.446205735206604
1403637134598319000,-0.09513910859823227,-0.18598616123199463,-0.008816249668598175,6.574376106262207,-0.08579577505588531,-1.4624454975128174
1403637134603319000,-0.0874633640050888,-0.18944647908210754,-0.012954160571098328,6.510032653808594,-0.14322158694267273,-1.4707456827163696
1403637134608319000,-0.0679236426949501,-0.20131276547908783,-0.009516604244709015,6.518866539001465,-0.1766970306634903,-1.5033533573150635
1403637134613319000,-0.054636143147945404,-0.20834296941757202,-0.004635743796825409,6.519820690155029,-0.19298046827316284,-1.5033130645751953
1403637134618319000,-0.04279879480600357,-0.2174086719751358,0.002372361719608307,6.4794416427612305,-0.18540392816066742,-1.495071291923523
1403637134623319000,-0.03379332274198532,-0.22226090729236603,0.01481708511710167,6.603026390075684,-0.09580636769533157,-1.5432701110839844
1403637134628319000,-0.023368090391159058,-0.23055830597877502,0.029431037604808807,6.5298237800598145,-0.015303869731724262,-1.551377296447754
1403637134633319000,-0.017038919031620026,-0.2305791676044464,0.030831489711999893,6.595168590545654,0.08265624195337296,-1.5594356060028076
1403637134638319000,-0.017058879137039185,-0.24099518358707428,0.03365183621644974,6.554427146911621,0.131044402718544,-1.6244481801986694
1403637134643319000,-0.014317572116851807,-0.24311856925487518,0.030115686357021332,6.603273391723633,0.2375182956457138,-1.6247066259384155
1403637134648319000,-0.0206126868724823,-0.25285255908966064,0.030118875205516815,6.447422981262207,0.20441384613513947,-1.5925114154815674
1403637134653319000,-0.028247468173503876,-0.25847604870796204,0.016882941126823425,6.479560852050781,0.14775440096855164,-1.6254065036773682
1403637134658319000,-0.029617339372634888,-0.2647322118282318,0.005755387246608734,6.3482513427734375,0.033428482711315155,-1.609670639038086
1403637134663319000,-0.030349500477313995,-0.2731366753578186,-0.01520673930644989,6.445762634277344,0.009262770414352417,-1.6505016088485718
1403637134668319000,-0.02821338176727295,-0.28645047545433044,-0.027034230530261993,6.363645076751709,-0.023759087547659874,-1.5852985382080078
1403637134673319000,-0.02961697429418564,-0.30189839005470276,-0.04523811489343643,6.526803016662598,0.025687942281365395,-1.6334874629974365
1403637134678319000,-0.024715527892112732,-0.31523698568344116,-0.05643560737371445,6.518513202667236,-0.03172144666314125,-1.5680978298187256
1403637134683319000,-0.020534910261631012,-0.3286210894584656,-0.0654967725276947,6.804937839508057,-0.11314336210489273,-1.6161980628967285
1403637134688319000,-0.007926687598228455,-0.341935396194458,-0.06270509958267212,7.042983531951904,-0.26054564118385315,-1.7130202054977417
1403637134693319000,0.004600510001182556,-0.3503684997558594,-0.05712570995092392,7.354952335357666,-0.3256969451904297,-1.8512476682662964
1403637134698319000,0.021317914128303528,-0.35601815581321716,-0.03890622407197952,7.43812894821167,-0.46497300267219543,-1.9243813753128052
1403637134703319000,0.04858557879924774,-0.3623308539390564,-0.013068176805973053,7.635675430297852,-0.5143367052078247,-1.9979032278060913
1403637134708319000,0.07718034088611603,-0.36576342582702637,0.027444420382380486,7.572164535522461,-0.5229025483131409,-2.095916509628296
1403637134713319000,0.09666948020458221,-0.37413179874420166,0.05958949774503708,7.753769397735596,-0.3510528802871704,-2.2922983169555664
1403637134718319000,0.11053347587585449,-0.38530391454696655,0.08959002047777176,7.714200019836426,-0.24473267793655396,-2.3740830421447754
1403637134723319000,0.11533127725124359,-0.395096093416214,0.10345711559057236,7.869527339935303,-0.12230738252401352,-2.440096139907837
1403637134728319000,0.11668504774570465,-0.4006548225879669,0.10408711433410645,7.8450026512146,-0.1550251990556717,-2.603362798690796
1403637134733319000,0.1132577508687973,-0.4110974371433258,0.09155218303203583,7.869060516357422,-0.04030086472630501,-2.7181925773620605
1403637134738319000,0.10621805489063263,-0.4166710674762726,0.07622350752353668,7.885073661804199,-0.023443294689059258,-2.758964776992798
1403637134743319000,0.09495246410369873,-0.42574235796928406,0.046918705105781555,7.8353376388549805,-0.04032627493143082,-2.8322958946228027
1403637134748319000,0.08027485013008118,-0.4369742274284363,0.0176546648144722,7.810339450836182,-0.1381610631942749,-2.8237006664276123
1403637134753319000,0.07609200477600098,-0.4565819203853607,-0.005350746214389801,7.948652744293213,-0.30143269896507263,-2.8885834217071533
1403637134758319000,0.07750962674617767,-0.4664176404476166,-0.018651671707630157,7.98105525970459,-0.3907516598701477,-2.92089581489563
1403637134763319000,0.09296582639217377,-0.4769681692123413,-0.011603064835071564,8.111391067504883,-0.5053827166557312,-2.855541706085205
1403637134768319000,0.10066978633403778,-0.48537158966064453,0.0073202550411224365,8.217519760131836,-0.5462313890457153,-2.863635778427124
1403637134773319000,0.11600105464458466,-0.4958855211734772,0.03592788055539131,8.283105850219727,-0.5463958978652954,-2.8230795860290527
1403637134778319000,0.12579484283924103,-0.4966724216938019,0.07504500448703766,8.544697761535645,-0.5619169473648071,-2.9298081398010254
1403637134783319000,0.13766030967235565,-0.4946402609348297,0.11827413737773895,8.610455513000488,-0.5861930847167969,-3.020324230194092
1403637134788319000,0.14607927203178406,-0.491085022687912,0.15091729164123535,8.831184387207031,-0.5037544369697571,-3.2414982318878174
1403637134793319000,0.14806321263313293,-0.4805440306663513,0.17116332054138184,8.798818588256836,-0.44742661714553833,-3.3726999759674072
