#timestamp [ns],w_RS_S_x [rad s^-1],w_RS_S_y [rad s^-1],w_RS_S_z [rad s^-1],a_RS_S_x [m s^-2],a_RS_S_y [m s^-2],a_RS_S_z [m s^-2]
1403637130498319000,-0.032114058236695664,0.05445427266222308,0.07749261878854824,9.447072833333333,-0.9398039583333333,-2.4516625
1403637130503319000,-0.017453292519943295,0.04328416544945937,0.06632251157578452,9.250939833333334,-1.1359369583333332,-2.4108014583333333
1403637130508319000,0.003490658503988659,0.033510321638291124,0.05375614096142535,9.16921775,-1.1849702083333333,-2.4434902916666665
1403637130513319000,0.019547687622336492,0.017453292519943295,0.05026548245743669,9.144701125,-1.0296982499999998,-2.435318083333333
1403637130518319000,0.029321531433504733,0.004886921905584123,0.056548667764616284,9.226423208333333,-0.7436709583333333,-2.4925235416666665
1403637130523319000,0.025132741228718346,0.0006981317007977319,0.06492624817418906,9.487933875,-0.4494714583333333,-2.459834708333333
1403637130528319000,0.0027925268031909274,0.004886921905584123,0.07539822368615504,9.422556208333333,-0.3350605416666666,-2.3944570416666666
1403637130533319000,-0.017453292519943295,0.0013962634015954637,0.09215338450530061,9.46341725,-0.43312704166666666,-2.4189736666666666
1403637130538319000,-0.030019663134302467,0.014660765716752367,0.10262536001726656,9.586000375,-0.661948875,-2.3862848333333333
1403637130543319000,-0.0307177948351002,0.025132741228718346,0.11519173063162574,9.635033625,-0.8417374583333332,-2.3535959999999996
1403637130548319000,-0.02024581932313422,0.03630284844148206,0.11309733552923257,9.659550249999999,-0.9970094166666666,-2.4108014583333333
1403637130553319000,-0.0006981317007977319,0.04258603374866164,0.1075122819228507,9.577828166666666,-1.0133538333333332,-2.3045627499999997
1403637130558319000,0.017453292519943295,0.03700098014227979,0.08936085770210968,9.316317499999998,-0.8662540833333333,-2.2718739166666664
1403637130563319000,0.029321531433504733,0.0153588974175501,0.07051130178057091,9.332661916666666,-0.6782932916666666,-2.3699404166666667
1403637130568319000,0.030019663134302467,0.020943951023931952,0.06422811647339133,9.422556208333333,-0.4739880833333333,-2.476179125
1403637130573319000,0.017453292519943295,0.014660765716752367,0.07051130178057091,9.414383999999998,-0.220649625,-2.6151066666666667
1403637130578319000,-0.0020943951023931952,0.01884955592153876,0.07539822368615504,9.520622708333333,-0.14709974999999997,-2.6477955
1403637130583319000,-0.020943951023931952,0.021642082724729686,0.0879645943005142,9.340834124999999,-0.2778550833333333,-2.59876225
1403637130588319000,-0.0307177948351002,0.02024581932313422,0.08656833089891874,9.389867375,-0.6782932916666666,-2.549729
1403637130593319000,-0.02722713633111154,0.02234021442552742,0.07749261878854824,9.430728416666666,-0.9724927916666666,-2.582417833333333
1403637130598319000,-0.004886921905584123,0.024434609527920613,0.06911503837897544,9.389867375,-1.0869037083333333,-2.557901208333333
1403637130603319000,0.012566370614359173,0.01884955592153876,0.06911503837897544,9.316317499999998,-1.103248125,-2.459834708333333
1403637130608319000,0.030019663134302467,0.016057029118347832,0.07120943348136866,9.389867375,-0.8580818749999999,-2.4680069166666665
1403637130613319000,0.03560471674068433,0.0013962634015954637,0.08237954069413235,9.210078791666666,-0.7273265416666667,-2.3209071666666663
1403637130618319000,0.02583087292951608,-0.006283185307179587,0.08307767239493008,9.381695166666667,-0.6782932916666666,-2.280046125
1403637130623319000,0.025132741228718346,-0.009773843811168246,0.08377580409572781,9.536967125,-0.73549875,-2.1656352083333332
1403637130628319000,0.02583087292951608,-0.01117010721276371,0.07260569688296412,9.814822208333332,-0.563882375,-2.214668458333333
1403637130633319000,0.024434609527920613,0.0041887902047863905,0.07819075048934597,9.782133375,-0.4739880833333333,-2.157463
1403637130638319000,0.016057029118347832,0.009075712110370514,0.06562437987498679,9.724927916666667,-0.34323275000000003,-2.2718739166666664
1403637130643319000,0.005706265568733215,0.02557513490319252,0.04904989153146744,9.55840015411377,-0.4490385353565216,-2.3292272090911865
1403637130648319000,-0.004783764481544495,0.037408411502838135,0.027470506727695465,9.411137580871582,-0.44895488023757935,-2.557811737060547
1403637130653319000,-0.008291944861412048,0.03739366680383682,0.04006735235452652,9.386962890625,-0.34289708733558655,-2.7866058349609375
1403637130658319000,-0.011789113283157349,0.04646529629826546,0.06170595437288284,9.582976341247559,-0.2778012752532959,-2.9990639686584473
1403637130663319000,-0.017407357692718506,0.05551350116729736,0.07775170356035233,9.362464904785156,-0.30222633481025696,-2.9988627433776855
1403637130668319000,-0.03205907344818115,0.05341223627328873,0.07286667078733444,9.256117820739746,-0.3266054689884186,-2.9171640872955322
1403637130673319000,-0.04951353371143341,0.04221011698246002,0.06029374152421951,9.002776145935059,-0.571376621723175,-2.84346079826355
1403637130678319000,-0.0495007187128067,0.02685723453760147,0.048419348895549774,9.00274658203125,-0.7182941436767578,-2.7618908882141113
1403637130683319000,-0.046021997928619385,0.009405553340911865,0.06934642046689987,8.962051391601562,-0.7755597233772278,-2.647614002227783
1403637130688319000,-0.04253301024436951,-0.0017272606492042542,0.0895242765545845,9.239630699157715,-0.8165220022201538,-2.5253114700317383
1403637130693319000,-0.03550504148006439,-0.011421598494052887,0.09917313605546951,9.402547836303711,-1.1512304544448853,-2.264744281768799
1403637130698319000,-0.022802919149398804,-0.010468654334545135,0.09062612801790237,9.614856719970703,-1.477594256401062,-1.9396880865097046
1403637130703319000,0.006603822112083435,-0.013683028519153595,0.08143395930528641,9.535122871398926,-1.690141201019287,-1.6880402565002441
1403637130708319000,0.04914940893650055,-0.012503281235694885,0.07526952773332596,9.803927421569824,-1.3063583374023438,-1.8820486068725586
1403637130713319000,0.06086921691894531,0.003993183374404907,0.09153153747320175,9.934785842895508,-0.46583157777786255,-2.182312488555908
1403637130718319000,0.0420197993516922,0.033269308507442474,0.10844960063695908,10.024953842163086,0.23660048842430115,-2.5174474716186523
1403637130723319000,-0.004778370261192322,0.06814172863960266,0.12661084532737732,9.787515640258789,0.310240238904953,-2.648200750350952
1403637130728319000,-0.03973378241062164,0.08066796511411667,0.12096307426691055,9.582282066345215,-0.15548333525657654,-2.6148080825805664
1403637130733319000,-0.04185330867767334,0.07296391576528549,0.11184573918581009,9.116024017333984,-0.9389970302581787,-2.442964792251587
1403637130738319000,-0.012524858117103577,0.053419411182403564,0.0964893028140068,9.075523376464844,-1.2331100702285767,-2.451772689819336
1403637130743319000,0.02094706892967224,0.031054072082042694,0.08049722760915756,8.95409870147705,-1.020736813545227,-2.5006115436553955
1403637130748319000,0.029360786080360413,0.010860107839107513,0.06382030993700027,9.151206016540527,-0.29391977190971375,-2.762174367904663
1403637130753319000,0.018936291337013245,0.003911545500159264,0.055479951202869415,9.216609954833984,-0.02426442876458168,-2.795217752456665
1403637130758319000,-0.007558912038803101,-0.00863962434232235,0.04570136219263077,9.224700927734375,-0.03226563334465027,-2.5991530418395996
1403637130763319000,-0.035472333431243896,-0.023310277611017227,0.04144757241010666,9.281553268432617,-0.2854311764240265,-2.4439053535461426
1403637130768319000,-0.042427778244018555,-0.015627223998308182,0.03856223076581955,9.72145938873291,-0.5224910378456116,-2.444122076034546
1403637130773319000,-0.04454101622104645,0.007403962314128876,0.05037020891904831,9.736719131469727,-0.8327205181121826,-2.4276695251464844
1403637130778319000,-0.029903143644332886,0.02275952696800232,0.058039598166942596,9.801697731018066,-0.9552800059318542,-2.4929022789001465
1403637130783319000,-0.015276789665222168,0.040901076048612595,0.06713638454675674,9.663132667541504,-0.9390063881874084,-2.500823736190796
1403637130788319000,-0.004827037453651428,0.05206208676099777,0.0720534399151802,9.524733543395996,-0.8084127306938171,-2.4842610359191895
1403637130793319000,-0.00831727683544159,0.05484943836927414,0.0755663737654686,9.32090950012207,-0.6858224272727966,-2.3942863941192627
1403637130798319000,-0.008979231119155884,0.04231664910912514,0.0671597346663475,9.247634887695312,-0.7672138810157776,-2.2067441940307617
1403637130803319000,-0.006836235523223877,0.01447470486164093,0.056601352989673615,9.084922790527344,-1.297763705253601,-2.0368247032165527
1403637130808319000,0.014833107590675354,-0.016894236207008362,0.046763546764850616,9.371038436889648,-1.3878308534622192,-2.0781447887420654
1403637130813319000,0.05035342276096344,-0.028853196650743484,0.06361529976129532,9.486099243164062,-0.8901000618934631,-2.2646052837371826
1403637130818319000,0.05108126997947693,-0.023267734795808792,0.07771409302949905,9.870665550231934,-0.10640262812376022,-2.558516502380371
1403637130823319000,0.01970706880092621,0.01512092910706997,0.09035197645425797,9.935418128967285,0.2367556393146515,-2.7221052646636963
1403637130828319000,-0.01730300486087799,0.04370883107185364,0.08613070100545883,9.893471717834473,0.04878265783190727,-2.7136356830596924
1403637130833319000,-0.03483092784881592,0.061131659895181656,0.08323033899068832,9.573471069335938,-0.5962110161781311,-2.5085854530334473
1403637130838319000,-0.020173251628875732,0.05834360793232918,0.08040808886289597,9.361042976379395,-1.0204967260360718,-2.402700662612915
1403637130843319000,-0.00205250084400177,0.04784221574664116,0.08533845096826553,9.051496505737305,-1.0368770360946655,-2.3781888484954834
1403637130848319000,0.010488271713256836,0.03316874802112579,0.08119527250528336,9.11749267578125,-0.7675716876983643,-2.541309356689453
1403637130853319000,0.005598768591880798,0.022686343640089035,0.07493946701288223,9.093269348144531,-0.677776575088501,-2.688349723815918
1403637130858319000,0.0007332712411880493,0.013639535754919052,0.06862322241067886,9.32176399230957,-0.7186400890350342,-2.6477441787719727
1403637130863319000,0.0014349520206451416,0.006661940366029739,0.07768508046865463,9.232016563415527,-0.7430877685546875,-2.5170891284942627
1403637130868319000,0.0007646828889846802,-0.001681014895439148,0.08113498240709305,9.477081298828125,-0.6533399224281311,-2.4356048107147217
1403637130873319000,-0.008293643593788147,-0.00306137278676033,0.08737903088331223,9.460562705993652,-0.7267053723335266,-2.3049871921539307
1403637130878319000,-0.010383158922195435,-0.003049790859222412,0.09221651405096054,9.598825454711914,-0.9145578145980835,-2.3215434551239014
1403637130883319000,-0.0013115257024765015,0.011625997722148895,0.10196737200021744,9.622862815856934,-1.0697526931762695,-2.3297691345214844
1403637130888319000,0.013297006487846375,0.02555815875530243,0.11736070364713669,9.73726749420166,-0.955813467502594,-2.500835657119751
1403637130893319000,0.026534542441368103,0.045088570564985275,0.12858039140701294,9.550114631652832,-0.7027497887611389,-2.4922678470611572
1403637130898319000,0.02376796305179596,0.05067453905940056,0.12653383612632751,9.45272445678711,-0.31060752272605896,-2.4105477333068848
1403637130903319000,0.009815573692321777,0.045776426792144775,0.11819878965616226,9.175212860107422,-0.22859540581703186,-2.312424659729004
1403637130908319000,-0.002736806869506836,0.02274451032280922,0.10770659893751144,9.24052619934082,-0.35923507809638977,-2.328953504562378
1403637130913319000,-0.006917312741279602,0.0066883862018585205,0.08814247697591782,9.411819458007812,-0.5144836902618408,-2.4517710208892822
1403637130918319000,6.920099258422852e-05,0.00110587477684021,0.07070698589086533,9.558881759643555,-0.51459801197052,-2.607151985168457
1403637130923319000,0.0007696002721786499,0.011575721204280853,0.06164952367544174,9.51790714263916,-0.49821212887763977,-2.6315720081329346
1403637130928319000,-0.0020071566104888916,0.0262431800365448,0.05746004730463028,9.640022277832031,-0.4574378430843353,-2.631535530090332
1403637130933319000,-0.0020159631967544556,0.034617502242326736,0.06233038753271103,9.48470687866211,-0.5226134061813354,-2.492508888244629
1403637130938319000,-0.0006203055381774902,0.030431490391492844,0.06580794602632523,9.419469833374023,-0.5633669495582581,-2.4190053939819336
1403637130943319000,-0.0006244033575057983,0.02553579956293106,0.060921140015125275,9.2725248336792,-0.6775402426719666,-2.3782029151916504
1403637130948319000,-0.004802733659744263,0.01367511972784996,0.056028030812740326,9.435877799987793,-0.6449922323226929,-2.4518535137176514
1403637130953319000,-0.0075865089893341064,0.012981727719306946,0.05462636798620224,9.427680015563965,-0.6449537873268127,-2.4110310077667236
1403637130958319000,-0.008973941206932068,0.0074013397097587585,0.049033232033252716,9.517443656921387,-0.6613156199455261,-2.4356374740600586
1403637130963319000,-0.011080905795097351,0.011581897735595703,0.05740491300821304,9.452033996582031,-0.7184574007987976,-2.4274115562438965
1403637130968319000,-0.0055049508810043335,0.01646886020898819,0.06298261135816574,9.615199089050293,-0.7104887366294861,-2.5090744495391846
1403637130973319000,-0.002727508544921875,0.026931099593639374,0.06719557195901871,9.541800498962402,-0.6452036499977112,-2.5497477054595947
1403637130978319000,-0.0034106969833374023,0.033221978694200516,0.0630224272608757,9.590798377990723,-0.5227510929107666,-2.5497376918792725
1403637130983319000,-0.01110146939754486,0.031809382140636444,0.06863424926996231,9.337911605834961,-0.4654245674610138,-2.525118350982666
1403637130988319000,-0.018072694540023804,0.025530222803354263,0.06444122642278671,9.411355972290039,-0.4736045300960541,-2.557891845703125
1403637130993319000,-0.0194777250289917,0.024822399020195007,0.06653287261724472,9.305166244506836,-0.5388554334640503,-2.5251495838165283
1403637130998319000,-0.018087461590766907,0.024119693785905838,0.06303686648607254,9.34589672088623,-0.6205459833145142,-2.582350254058838
1403637131003319000,-0.019487187266349792,0.019927114248275757,0.07072622328996658,9.256284713745117,-0.5551973581314087,-2.5578222274780273
1403637131008319000,-0.019478127360343933,0.01993924006819725,0.06931523233652115,9.37051773071289,-0.5552407503128052,-2.5415568351745605
1403637131013319000,-0.022274941205978394,0.02063317969441414,0.074195496737957,9.32145881652832,-0.5878691077232361,-2.5088369846343994
1403637131018319000,-0.026445582509040833,0.019258365035057068,0.07693038135766983,9.500679969787598,-0.7021953463554382,-2.419142484664917
1403637131023319000,-0.022234156727790833,0.013012021780014038,0.07966604083776474,9.370001792907715,-0.9795584082603455,-2.2317185401916504
1403637131028319000,-0.006798401474952698,0.0005553290247917175,0.06421103328466415,9.582317352294922,-1.216220736503601,-2.0856902599334717
1403637131033319000,0.01693369448184967,-0.005023837089538574,0.06002863496541977,9.607388496398926,-1.1346663236618042,-2.0692355632781982
1403637131038319000,0.03015865385532379,0.0025823302567005157,0.06013629585504532,9.697688102722168,-0.587928831577301,-2.17431378364563
1403637131043319000,0.019671007990837097,0.017211660742759705,0.07003369182348251,9.673591613769531,-0.13068056106567383,-2.3783042430877686
1403637131048319000,-0.008226826786994934,0.037443242967128754,0.0694003626704216,9.771202087402344,0.065280482172966,-2.6482019424438477
1403637131053319000,-0.030618399381637573,0.04926895350217819,0.06446831673383713,9.484551429748535,-0.27767202258110046,-2.6150152683258057
1403637131058319000,-0.03413879871368408,0.05621872842311859,0.05534747987985611,9.402098655700684,-0.767461895942688,-2.63108491897583
1403637131063319000,-0.013200044631958008,0.04642091691493988,0.045579589903354645,9.059564590454102,-1.1020139455795288,-2.484463691711426
1403637131068319000,0.010510683059692383,0.028272025287151337,0.03512611240148544,9.133660316467285,-0.9796292781829834,-2.590602159500122
1403637131073319000,0.021675705909729004,0.015023604035377502,0.03166668862104416,9.142414093017578,-0.6939140558242798,-2.696693181991577
1403637131078319000,0.016118213534355164,0.008773844689130783,0.030269376933574677,9.354768753051758,-0.5470362901687622,-2.7458858489990234
1403637131083319000,0.0049521178007125854,-0.004498619586229324,0.04701227694749832,9.19157886505127,-0.5714512467384338,-2.5743746757507324
1403637131088319000,-0.006907433271408081,-0.008675556629896164,0.06230073422193527,9.354516983032227,-0.7593297958374023,-2.460204839706421
1403637131093319000,-0.009689241647720337,-0.009346865117549896,0.08247631043195724,9.403238296508789,-0.9226281046867371,-2.3133928775787354
1403637131098319000,-0.00898943841457367,-0.003743112087249756,0.10197753459215164,9.647844314575195,-0.8819617033004761,-2.3051834106445312
1403637131103319000,-0.006213977932929993,0.00673452764749527,0.12430078536272049,9.61496639251709,-0.9473561644554138,-2.296915292739868
1403637131108319000,-0.004149079322814941,0.022774092853069305,0.1438540816307068,9.786131858825684,-0.841484010219574,-2.4027962684631348
1403637131113319000,-0.0013841688632965088,0.03812412917613983,0.16131967306137085,9.712625503540039,-0.8415960073471069,-2.443376064300537
1403637131118319000,-0.0013776570558547974,0.05558668076992035,0.15852293372154236,9.687719345092773,-0.9068557024002075,-2.42695689201355
1403637131123319000,0.004949793219566345,0.05911507457494736,0.1438550055027008,9.320426940917969,-1.1759281158447266,-2.239687442779541
1403637131128319000,0.024450883269309998,0.0471719428896904,0.13277104496955872,8.904584884643555,-1.241506814956665,-2.2804508209228516
1403637131133319000,0.05300748348236084,0.013621188700199127,0.13842985033988953,8.938505172729492,-0.8415243029594421,-2.459519863128662
1403637131138319000,0.06351575255393982,0.0038856156170368195,0.13847798109054565,9.30715560913086,-0.17192938923835754,-2.7376339435577393
1403637131143319000,0.04823780059814453,0.0025338195264339447,0.13643252849578857,9.535893440246582,0.34302136301994324,-2.8119161128997803
1403637131148319000,0.0057077556848526,0.01580718718469143,0.11340805143117905,9.64967155456543,0.35133886337280273,-2.779374361038208
1403637131153319000,-0.023640722036361694,0.019960083067417145,0.09726802259683609,9.558956146240234,-0.13885146379470825,-2.5581634044647217
1403637131158319000,-0.022260919213294983,0.022753722965717316,0.08879288285970688,9.500776290893555,-0.6613810062408447,-2.3782455921173096
1403637131163319000,9.366869926452637e-05,0.015803106129169464,0.07969038933515549,9.362268447875977,-0.8734548091888428,-2.2315640449523926
1403637131168319000,0.020339205861091614,0.012309424579143524,0.06299451738595963,9.444557189941406,-0.5632998943328857,-2.2966628074645996
1403637131173319000,0.024550333619117737,0.006738606840372086,0.05257623642683029,9.518499374389648,-0.2774912416934967,-2.3456320762634277
1403637131178319000,0.005748137831687927,0.01303856447339058,0.033754996955394745,9.624265670776367,-0.13856816291809082,-2.321079969406128
1403637131183319000,-0.013095438480377197,0.011632788926362991,0.027419917285442352,9.574711799621582,-0.3590299189090729,-2.2476136684417725
1403637131188319000,-0.02288748323917389,0.018591158092021942,0.026686497032642365,9.541383743286133,-0.6366065144538879,-2.3130884170532227
1403637131193319000,-0.014526814222335815,0.019284985959529877,0.03571762889623642,9.679722785949707,-0.9142736196517944,-2.394993543624878
1403637131198319000,-0.008279100060462952,0.03322518616914749,0.04481623321771622,9.58995532989502,-0.9388456344604492,-2.4682834148406982
1403637131203319000,-0.00759616494178772,0.034615322947502136,0.05530755966901779,9.476035118103027,-0.791936993598938,-2.443603038787842
1403637131208319000,-0.006225302815437317,0.03320083022117615,0.06998088210821152,9.296671867370605,-0.8082773685455322,-2.443495512008667
1403637131213319000,-0.0041322410106658936,0.026224538683891296,0.07554861158132553,9.29671573638916,-0.8817850351333618,-2.4191067218780518
1403637131218319000,-0.0020537376403808594,0.025515835732221603,0.08323169499635696,9.280394554138184,-0.9145616292953491,-2.4680607318878174
1403637131223319000,0.0014237016439437866,0.017835021018981934,0.09510018676519394,9.29697322845459,-0.8575363755226135,-2.492520570755005
1403637131228319000,0.00490976870059967,0.01086195558309555,0.1076563224196434,9.362532615661621,-0.7841478586196899,-2.4843623638153076
1403637131233319000,0.0007324814796447754,0.00458863377571106,0.10834299772977829,9.476938247680664,-0.7106778621673584,-2.476287364959717
1403637131238319000,0.004230394959449768,0.01227615773677826,0.10834602266550064,9.48513126373291,-0.6371545791625977,-2.4353909492492676
1403637131243319000,0.0028467923402786255,0.015076417475938797,0.1055360957980156,9.705331802368164,-0.6127898097038269,-2.4763355255126953
1403637131248319000,0.002851128578186035,0.027643371373414993,0.10067539662122726,9.476799011230469,-0.5554031133651733,-2.378115177154541
1403637131253319000,0.0007598996162414551,0.032523028552532196,0.0958230122923851,9.583044052124023,-0.4003908038139343,-2.517024278640747
1403637131258319000,-0.004138365387916565,0.03879373148083687,0.09303425997495651,9.403183937072754,-0.4982273280620575,-2.4760117530822754
1403637131263319000,-0.011814147233963013,0.03390718996524811,0.08882609754800797,9.566202163696289,-0.5881472826004028,-2.557807683944702
1403637131268319000,-0.006233543157577515,0.03669550269842148,0.08394532650709152,9.370240211486816,-0.677770733833313,-2.4678869247436523
1403637131273319000,-0.003422096371650696,0.019257627427577972,0.08185821026563644,9.223822593688965,-0.5959222912788391,-2.3127849102020264
1403637131278319000,0.002861395478248596,0.004599839448928833,0.08258762210607529,9.273369789123535,-0.4163609445095062,-2.3863704204559326
1403637131283319000,-0.006878867745399475,0.014384817332029343,0.07772324234247208,9.66515827178955,-0.2124713510274887,-2.631772041320801
1403637131288319000,-0.022229120135307312,0.021363403648138046,0.06309147924184799,9.419953346252441,-0.17950506508350372,-2.533555507659912
1403637131293319000,-0.0389762818813324,0.016465716063976288,0.04557038098573685,9.53335189819336,-0.5551329851150513,-2.5172200202941895
1403637131298319000,-0.025726541876792908,0.02205003798007965,0.05179733783006668,9.361579895019531,-0.9713351130485535,-2.3785641193389893
1403637131303319000,-0.008982047438621521,0.018567077815532684,0.05596836656332016,9.410697937011719,-1.061253547668457,-2.3868911266326904
1403637131308319000,0.007764041423797607,0.017884187400341034,0.06363747268915176,9.484427452087402,-0.9878849983215332,-2.3623359203338623
1403637131313319000,0.014036878943443298,0.026951201260089874,0.061590634286403656,9.647932052612305,-0.6778866648674011,-2.4845006465911865
1403637131318319000,0.011929750442504883,0.023435965180397034,0.058867983520030975,9.232125282287598,-0.5143250823020935,-2.4597978591918945
1403637131323319000,-0.006210148334503174,0.015063915401697159,0.06582369655370712,9.403433799743652,-0.5307692289352417,-2.5089452266693115
1403637131328319000,-0.007618159055709839,0.022735945880413055,0.07766903191804886,9.280705451965332,-0.6613433361053467,-2.410810708999634
1403637131333319000,-0.002045854926109314,0.0157574862241745,0.08880961686372757,9.395003318786621,-0.7594864964485168,-2.451753616333008
1403637131338319000,0.0007313340902328491,0.01295987144112587,0.09228803962469101,9.566329956054688,-0.8413600325584412,-2.582496404647827
1403637131343319000,0.00701470673084259,0.029020119458436966,0.08951052278280258,9.5662841796875,-0.7596946358680725,-2.574186325073242
1403637131348319000,0.011886432766914368,0.033194851130247116,0.10002417117357254,9.378983497619629,-0.5718724131584167,-2.5903549194335938
1403637131353319000,0.005630210041999817,0.036695193499326706,0.09238103777170181,9.493499755859375,-0.3269268870353699,-2.713078737258911
1403637131358319000,-0.007619932293891907,0.03808830305933952,0.08611712604761124,9.354575157165527,-0.2613946497440338,-2.6477177143096924
1403637131363319000,-0.021571919322013855,0.03459272161126137,0.07074826210737228,9.264392852783203,-0.40004661679267883,-2.5577664375305176
1403637131368319000,-0.024359941482543945,0.015744276344776154,0.06859523802995682,9.149856567382812,-0.7917863130569458,-2.378253698348999
1403637131373319000,-0.017353296279907227,0.0011269524693489075,0.07131009548902512,9.231461524963379,-1.1020619869232178,-2.2646141052246094
1403637131378319000,0.0036053061485290527,-0.016270652413368225,0.08588909357786179,9.386730194091797,-1.3228579759597778,-2.224473476409912
1403637131383319000,0.023168370127677917,-0.008550547063350677,0.08935078233480453,9.68052864074707,-1.2085151672363281,-2.216074228286743
1403637131388319000,0.031545594334602356,-0.008555889129638672,0.08937305957078934,9.70559310913086,-0.9472273588180542,-2.1584863662719727
1403637131393319000,0.03224097192287445,0.008865609765052795,0.09081950038671494,9.852494239807129,-0.6044883728027344,-2.1987922191619873
1403637131398319000,0.03082805871963501,0.026289060711860657,0.09438582509756088,9.795674324035645,-0.3024084270000458,-2.280182123184204
1403637131403319000,0.018237367272377014,0.0451115146279335,0.09723282605409622,9.673128128051758,-0.17990919947624207,-2.427133083343506
1403637131408319000,-0.006901666522026062,0.05137203633785248,0.09865034371614456,9.615701675415039,-0.16357757151126862,-2.5742201805114746
1403637131413319000,-0.022983282804489136,0.06321071088314056,0.08887558430433273,9.410961151123047,-0.3757878839969635,-2.614741325378418
1403637131418319000,-0.025087222456932068,0.05202493071556091,0.07907678931951523,9.247323989868164,-0.7511679530143738,-2.541186809539795
1403637131423319000,-0.004843905568122864,0.041541870683431625,0.07069680839776993,9.05152702331543,-1.0858672857284546,-2.4599156379699707
1403637131428319000,0.016101136803627014,0.011538095772266388,0.06230629235506058,9.04395866394043,-1.1512507200241089,-2.4113454818725586
1403637131433319000,0.033555954694747925,-0.005190949887037277,0.05324041098356247,9.167115211486816,-0.8899141550064087,-2.4112205505371094
1403637131438319000,0.04195086658000946,-0.017726890742778778,0.05467582494020462,9.298497200012207,-0.4817360043525696,-2.468287467956543
1403637131443319000,0.025233015418052673,-0.01282084733247757,0.05610840767621994,9.46999740600586,-0.21226486563682556,-2.5582892894744873
1403637131448319000,0.00012643635272979736,-0.005142029374837875,0.0602819100022316,9.616555213928223,-0.18779270350933075,-2.525672674179077
1403637131453319000,-0.01663823425769806,0.00601428747177124,0.06510709971189499,9.574954986572266,-0.4082541763782501,-2.394763469696045
1403637131458319000,-0.02013470232486725,0.01648443192243576,0.07062993198633194,9.704726219177246,-0.6451249718666077,-2.3866159915924072
1403637131463319000,-0.015969887375831604,0.031135424971580505,0.0741133913397789,9.581893920898438,-0.8491672873497009,-2.411024570465088
1403637131468319000,-0.00901128351688385,0.037400223314762115,0.06995410472154617,9.63093090057373,-0.8411478400230408,-2.5578975677490234
1403637131473319000,-0.0055477917194366455,0.050628408789634705,0.06372281163930893,9.329060554504395,-0.8655129075050354,-2.606658697128296
1403637131478319000,0.0035212337970733643,0.03874567151069641,0.06377681344747543,9.044026374816895,-0.6204642057418823,-2.582089900970459
1403637131483319000,0.006323516368865967,0.02060990408062935,0.07217488437891006,9.020033836364746,-0.4163479506969452,-2.5822296142578125
1403637131488319000,0.004956364631652832,0.005297109484672546,0.07982505112886429,9.44499397277832,-0.29407748579978943,-2.631650924682617
1403637131493319000,-0.0159674733877182,0.007392846047878265,0.07982365041971207,9.469253540039062,-0.24500036239624023,-2.590846538543701
1403637131498319000,-0.03479325771331787,0.003902845084667206,0.06790135055780411,9.68897819519043,-0.43287330865859985,-2.5500996112823486
1403637131503319000,-0.03970076143741608,0.01296614482998848,0.0678480789065361,9.549328804016113,-0.8328008651733398,-2.4927804470062256
1403637131508319000,-0.029939740896224976,0.015066385269165039,0.07968714088201523,9.606334686279297,-0.939035177230835,-2.48465633392334
1403637131513319000,-0.010398313403129578,0.02695322409272194,0.08945619314908981,9.508624076843262,-0.8900109529495239,-2.3620541095733643
1403637131518319000,-0.0013265013694763184,0.027646087110042572,0.08460814505815506,9.54992389678955,-0.6533430218696594,-2.4027342796325684
1403637131523319000,-0.003414258360862732,0.03392406180500984,0.0769779160618782,9.3297758102417,-0.4898468554019928,-2.3372068405151367
1403637131528319000,-0.010386571288108826,0.02554510533809662,0.06932688504457474,9.3626070022583,-0.38370031118392944,-2.4189791679382324
1403637131533319000,-0.016683831810951233,0.026226568967103958,0.07211948186159134,9.36245059967041,-0.4491000175476074,-2.5251622200012207
1403637131538319000,-0.02156183123588562,0.024835769087076187,0.07140671461820602,9.56640338897705,-0.4655822813510895,-2.6069750785827637
1403637131543319000,-0.026459023356437683,0.024130795150995255,0.0762636736035347,9.500785827636719,-0.6288169026374817,-2.541552782058716
1403637131548319000,-0.026455655694007874,0.02762928232550621,0.07830601185560226,9.638896942138672,-0.8819383382797241,-2.5253207683563232
1403637131553319000,-0.0208607017993927,0.03532867133617401,0.08666478842496872,9.336909294128418,-1.0286370515823364,-2.313140392303467
1403637131558319000,-0.00690266489982605,0.02696286141872406,0.09362944215536118,9.29628849029541,-1.1675646305084229,-2.297105550765991
1403637131563319000,0.0077314674854278564,0.021364137530326843,0.10550952702760696,9.231232643127441,-1.1841232776641846,-2.329707384109497
1403637131568319000,0.023059725761413574,0.020655833184719086,0.11111826449632645,9.370467185974121,-0.963802695274353,-2.41914963722229
1403637131573319000,0.025837689638137817,0.022040989249944687,0.12092878669500351,9.403681755065918,-0.6536362767219543,-2.4842140674591064
1403637131578319000,0.013990268111228943,0.025532033294439316,0.12165453284978867,9.477398872375488,-0.37599846720695496,-2.5332815647125244
1403637131583319000,0.002131447196006775,0.01994587853550911,0.12934347987174988,9.40407657623291,-0.2615189850330353,-2.476120710372925
1403637131588319000,-0.015305176377296448,0.0206490196287632,0.12372710555791855,9.526114463806152,-0.33500468730926514,-2.443500280380249
1403637131593319000,-0.020173266530036926,0.012991108000278473,0.1103956326842308,9.549945831298828,-0.6696345806121826,-2.31294846534729
1403637131598319000,-0.008978724479675293,0.009527623653411865,0.09150923043489456,9.6556396484375,-0.9226767420768738,-2.3051633834838867
1403637131603319000,0.010560378432273865,0.015814796090126038,0.08454092592000961,9.582337379455566,-1.0043156147003174,-2.313392162322998
1403637131608319000,0.026599496603012085,0.023481830954551697,0.07899389415979385,9.6234712600708,-0.8411437273025513,-2.3702964782714844
1403637131613319000,0.034256711602211,0.020667031407356262,0.08255504816770554,9.469171524047852,-0.5554243326187134,-2.4353785514831543
1403637131618319000,0.029393166303634644,0.024863403290510178,0.07561882585287094,9.46121883392334,-0.3021978437900543,-2.443523645401001
1403637131623319000,0.009148404002189636,0.018564347177743912,0.07143480330705643,9.346699714660645,-0.36742496490478516,-2.459865093231201
1403637131628319000,-0.004806846380233765,0.018557850271463394,0.06164691597223282,9.387123107910156,-0.4817287027835846,-2.4925765991210938
1403637131633319000,-0.00620819628238678,0.017157014459371567,0.06091129034757614,9.394941329956055,-0.7103224396705627,-2.4599742889404297
1403637131638319000,-0.00133417546749115,0.018544074147939682,0.058110855519771576,9.451910018920898,-0.8573604226112366,-2.541710615158081
1403637131643319000,0.009130656719207764,0.01575067639350891,0.05950165539979935,9.378568649291992,-0.9389904737472534,-2.500962972640991
1403637131648319000,0.01749458909034729,0.02273155376315117,0.06162577122449875,9.41965389251709,-0.7513089179992676,-2.574265718460083
1403637131653319000,0.020293712615966797,0.01925087720155716,0.06722337752580643,9.436306953430176,-0.5880576372146606,-2.5660996437072754
1403637131658319000,0.012631043791770935,0.01856120303273201,0.06862599402666092,9.49350357055664,-0.4737546443939209,-2.5661511421203613
1403637131663319000,0.005657166242599487,0.01437460258603096,0.07560866326093674,9.411981582641602,-0.4083305299282074,-2.484448194503784
1403637131668319000,-0.005515009164810181,0.015063576400279999,0.07699040323495865,9.305571556091309,-0.514374315738678,-2.41902494430542
1403637131673319000,-0.006209313869476318,0.0032037608325481415,0.08115080744028091,9.444443702697754,-0.5552895069122314,-2.427356243133545
1403637131678319000,-0.008304476737976074,0.01786275953054428,0.08114656060934067,9.542049407958984,-0.5553794503211975,-2.476296901702881
1403637131683319000,-0.008302003145217896,0.020657256245613098,0.08114070445299149,9.599095344543457,-0.5554150938987732,-2.4844720363616943
1403637131688319000,-0.009702548384666443,0.031123735010623932,0.07766058295965195,9.566245079040527,-0.5635643601417542,-2.5088729858398438
1403637131693319000,-0.00900927186012268,0.03182028606534004,0.07975132018327713,9.500926971435547,-0.5961698293685913,-2.476160764694214
1403637131698319000,-0.009003862738609314,0.03461327403783798,0.07278171926736832,9.443763732910156,-0.5797614455223083,-2.451627492904663
1403637131703319000,-0.008302077651023865,0.026233099400997162,0.06443033367395401,9.362397193908691,-0.5225313305854797,-2.4679980278015137
1403637131708319000,-0.00969289243221283,0.022744573652744293,0.06094924360513687,9.354329109191895,-0.48168355226516724,-2.4761972427368164
1403637131713319000,-0.010381579399108887,0.015072662383317947,0.05604546517133713,9.48491096496582,-0.5307353734970093,-2.5008435249328613
1403637131718319000,-0.015963375568389893,0.021351229399442673,0.04905378073453903,9.476360321044922,-0.6368178129196167,-2.4926466941833496
1403637131723319000,-0.01735594868659973,0.019259702414274216,0.04972820729017258,9.47620677947998,-0.7429060935974121,-2.4437191486358643
1403637131728319000,-0.013871535658836365,0.020650796592235565,0.051126085221767426,9.313018798828125,-0.8162699341773987,-2.378385066986084
1403637131733319000,-0.006190836429595947,0.013680849224328995,0.052510879933834076,9.419321060180664,-0.7837077379226685,-2.386622190475464
1403637131738319000,-0.0034091174602508545,0.019263125956058502,0.0608878955245018,9.435615539550781,-0.7674555778503418,-2.402873992919922
1403637131743319000,-0.006192028522491455,0.017873387783765793,0.06088758260011673,9.541764259338379,-0.677722692489624,-2.4192097187042236
1403637131748319000,-0.006219327449798584,0.024835124611854553,0.0727783665060997,9.460225105285645,-0.6369853019714355,-2.500713348388672
1403637131753319000,-0.011807441711425781,0.02692544460296631,0.07556592673063278,9.517224311828613,-0.6533796787261963,-2.549708604812622
1403637131758319000,-0.015312343835830688,0.0345904566347599,0.0790441706776619,9.443349838256836,-0.8493073582649231,-2.56596302986145
1403637131763319000,-0.006922930479049683,0.03879615291953087,0.07970408350229263,9.500085830688477,-1.0860583782196045,-2.509039878845215
1403637131768319000,0.001483038067817688,0.03534892201423645,0.08526893705129623,9.165937423706055,-1.1347366571426392,-2.2073168754577637
1403637131773319000,0.018204331398010254,0.009495489299297333,0.09437119215726852,9.142126083374023,-1.0043118000030518,-2.2642481327056885
1403637131778319000,0.029349923133850098,0.0018102861940860748,0.10834500938653946,9.305864334106445,-0.8004212975502014,-2.3619883060455322
1403637131783319000,0.022378116846084595,-0.0030790120363235474,0.10557898133993149,9.5919771194458,-0.5148449540138245,-2.54175066947937
1403637131788319000,0.015408098697662354,0.012280076742172241,0.10978075116872787,9.624505043029785,-0.3760203719139099,-2.5498554706573486
1403637131793319000,0.0056488364934921265,0.022754807025194168,0.11046455055475235,9.713948249816895,-0.3515304625034332,-2.517167806625366
1403637131798319000,-0.00972159206867218,0.0325142964720726,0.109776072204113,9.501357078552246,-0.4003462791442871,-2.4842607975006104
1403637131803319000,-0.012512266635894775,0.03531108424067497,0.1111442819237709,9.590842247009277,-0.48204776644706726,-2.467925786972046
1403637131808319000,-0.009741619229316711,0.038787901401519775,0.1111493781208992,9.419241905212402,-0.6371047496795654,-2.475947380065918
1403637131813319000,-0.0048467665910720825,0.03530039265751839,0.09929052740335464,9.378504753112793,-0.6615044474601746,-2.451514482498169
1403637131818319000,0.0014439225196838379,0.021337680518627167,0.08744689077138901,9.240095138549805,-0.6450238823890686,-2.4026002883911133
1403637131823319000,0.00983940064907074,0.010885436087846756,0.07208580523729324,9.403621673583984,-0.5960763692855835,-2.427299976348877
1403637131828319000,0.008456259965896606,0.0073986053466796875,0.06584063917398453,9.281457901000977,-0.4326348304748535,-2.3863964080810547
1403637131833319000,0.0036024749279022217,0.0011357031762599945,0.05537199229001999,9.550943374633789,-0.3184255063533783,-2.468316078186035
1403637131838319000,-0.005472525954246521,0.003921095281839371,0.05327171832323074,9.550684928894043,-0.36742013692855835,-2.4846441745758057
1403637131843319000,-0.011742234230041504,0.010902952402830124,0.05117490142583847,9.6810302734375,-0.3511742949485779,-2.525529623031616
1403637131848319000,-0.01874352991580963,0.01996292546391487,0.05394544452428818,9.59893798828125,-0.5062839984893799,-2.517206907272339
1403637131853319000,-0.0222485214471817,0.029724590480327606,0.05672384053468704,9.631183624267578,-0.6288095712661743,-2.5742900371551514
1403637131858319000,-0.019480004906654358,0.03948153927922249,0.06091032177209854,9.484060287475586,-0.7756972908973694,-2.574138879776001
1403637131863319000,-0.013206526637077332,0.044361744076013565,0.062302760779857635,9.394195556640625,-0.8899416327476501,-2.5414676666259766
1403637131868319000,-0.00903300940990448,0.038062211126089096,0.0713992640376091,9.149648666381836,-0.8654112815856934,-2.4842324256896973
1403637131873319000,-0.0020478516817092896,0.02411835640668869,0.07908401638269424,9.174668312072754,-0.6694931983947754,-2.435243606567383
1403637131878319000,-0.004836186766624451,0.007367879152297974,0.08537139743566513,9.150519371032715,-0.5960056781768799,-2.4108049869537354
1403637131883319000,-0.011096969246864319,-0.0016844235360622406,0.0860406830906868,9.48537540435791,-0.4981843829154968,-2.4600725173950195
1403637131888319000,-0.017372488975524902,0.0039034150540828705,0.07972706109285355,9.501189231872559,-0.653257429599762,-2.4110748767852783
1403637131893319000,-0.011788830161094666,0.005998279899358749,0.07552603632211685,9.68871784210205,-0.7105700969696045,-2.501006841659546
1403637131898319000,-0.004810437560081482,0.019972294569015503,0.08178123086690903,9.639344215393066,-0.8492993116378784,-2.4192802906036377
1403637131903319000,0.002164900302886963,0.02765166386961937,0.08178875595331192,9.639348030090332,-0.8329965472221375,-2.4273719787597656
1403637131908319000,0.009820088744163513,0.0381082259118557,0.0888013169169426,9.492668151855469,-0.7595396637916565,-2.4434750080108643
1403637131913319000,0.006327122449874878,0.03949715197086334,0.08672291785478592,9.500885963439941,-0.6942564845085144,-2.4924232959747314
1403637131918319000,0.002822473645210266,0.03947412595152855,0.09233837574720383,9.223481178283691,-0.6777860522270203,-2.459597587585449
1403637131923319000,0.004221126437187195,0.0248207189142704,0.09303145855665207,9.305381774902344,-0.6533637642860413,-2.4924023151397705
1403637131928319000,0.003524273633956909,0.017839454114437103,0.09233307093381882,9.297293663024902,-0.6696882843971252,-2.4924581050872803
1403637131933319000,4.6819448471069336e-05,0.012264750897884369,0.08953753858804703,9.395377159118652,-0.5962240099906921,-2.5007264614105225
1403637131938319000,4.7340989112854004e-05,0.010864663869142532,0.08535230904817581,9.321859359741211,-0.6451382637023926,-2.4762191772460938
1403637131943319000,0.0021599382162094116,0.013675510883331299,0.07765517383813858,9.517672538757324,-0.6207028031349182,-2.476330280303955
1403637131948319000,0.002162620425224304,0.015067573636770248,0.06579401344060898,9.444066047668457,-0.6940790414810181,-2.4681711196899414
1403637131953319000,0.0070612430572509766,0.017872799187898636,0.06159912794828415,9.574652671813965,-0.6451535820960999,-2.468208074569702
1403637131958319000,0.009842485189437866,0.02135368064045906,0.06371506303548813,9.378890991210938,-0.6205415725708008,-2.4272420406341553
1403637131963319000,0.011959075927734375,0.01648702472448349,0.06021449714899063,9.542285919189453,-0.5307950973510742,-2.4110043048858643
1403637131968319000,0.004993528127670288,0.01928844302892685,0.05880606919527054,9.485010147094727,-0.5388301610946655,-2.304786443710327
1403637131973319000,0.0015079379081726074,0.013704389333724976,0.05531647056341171,9.436112403869629,-0.5469197034835815,-2.2803118228912354
1403637131978319000,-0.0012835115194320679,0.00463109090924263,0.056693293154239655,9.362715721130371,-0.6529773473739624,-2.231431484222412
1403637131983319000,-0.001968488097190857,0.001842740923166275,0.04900244623422623,9.599227905273438,-0.6367989778518677,-2.3132121562957764
1403637131988319000,-0.0026690512895584106,0.008815616369247437,0.042760707437992096,9.582932472229004,-0.514355480670929,-2.386590003967285
1403637131993319000,-0.007549390196800232,0.016492318361997604,0.0399881973862648,9.64808177947998,-0.44093263149261475,-2.451902151107788
1403637131998319000,-0.01456315815448761,0.02903290092945099,0.04977164417505264,9.42749309539795,-0.5061601996421814,-2.4680275917053223
1403637132003319000,-0.01596340537071228,0.03670935332775116,0.05255218595266342,9.541499137878418,-0.5552641153335571,-2.525188446044922
1403637132008319000,-0.016698181629180908,0.038774050772190094,0.05814575403928757,9.435358047485352,-0.7022588849067688,-2.6639184951782227
1403637132013319000,-0.013216659426689148,0.04504970833659172,0.05745606869459152,9.386362075805664,-0.7185778617858887,-2.6801774501800537
1403637132018319000,-0.009728014469146729,0.033868737518787384,0.05955987423658371,9.14986515045166,-0.7429286241531372,-2.5658681392669678
1403637132023319000,-0.007632076740264893,0.020622070878744125,0.0658326968550682,9.297097206115723,-0.6695786118507385,-2.6068482398986816
1403637132028319000,-0.0062398165464401245,0.010837521404027939,0.07003820687532425,9.125885009765625,-0.645015299320221,-2.5659892559051514
1403637132033319000,-0.01389998197555542,0.0010876096785068512,0.07139908522367477,9.329977989196777,-0.64506596326828,-2.525352716445923
1403637132038319000,-0.013197973370552063,-0.003095518797636032,0.07416141778230667,9.313526153564453,-0.7756612300872803,-2.435603618621826
1403637132043319000,-0.013181924819946289,-0.0009758807718753815,0.08109680563211441,9.550100326538086,-0.7512538433074951,-2.386699914932251
1403637132048319000,-0.004798427224159241,0.004628099501132965,0.08944671601057053,9.599020004272461,-0.7675994038581848,-2.313194751739502
1403637132053319000,-0.000593528151512146,0.0102248415350914,0.08734569698572159,9.721390724182129,-0.6860038042068481,-2.288663148880005
1403637132058319000,0.004277586936950684,0.017895344644784927,0.09086183458566666,9.607315063476562,-0.6288358569145203,-2.296659469604492
1403637132063319000,0.0007954984903335571,0.028360333293676376,0.07901649922132492,9.696842193603516,-0.555415689945221,-2.361947774887085
1403637132068319000,-0.003411799669265747,0.03951233997941017,0.08184877783060074,9.550004959106445,-0.46556973457336426,-2.4189324378967285
1403637132073319000,-0.01038786768913269,0.0395083911716938,0.07488320022821426,9.541788101196289,-0.44104623794555664,-2.459787607192993
1403637132078319000,-0.014590814709663391,0.03879392892122269,0.07489492744207382,9.305036544799805,-0.5143497586250305,-2.4188284873962402
1403637132083319000,-0.013891652226448059,0.029024340212345123,0.07207443565130234,9.378397941589355,-0.6694951057434082,-2.427151918411255
1403637132088319000,-0.006222516298294067,0.026224810630083084,0.070674829185009,9.304925918579102,-0.8082630634307861,-2.4272260665893555
1403637132093319000,0.003547981381416321,0.01994682475924492,0.06858884543180466,9.362378120422363,-0.7348607778549194,-2.45992374420166
1403637132098319000,0.009130239486694336,0.013664770871400833,0.07069488614797592,9.321857452392578,-0.6695514917373657,-2.451756238937378
1403637132103319000,0.00916038453578949,0.010197516530752182,0.06232989579439163,9.526183128356934,-0.46550387144088745,-2.4845478534698486
1403637132108319000,9.149312973022461e-05,0.0067057497799396515,0.06443200260400772,9.460932731628418,-0.41642796993255615,-2.451866865158081
1403637132113319000,-0.009653076529502869,0.010904669761657715,0.0595494881272316,9.648519515991211,-0.3185080885887146,-2.4846556186676025
1403637132118319000,-0.018039152026176453,0.01927468553185463,0.06653105467557907,9.542241096496582,-0.31026944518089294,-2.4436678886413574
1403637132123319000,-0.031983256340026855,0.025557130575180054,0.05816493183374405,9.599072456359863,-0.2775976359844208,-2.4845423698425293
1403637132128319000,-0.03828580677509308,0.02763468399643898,0.056040696799755096,9.525137901306152,-0.49802711606025696,-2.4925975799560547
1403637132133319000,-0.03759586811065674,0.0332111157476902,0.0511322095990181,9.532855987548828,-0.7021059393882751,-2.517068386077881
1403637132138319000,-0.027139633893966675,0.033898208290338516,0.051119737327098846,9.410347938537598,-0.946944534778595,-2.500828266143799
1403637132143319000,-0.015284359455108643,0.03528958931565285,0.049725137650966644,9.434894561767578,-1.0286614894866943,-2.549872398376465
1403637132148319000,-0.0020556598901748657,0.037365544587373734,0.06300681084394455,9.296448707580566,-1.0288113355636597,-2.574239730834961
1403637132153319000,0.000725090503692627,0.035275187343358994,0.07139400392770767,9.329361915588379,-0.8737855553627014,-2.60676908493042
1403637132158319000,0.00420023500919342,0.027572833001613617,0.08885573595762253,9.051908493041992,-0.9636489152908325,-2.5250742435455322
1403637132163319000,0.009785234928131104,0.01712731271982193,0.1006922796368599,9.223546981811523,-0.922938883304596,-2.5088486671447754
1403637132168319000,0.01326712965965271,0.010145992040634155,0.11255862563848495,9.207385063171387,-0.898530125617981,-2.5006601810455322
1403637132173319000,0.016075700521469116,0.0038939528167247772,0.11881012469530106,9.477110862731934,-0.7434589862823486,-2.476276159286499
1403637132178319000,0.01608988642692566,0.007399469614028931,0.12438150495290756,9.509819030761719,-0.6699134707450867,-2.3945810794830322
1403637132183319000,0.014014720916748047,0.006013412028551102,0.1222757026553154,9.6568021774292,-0.5801135301589966,-2.3783302307128906
1403637132188319000,0.013329952955245972,0.01509810984134674,0.11739218980073929,9.591426849365234,-0.5473219156265259,-2.3047242164611816
1403637132193319000,0.013338878750801086,0.02207997813820839,0.10972137004137039,9.648449897766113,-0.49834442138671875,-2.3210434913635254
1403637132198319000,0.01682373881340027,0.023472949862480164,0.10205795615911484,9.526054382324219,-0.5390677452087402,-2.3128294944763184
1403637132203319000,0.018928512930870056,0.028356648981571198,0.09511347860097885,9.68131160736084,-0.3432316482067108,-2.427237033843994
1403637132208319000,0.008457034826278687,0.035327304154634476,0.08328043669462204,9.575027465820312,-0.31046441197395325,-2.4843626022338867
1403637132213319000,0.004975706338882446,0.03602620214223862,0.07073328644037247,9.550471305847168,-0.29405513405799866,-2.50888991355896
1403637132218319000,-0.006201744079589844,0.03391341492533684,0.06308267265558243,9.321823120117188,-0.3020309507846832,-2.5333263874053955
1403637132223319000,-0.011074528098106384,0.025543343275785446,0.05400525778532028,9.37080192565918,-0.3183338940143585,-2.5415937900543213
1403637132228319000,-0.020155414938926697,0.021338477730751038,0.044921837747097015,9.313404083251953,-0.46526145935058594,-2.590585947036743
1403637132233319000,-0.022933512926101685,0.01925347000360489,0.03722666949033737,9.419358253479004,-0.5142647624015808,-2.5743212699890137
1403637132238319000,-0.022240832448005676,0.017848234623670578,0.03233245760202408,9.32947063446045,-0.6203159689903259,-2.5416274070739746
1403637132243319000,-0.01875557005405426,0.016450349241495132,0.03300682455301285,9.410961151123047,-0.7591665387153625,-2.558048963546753
1403637132248319000,-0.011782169342041016,0.013653546571731567,0.04205814749002457,9.255906105041504,-0.9468713402748108,-2.4357028007507324
1403637132253319000,-0.004769966006278992,0.010209575295448303,0.04269491881132126,9.38646125793457,-1.0692906379699707,-2.3054652214050293
1403637132258319000,0.006390109658241272,0.008126012980937958,0.05524534732103348,9.337701797485352,-1.126537799835205,-2.264755964279175
1403637132263319000,0.01685100793838501,0.001855507493019104,0.07407670468091965,9.542033195495605,-0.9471516013145447,-2.2808122634887695
1403637132268319000,0.018226101994514465,0.007427003234624863,0.09154913574457169,9.517738342285156,-0.8003032803535461,-2.2968342304229736
1403637132273319000,0.011259406805038452,0.010222043842077255,0.09504549950361252,9.623932838439941,-0.6125564575195312,-2.2803685665130615
1403637132278319000,0.0063601285219192505,0.013001512736082077,0.10344073921442032,9.566886901855469,-0.5390787124633789,-2.304753065109253
1403637132283319000,0.0014722347259521484,0.022768769413232803,0.10204523056745529,9.648191452026367,-0.5309944152832031,-2.3618974685668945
1403637132288319000,0.003553539514541626,0.025553032755851746,0.0985654816031456,9.566499710083008,-0.596285343170166,-2.394517660140991
1403637132293319000,0.005636349320411682,0.03112354502081871,0.09092239290475845,9.599217414855957,-0.5392361283302307,-2.54150652885437
1403637132298319000,0.009117469191551208,0.039488304406404495,0.08607835322618484,9.427934646606445,-0.4574807584285736,-2.5822277069091797
1403637132303319000,0.000754624605178833,0.040185485035181046,0.07633505016565323,9.403473854064941,-0.35124659538269043,-2.6476552486419678
1403637132308319000,-0.00972031056880951,0.037376128137111664,0.07635106891393661,9.223820686340332,-0.3429392874240875,-2.6476058959960938
1403637132313319000,-0.013202711939811707,0.026214059442281723,0.07284723967313766,9.248335838317871,-0.400059312582016,-2.5904908180236816
1403637132318319000,-0.01949886977672577,0.022707391530275345,0.07560553401708603,9.182644844055176,-0.6694849133491516,-2.541407585144043
1403637132323319000,-0.01879417896270752,0.009461376816034317,0.07764612883329391,9.419248580932617,-0.8329166173934937,-2.5416922569274902
1403637132328319000,-0.009017467498779297,0.006682686507701874,0.0839003250002861,9.378414154052734,-0.9553699493408203,-2.4356746673583984
1403637132333319000,-0.0013345181941986084,0.0074014440178871155,0.09224358946084976,9.517105102539062,-0.9881218671798706,-2.411267042160034
1403637132338319000,0.007740497589111328,0.010906077921390533,0.1006135568022728,9.49278450012207,-0.9472945332527161,-2.3458845615386963
1403637132343319000,0.014717400074005127,0.012306086719036102,0.11038588732481003,9.656272888183594,-0.7760054469108582,-2.370239734649658
1403637132348319000,0.014021024107933044,0.021380536258220673,0.11458820849657059,9.615569114685059,-0.653512716293335,-2.3374075889587402
1403637132353319000,0.007043108344078064,0.024866919964551926,0.11738988012075424,9.591123580932617,-0.5636629462242126,-2.3209848403930664
1403637132358319000,0.0070344507694244385,0.03324024751782417,0.12158683687448502,9.47679615020752,-0.5717618465423584,-2.296349048614502
1403637132363319000,0.011906728148460388,0.02973977103829384,0.11879914253950119,9.5502290725708,-0.6290552020072937,-2.4025888442993164
1403637132368319000,0.011887624859809875,0.0346074178814888,0.11672910302877426,9.43587589263916,-0.6780408620834351,-2.467815399169922
1403637132373319000,0.020260557532310486,0.03739595413208008,0.11117341369390488,9.493316650390625,-0.5556624531745911,-2.565833568572998
1403637132378319000,0.016768738627433777,0.03668220713734627,0.11261480301618576,9.305835723876953,-0.39221787452697754,-2.598477840423584
1403637132383319000,0.01049894094467163,0.031098663806915283,0.10774851590394974,9.330482482910156,-0.2860267758369446,-2.6885039806365967
1403637132388319000,0.002828255295753479,0.026214607059955597,0.10215618461370468,9.322199821472168,-0.33495357632637024,-2.631328582763672
1403637132393319000,-0.005528539419174194,0.022732552140951157,0.08469898253679276,9.34648323059082,-0.39200568199157715,-2.5742034912109375
1403637132398319000,-0.009008005261421204,0.011563323438167572,0.07213456183671951,9.240349769592285,-0.4571654796600342,-2.4925482273101807
1403637132403319000,-0.009685680270195007,0.004602100700139999,0.06512560695409775,9.419944763183594,-0.481701523065567,-2.4600446224212646
1403637132408319000,-0.011071071028709412,0.003911405801773071,0.060218654572963715,9.45245361328125,-0.5388151407241821,-2.4029057025909424
1403637132413319000,-0.015233248472213745,0.0011340044438838959,0.052533648908138275,9.558561325073242,-0.4734821617603302,-2.362138271331787
1403637132418319000,-0.014518991112709045,0.0060330405831336975,0.044136278331279755,9.566481590270996,-0.5305697321891785,-2.2804479598999023
1403637132423319000,-0.010328948497772217,0.010220661759376526,0.03643371909856796,9.672150611877441,-0.6775766611099243,-2.32956600189209
1403637132428319000,-0.010328307747840881,0.02348557859659195,0.035732172429561615,9.663653373718262,-0.7183735966682434,-2.3131628036499023
1403637132433319000,-0.011735081672668457,0.030453871935606003,0.035752661526203156,9.67988109588623,-0.6776309609413147,-2.3865485191345215
1403637132438319000,-0.013861507177352905,0.03671456500887871,0.04485980421304703,9.467906951904297,-0.6367681622505188,-2.4271903038024902
1403637132443319000,-0.01596289873123169,0.03600933030247688,0.04625629633665085,9.45155143737793,-0.6775973439216614,-2.459859848022461
1403637132448319000,-0.015290901064872742,0.034590575844049454,0.05603312700986862,9.304677963256836,-0.8000496625900269,-2.4924888610839844
1403637132453319000,-0.011803552508354187,0.023422427475452423,0.060221485793590546,9.272297859191895,-0.7837448120117188,-2.476219415664673
1403637132458319000,-0.009013935923576355,0.019932113587856293,0.06511007994413376,9.207124710083008,-0.7755692601203918,-2.4353816509246826
1403637132463319000,0.002148672938346863,0.006677180528640747,0.07067731767892838,9.313539505004883,-0.8002042770385742,-2.4600348472595215
1403637132468319000,0.005632802844047546,0.008075132966041565,0.07626654952764511,9.378961563110352,-0.7268198728561401,-2.5008230209350586
1403637132473319000,0.005637019872665405,0.008780106902122498,0.07835926860570908,9.49330997467041,-0.6534208655357361,-2.5335183143615723
1403637132478319000,0.0035391300916671753,0.017153844237327576,0.0818447396159172,9.427776336669922,-0.7023591995239258,-2.492588996887207
1403637132483319000,5.885958671569824e-05,0.012278657406568527,0.08810264617204666,9.542048454284668,-0.686079740524292,-2.4600069522857666
1403637132488319000,-0.0034367144107818604,0.022749021649360657,0.0936729684472084,9.484529495239258,-0.7921722531318665,-2.4272637367248535
1403637132493319000,0.0028569400310516357,0.019975341856479645,0.09994087368249893,9.460280418395996,-0.7512840628623962,-2.3211183547973633
1403637132498319000,0.008440345525741577,0.020673517137765884,0.10135192424058914,9.427885055541992,-0.6614709496498108,-2.304701089859009
1403637132503319000,0.013327836990356445,0.015790484845638275,0.1041412279009819,9.526033401489258,-0.6044071912765503,-2.329240560531616
1403637132508319000,0.013329818844795227,0.016478992998600006,0.09091826528310776,9.550667762756348,-0.49012696743011475,-2.427262783050537
1403637132513319000,0.003567427396774292,0.017872359603643417,0.07976392656564713,9.542356491088867,-0.4655650556087494,-2.451781749725342
1403637132518319000,-0.0033960342407226562,0.018576227128505707,0.06860997527837753,9.444365501403809,-0.416389137506485,-2.3782217502593994
1403637132523319000,-0.006884738802909851,0.012987986207008362,0.06233089417219162,9.403547286987305,-0.4489947259426117,-2.3864288330078125
1403637132528319000,-0.008273333311080933,0.017878219485282898,0.05813100188970566,9.525749206542969,-0.47356393933296204,-2.4191441535949707
1403637132533319000,-0.006885364651679993,0.016477294266223907,0.061622343957424164,9.525810241699219,-0.48176345229148865,-2.451824188232422
1403637132538319000,-0.008968055248260498,0.02206561714410782,0.05117230862379074,9.484933853149414,-0.4163605272769928,-2.4436047077178955
1403637132543319000,-0.013154387474060059,0.01857314631342888,0.04838002473115921,9.484908103942871,-0.432676762342453,-2.4599804878234863
1403637132548319000,-0.017333582043647766,0.02206416428089142,0.03790076822042465,9.51723861694336,-0.49796780943870544,-2.459979772567749
1403637132553319000,-0.015238940715789795,0.026250425726175308,0.030231259763240814,9.533455848693848,-0.5061436891555786,-2.5089638233184814
1403637132558319000,-0.02222287654876709,0.025542475283145905,0.026043005287647247,9.468017578125,-0.5713880062103271,-2.5252835750579834
1403637132563319000,-0.018750369548797607,0.02552483230829239,0.02463734894990921,9.40262222290039,-0.7509549260139465,-2.5579655170440674
1403637132568319000,-0.019458845257759094,0.027612458914518356,0.0344049409031868,9.345473289489746,-0.791785717010498,-2.5334386825561523
1403637132573319000,-0.011102810502052307,0.02341720461845398,0.049055688083171844,9.296683311462402,-0.8571959733963013,-2.525298595428467
1403637132578319000,-0.010402634739875793,0.022032655775547028,0.05603571981191635,9.353973388671875,-0.7348003387451172,-2.5089268684387207
1403637132583319000,-0.007621824741363525,0.015047591179609299,0.06650009006261826,9.329635620117188,-0.7675281763076782,-2.5089547634124756
1403637132588319000,-0.008321613073348999,0.013656459748744965,0.07346648722887039,9.411249160766602,-0.7676087617874146,-2.5171501636505127
1403637132593319000,-0.008999258279800415,0.010188248008489609,0.07623036950826645,9.460235595703125,-0.751213550567627,-2.394737958908081
1403637132598319000,-0.006900906562805176,0.010197136551141739,0.08110611885786057,9.468459129333496,-0.7348765730857849,-2.345736026763916
1403637132603319000,-0.005503207445144653,0.00950247049331665,0.08249903470277786,9.452187538146973,-0.7348565459251404,-2.3212356567382812
1403637132608319000,-0.006198480725288391,0.010198026895523071,0.07691573351621628,9.590826034545898,-0.710465669631958,-2.3947744369506836
1403637132613319000,0.0014669448137283325,0.012288469821214676,0.08250652998685837,9.574633598327637,-0.7023627161979675,-2.4192190170288086
1403637132618319000,0.002154797315597534,0.02694300189614296,0.08670050650835037,9.631524085998535,-0.6861381530761719,-2.4762582778930664
1403637132623319000,0.004232630133628845,0.031120210886001587,0.09300216287374496,9.468415260314941,-0.669752836227417,-2.4679484367370605
1403637132628319000,0.006329402327537537,0.036010436713695526,0.09440267831087112,9.443963050842285,-0.6207369565963745,-2.4352245330810547
1403637132633319000,0.007010594010353088,0.031808145344257355,0.09650164097547531,9.4031400680542,-0.710595965385437,-2.5005624294281006
1403637132638319000,0.003528684377670288,0.03390512987971306,0.09091564267873764,9.411176681518555,-0.7187080979347229,-2.4842469692230225
1403637132643319000,0.004920795559883118,0.026918824762105942,0.09581410139799118,9.297137260437012,-0.6859992742538452,-2.451558828353882
1403637132648319000,0.0042202770709991455,0.02133740857243538,0.10068819671869278,9.386980056762695,-0.6942594051361084,-2.484292507171631
1403637132653319000,0.0007253140211105347,0.015751436352729797,0.11184584349393845,9.354344367980957,-0.7187604308128357,-2.4516212940216064
1403637132658319000,2.777576446533203e-05,0.013663865625858307,0.11531559377908707,9.484878540039062,-0.7433521151542664,-2.4762015342712402
1403637132663319000,0.004912614822387695,0.015066921710968018,0.12368341535329819,9.44409465789795,-0.7596645355224609,-2.419001340866089
1403637132668319000,0.00979606807231903,0.016468312591314316,0.12995699048042297,9.5747709274292,-0.7108103036880493,-2.451680898666382
1403637132673319000,0.012590676546096802,0.024845540523529053,0.1299743950366974,9.485100746154785,-0.6209133863449097,-2.4107182025909424
1403637132678319000,0.011203169822692871,0.02902825176715851,0.11744164675474167,9.550548553466797,-0.4739777743816376,-2.5006039142608643
1403637132683319000,0.005620941519737244,0.031112588942050934,0.1070023849606514,9.411768913269043,-0.4330088198184967,-2.5168890953063965
1403637132688319000,6.334483623504639e-05,0.033218689262866974,0.0930560752749443,9.517876625061035,-0.326825886964798,-2.5415337085723877
1403637132693319000,-0.0020398199558258057,0.031113196164369583,0.08538467437028885,9.403477668762207,-0.41656407713890076,-2.557807445526123
1403637132698319000,-0.0034286081790924072,0.024834610521793365,0.0762956365942955,9.43602466583252,-0.5063415765762329,-2.53336763381958
1403637132703319000,0.002152562141418457,0.023434627801179886,0.07070981711149216,9.313547134399414,-0.5960357785224915,-2.46799373626709
1403637132708319000,0.005653440952301025,0.016463346779346466,0.05883461982011795,9.45235824584961,-0.6205839514732361,-2.5171539783477783
1403637132713319000,0.0028553158044815063,0.015061192214488983,0.0609210804104805,9.460427284240723,-0.685931384563446,-2.5416743755340576
1403637132718319000,0.002161964774131775,0.016463015228509903,0.06300348788499832,9.493003845214844,-0.6941028833389282,-2.5090179443359375
1403637132723319000,0.003553256392478943,0.012978065758943558,0.0797264501452446,9.403214454650879,-0.7920387983322144,-2.39471173286438
1403637132728319000,0.0007572472095489502,0.017869971692562103,0.09226959198713303,9.484648704528809,-0.8084635138511658,-2.394679069519043
1403637132733319000,0.0028515905141830444,0.01718883216381073,0.11248617619276047,9.443916320800781,-0.8247864842414856,-2.2966644763946533
1403637132738319000,0.00494268536567688,0.01928790658712387,0.1215478703379631,9.549988746643066,-0.7922396063804626,-2.3129630088806152
1403637132743319000,0.0035440921783447266,0.02277280017733574,0.12296115607023239,9.468520164489746,-0.7105373740196228,-2.2883312702178955
1403637132748319000,0.0028638243675231934,0.019283592700958252,0.11390119045972824,9.59937572479248,-0.530952513217926,-2.3046939373016357
1403637132753319000,0.00914454460144043,0.02346821129322052,0.10485336929559708,9.54234790802002,-0.4900965690612793,-2.329141855239868
1403637132758319000,0.0014902949333190918,0.022074725478887558,0.09091553837060928,9.648487091064453,-0.35944318771362305,-2.3700828552246094
1403637132763319000,-0.0006012171506881714,0.023467421531677246,0.07699469476938248,9.542447090148926,-0.3021676242351532,-2.410902976989746
1403637132768319000,-0.004077807068824768,0.026958566159009933,0.06094936281442642,9.640142440795898,-0.31854504346847534,-2.4926648139953613
1403637132773319000,-0.008973360061645508,0.03322906792163849,0.046995557844638824,9.492864608764648,-0.42455652356147766,-2.500704765319824
1403637132778319000,-0.013164237141609192,0.03322252631187439,0.04280858486890793,9.427461624145508,-0.46530717611312866,-2.5006766319274902
1403637132783319000,-0.010390251874923706,0.03180796280503273,0.04350592941045761,9.264205932617188,-0.5795156955718994,-2.484285354614258
1403637132788319000,-0.011092588305473328,0.02552327886223793,0.04350096732378006,9.345879554748535,-0.620425820350647,-2.5660452842712402
1403637132793319000,-0.009005561470985413,0.0234205424785614,0.042090751230716705,9.32944393157959,-0.7673739790916443,-2.566093921661377
1403637132798319000,-0.009003445506095886,0.019933290779590607,0.04137491434812546,9.427289962768555,-0.8572428226470947,-2.5907070636749268
1403637132803319000,-0.008303418755531311,0.018535345792770386,0.04624176770448685,9.353719711303711,-1.0041725635528564,-2.517350196838379
1403637132808319000,0.004261955618858337,0.010884270071983337,0.06155584007501602,9.517091751098633,-1.0206701755523682,-2.4685094356536865
1403637132813319000,0.01679857075214386,0.011575035750865936,0.082517109811306,9.37878131866455,-0.9064739346504211,-2.4356093406677246
1403637132818319000,0.016091644763946533,0.011573351919651031,0.0978957787156105,9.444490432739258,-0.6535021662712097,-2.4844164848327637
1403637132823319000,0.004927217960357666,0.020647644996643066,0.10977131873369217,9.460806846618652,-0.49020275473594666,-2.476142406463623
1403637132828319000,-0.004848942160606384,0.029017899185419083,0.11046621948480606,9.582968711853027,-0.4903319776058197,-2.582327365875244
1403637132833319000,-0.008342236280441284,0.03459816053509712,0.11047209054231644,9.435894966125488,-0.5065181255340576,-2.5168442726135254
1403637132838319000,-0.00762408971786499,0.033220067620277405,0.1034686341881752,9.419435501098633,-0.5716847777366638,-2.378035545349121
1403637132843319000,-0.0020483732223510742,0.03321372717618942,0.10208461433649063,9.354196548461914,-0.5961622595787048,-2.394340753555298
1403637132848319000,0.0007481127977371216,0.02204635739326477,0.09720439463853836,9.427923202514648,-0.5553888082504272,-2.4434735774993896
1403637132853319000,-0.004118308424949646,0.025546379387378693,0.08743580430746078,9.46865463256836,-0.4899994730949402,-2.410825729370117
1403637132858319000,-0.006205514073371887,0.020661551505327225,0.0839465782046318,9.550337791442871,-0.46555250883102417,-2.4517645835876465
1403637132863319000,-0.01807515323162079,0.027638904750347137,0.08881474286317825,9.500985145568848,-0.5308089852333069,-2.4026565551757812
1403637132868319000,-0.019475221633911133,0.02833833172917366,0.0964672788977623,9.606890678405762,-0.5880627632141113,-2.419027328491211
1403637132873319000,-0.019487693905830383,0.036015499383211136,0.10273409634828568,9.573929786682129,-0.7023724913597107,-2.418945074081421
1403637132878319000,-0.01321190595626831,0.0388081856071949,0.10482775419950485,9.565770149230957,-0.7350608706474304,-2.427091598510742
1403637132883319000,-0.009041741490364075,0.04437709227204323,0.10485369712114334,9.451584815979004,-0.7432361245155334,-2.4759600162506104
1403637132888319000,-0.0041448622941970825,0.043683841824531555,0.09649517387151718,9.451831817626953,-0.6288996934890747,-2.4596495628356934
1403637132893319000,-0.006225869059562683,0.04159212112426758,0.08814115077257156,9.427523612976074,-0.5145305395126343,-2.451509714126587
1403637132898319000,-0.005519315600395203,0.03531057760119438,0.07908346503973007,9.354226112365723,-0.48175978660583496,-2.4270436763763428
1403637132903319000,-0.009688109159469604,0.028337664902210236,0.06373100727796555,9.39503288269043,-0.47353413701057434,-2.427154779434204
1403637132908319000,-0.016646385192871094,0.026252683252096176,0.051171742379665375,9.411283493041992,-0.4326259195804596,-2.3945207595825195
1403637132913319000,-0.01942773163318634,0.01368701085448265,0.0351179763674736,9.362351417541504,-0.4896681308746338,-2.3946218490600586
1403637132918319000,-0.020810425281524658,0.00741196796298027,0.032285176217556,9.549860000610352,-0.6122185587882996,-2.402986526489258
1403637132923319000,-0.020809516310691833,0.015788868069648743,0.030173324048519135,9.533204078674316,-0.7264505624771118,-2.3703267574310303
1403637132928319000,-0.018024876713752747,0.019976794719696045,0.03712689131498337,9.508504867553711,-0.914178729057312,-2.3541407585144043
1403637132933319000,-0.018732935190200806,0.029047422111034393,0.04758615046739578,9.483750343322754,-1.0448311567306519,-2.3705172538757324
1403637132938319000,-0.006202131509780884,0.024842411279678345,0.06504356116056442,9.345332145690918,-1.126665472984314,-2.3950295448303223
1403637132943319000,-0.0020425021648406982,0.027621209621429443,0.0852980837225914,9.26380443572998,-1.0860142707824707,-2.4111273288726807
1403637132948319000,-0.0027729272842407227,0.021316610276699066,0.10903989523649216,9.231221199035645,-1.078150749206543,-2.49259614944458
1403637132953319000,-0.0034895390272140503,0.022718749940395355,0.12857535481452942,9.37009048461914,-0.9639819860458374,-2.5414016246795654
1403637132958319000,-0.0049065351486206055,0.022708460688591003,0.14533624053001404,9.353836059570312,-0.931462824344635,-2.59025502204895
1403637132963319000,-0.002125158905982971,0.02131863683462143,0.16487202048301697,9.37839412689209,-0.9152133464813232,-2.5657148361206055
1403637132968319000,-0.0014134794473648071,0.007374964654445648,0.17532512545585632,9.305144309997559,-0.9068812727928162,-2.4107093811035156
1403637132973319000,0.0069756656885147095,-0.0009845346212387085,0.17391854524612427,9.354523658752441,-0.8333110809326172,-2.3454740047454834
1403637132978319000,0.011165738105773926,-0.009369943290948868,0.17045289278030396,9.404173851013184,-0.5883182883262634,-2.3617684841156006
1403637132983319000,0.009804591536521912,-0.013545703142881393,0.15649673342704773,9.543319702148438,-0.3922397792339325,-2.329247236251831
1403637132988319000,0.0035550594329833984,-0.02261297032237053,0.13628098368644714,9.559952735900879,-0.2532193660736084,-2.3048691749572754
1403637132993319000,-0.005494222044944763,-0.01912085711956024,0.11255881935358047,9.665791511535645,-0.24504569172859192,-2.370391845703125
1403637132998319000,-0.011067122220993042,-0.017019227147102356,0.09998277574777603,9.600255966186523,-0.31841859221458435,-2.288618326187134
1403637133003319000,-0.0166483074426651,-0.005153503268957138,0.08532417565584183,9.558959007263184,-0.40004268288612366,-2.3048954010009766
1403637133008319000,-0.0124836266040802,-0.005863644182682037,0.08741695433855057,9.33032512664795,-0.5632491111755371,-2.2802999019622803
1403637133013319000,-0.006909221410751343,-0.0023793168365955353,0.08461803942918777,9.387282371520996,-0.6449881196022034,-2.3538577556610107
1403637133018319000,-0.004133135080337524,0.006682738661766052,0.08603227883577347,9.4116792678833,-0.620610237121582,-2.45994234085083
1403637133023319000,-0.006229311227798462,0.02273476868867874,0.0818672850728035,9.57479190826416,-0.5228250026702881,-2.639601707458496
1403637133028319000,-0.011126622557640076,0.031796615570783615,0.07909328490495682,9.49301815032959,-0.5391324758529663,-2.721155881881714
1403637133033319000,-0.0195024311542511,0.04156195744872093,0.07491562515497208,9.42747974395752,-0.5390689373016357,-2.745561122894287
1403637133038319000,-0.020206689834594727,0.038053713738918304,0.07004108279943466,9.215210914611816,-0.6124012470245361,-2.6964776515960693
1403637133043319000,-0.02020987868309021,0.02966351807117462,0.06515783816576004,9.11727237701416,-0.7184981107711792,-2.696503162384033
1403637133048319000,-0.01533307135105133,0.01430288702249527,0.06654592603445053,9.150129318237305,-0.8166001439094543,-2.7619786262512207
1403637133053319000,-0.0006758570671081543,0.003167159855365753,0.06303393095731735,9.525981903076172,-0.8086888790130615,-2.892925500869751
1403637133058319000,0.012595519423484802,0.006675258278846741,0.05675318092107773,9.689351081848145,-0.7516130805015564,-2.901150941848755
1403637133063319000,0.018918931484222412,0.01646999642252922,0.042125068604946136,9.975071907043457,-0.572105884552002,-2.9992358684539795
1403637133068319000,0.02173502743244171,0.04020322486758232,0.032389022409915924,10.138017654418945,-0.49869900941848755,-3.105222463607788
1403637133073319000,0.01268981397151947,0.06741778552532196,0.02335420995950699,10.14572525024414,-0.3924727141857147,-3.1866872310638428
1403637133078319000,6.879866123199463e-05,0.09950575232505798,0.031008996069431305,9.875694274902344,-0.5556113719940186,-3.120877504348755
1403637133083319000,0.0014085322618484497,0.1127440333366394,0.04284895211458206,9.679676055908203,-0.8085867762565613,-3.0797369480133057
1403637133088319000,0.015323758125305176,0.11479726433753967,0.06935007125139236,9.304360389709473,-1.1352418661117554,-2.916412591934204
1403637133093319000,0.04044701159000397,0.10364553332328796,0.09724027663469315,9.255430221557617,-1.298904299736023,-2.777883529663086
1403637133098319000,0.06973284482955933,0.08758620917797089,0.11610802263021469,9.084644317626953,-1.1929486989974976,-2.7043871879577637
1403637133103319000,0.0871812105178833,0.0708761066198349,0.13425692915916443,9.248709678649902,-0.8745169043540955,-2.679823875427246
1403637133108319000,0.09348112344741821,0.06461726874113083,0.1454184353351593,9.33073616027832,-0.6785584092140198,-2.614548444747925
1403637133113319000,0.09002535045146942,0.061160024255514145,0.14538198709487915,9.510272979736328,-0.637732982635498,-2.524846076965332
1403637133118319000,0.0893453061580658,0.058376241475343704,0.15375125408172607,9.477862358093262,-0.49879172444343567,-2.4186716079711914
1403637133123319000,0.08308801054954529,0.0646766796708107,0.16000491380691528,9.649115562438965,-0.41719290614128113,-2.369671583175659
1403637133128319000,0.06423166394233704,0.0653495341539383,0.15723666548728943,9.461265563964844,-0.3598063588142395,-2.361407995223999
1403637133133319000,0.051001742482185364,0.06187143176794052,0.14674925804138184,9.64883804321289,-0.26996418833732605,-2.345194101333618
1403637133138319000,0.03356623649597168,0.05489363521337509,0.12510275840759277,9.517890930175781,-0.4166848659515381,-2.271699905395508
1403637133143319000,0.017544597387313843,0.031861189752817154,0.09718634933233261,9.60769271850586,-0.40840545296669006,-2.2882885932922363
1403637133148319000,0.0036187171936035156,0.024887289851903915,0.07903263717889786,9.746179580688477,-0.3838879466056824,-2.2802670001983643
1403637133153319000,-0.006110593676567078,0.017920702695846558,0.060165561735630035,9.860064506530762,-0.4164977967739105,-2.20686674118042
1403637133158319000,-0.0179368257522583,0.010959375649690628,0.04690203815698624,9.827465057373047,-0.3673827648162842,-2.067953586578369
1403637133163319000,-0.02768482267856598,0.019317597150802612,0.03715457767248154,10.030755043029785,-0.3022194802761078,-2.1578481197357178
1403637133168319000,-0.03885847330093384,0.02909543365240097,0.023185797035694122,9.850889205932617,-0.41637539863586426,-2.133270502090454
1403637133173319000,-0.04512253403663635,0.033983416855335236,0.009957723319530487,9.834490776062012,-0.3183896541595459,-2.124950647354126
1403637133178319000,-0.051427364349365234,0.04724816232919693,-0.0011944547295570374,9.49187183380127,-0.3181551396846771,-2.0348479747772217
1403637133183319000,-0.06049130856990814,0.039563775062561035,-0.02421962469816208,9.458976745605469,-0.3425615131855011,-2.108370542526245
1403637133188319000,-0.08283120393753052,0.032577116042375565,-0.03051678091287613,9.157289505004883,-0.40771809220314026,-1.9532784223556519
1403637133193319000,-0.08980169892311096,0.019309818744659424,-0.043091125786304474,9.149078369140625,-0.4729437232017517,-2.0024173259735107
1403637133198319000,-0.10095396637916565,0.015809528529644012,-0.05147980898618698,9.14068603515625,-0.6116052269935608,-2.059805393218994
1403637133203319000,-0.10651183128356934,0.011621635407209396,-0.05845826119184494,9.32794189453125,-0.6116756200790405,-2.165956974029541
1403637133208319000,-0.11488109827041626,0.021374084055423737,-0.061940036714076996,9.31121826171875,-0.7176962494850159,-2.2639403343200684
1403637133213319000,-0.11346253752708435,0.020662158727645874,-0.061240799725055695,9.506653785705566,-0.9380474090576172,-2.4682540893554688
1403637133218319000,-0.11067909002304077,0.030417703092098236,-0.05494212359189987,9.61255168914795,-1.0442345142364502,-2.6477768421173096
1403637133223319000,-0.09956729412078857,0.029705584049224854,-0.03887953609228134,9.555914878845215,-1.0362162590026855,-2.737593412399292
1403637133228319000,-0.08843988180160522,0.019236810505390167,-0.0318913534283638,9.580917358398438,-0.9221231341362,-2.851961135864258
1403637133233319000,-0.08216264843940735,0.008785776793956757,-0.026292376220226288,9.720046043395996,-0.6855939030647278,-2.901129722595215
1403637133238319000,-0.08493608236312866,-0.007257804274559021,-0.030466176569461823,9.744844436645508,-0.5468157529830933,-2.9177050590515137
1403637133243319000,-0.08976665139198303,-0.017718873918056488,-0.04372505098581314,9.981404304504395,-0.48975470662117004,-2.9178802967071533
1403637133248319000,-0.09393209218978882,-0.016320444643497467,-0.054911307990550995,10.01364803314209,-0.5468677282333374,-2.8524370193481445
1403637133253319000,-0.08973932266235352,-0.016319245100021362,-0.05492808669805527,10.062499046325684,-0.5795429944992065,-2.7870941162109375
1403637133258319000,-0.08626624941825867,-0.004455506801605225,-0.04726254194974899,10.021470069885254,-0.6448289752006531,-2.721644878387451
1403637133263319000,-0.07444125413894653,-0.00026953965425491333,-0.031223498284816742,9.907466888427734,-0.6856155395507812,-2.639976739883423
1403637133268319000,-0.06401298940181732,0.0046135298907756805,-0.015173234045505524,9.752761840820312,-0.6855865716934204,-2.5745999813079834
1403637133273319000,-0.05567258596420288,-0.003766607493162155,0.005047522485256195,9.598203659057617,-0.7426834106445312,-2.476689577102661
1403637133278319000,-0.04313300549983978,-0.005864877253770828,0.019695095717906952,9.671871185302734,-0.7673354148864746,-2.517566204071045
1403637133283319000,-0.03058747947216034,-0.005162559449672699,0.03576166182756424,9.631561279296875,-0.6286413669586182,-2.4766438007354736
1403637133288319000,-0.02849803864955902,-0.010750632733106613,0.04415718466043472,9.729857444763184,-0.5226593613624573,-2.574751377105713
1403637133293319000,-0.029194563627243042,-0.019130587577819824,0.051122285425662994,9.852368354797363,-0.5309218168258667,-2.591231107711792
1403637133298319000,-0.03125739097595215,-0.021222837269306183,0.04483290761709213,10.07249927520752,-0.49834179878234863,-2.5913925170898438
1403637133303319000,-0.042416200041770935,-0.021230783313512802,0.042030803859233856,10.153712272644043,-0.5473315119743347,-2.607769727706909
1403637133308319000,-0.05077880620956421,-0.025424256920814514,0.03993993252515793,10.210773468017578,-0.5228247046470642,-2.616039752960205
1403637133313319000,-0.0577428936958313,-0.02822982147336006,0.03856226056814194,10.357680320739746,-0.4739131033420563,-2.6978838443756104
1403637133318319000,-0.0625925064086914,-0.021949075162410736,0.03232970088720322,10.439505577087402,-0.3351162374019623,-2.779686689376831
1403637133323319000,-0.07585439085960388,-0.028234824538230896,0.0323384627699852,10.382500648498535,-0.326865553855896,-2.820601463317871
1403637133328319000,-0.09258076548576355,-0.02613181248307228,0.019093357026576996,10.292470932006836,-0.30219003558158875,-2.7960500717163086
1403637133333319000,-0.10585659742355347,-0.03380304202437401,0.01837938278913498,10.096521377563477,-0.33466508984565735,-2.697957754135132
1403637133338319000,-0.11701849102973938,-0.04009192809462547,0.02117267996072769,10.112853050231934,-0.3101096749305725,-2.6817409992218018
1403637133343319000,-0.12332040071487427,-0.04847674071788788,0.028121598064899445,10.088275909423828,-0.39991503953933716,-2.6654136180877686
1403637133348319000,-0.13519123196601868,-0.044995732605457306,0.03789868205785751,10.080095291137695,-0.34270229935646057,-2.649103879928589
1403637133353319000,-0.1456952840089798,-0.047093749046325684,0.05322594195604324,9.91688346862793,-0.3752315938472748,-2.542755365371704
1403637133358319000,-0.15200157463550568,-0.047807253897190094,0.06923819333314896,9.973719596862793,-0.4487461745738983,-2.5264041423797607
1403637133363319000,-0.15483596920967102,-0.051306016743183136,0.09016498178243637,9.85973834991455,-0.4487003982067108,-2.5017828941345215
1403637133368319000,-0.15976060926914215,-0.04154375195503235,0.11039351671934128,9.794337272644043,-0.46504446864128113,-2.5097148418426514
1403637133373319000,-0.16258558630943298,-0.04433161020278931,0.12017347663640976,9.41096019744873,-0.5628100037574768,-2.4194726943969727
1403637133378319000,-0.16395898163318634,-0.05201047658920288,0.10275913029909134,9.362039566040039,-0.5628250241279602,-2.558445692062378
1403637133383319000,-0.16325101256370544,-0.060384996235370636,0.0964900329709053,9.304990768432617,-0.5872982740402222,-2.5911879539489746
1403637133388319000,-0.15765690803527832,-0.06875596940517426,0.09021755307912827,9.362272262573242,-0.5792198777198792,-2.6730310916900635
1403637133393319000,-0.15276457369327545,-0.0750323012471199,0.08464127033948898,9.13392448425293,-0.6443293690681458,-2.4850802421569824
1403637133398319000,-0.15136340260505676,-0.09246483445167542,0.08117511123418808,8.906116485595703,-0.6114413738250732,-2.25640606880188
1403637133403319000,-0.1429911106824875,-0.10991600155830383,0.08956833928823471,8.734844207763672,-0.7094287276268005,-2.240166187286377
1403637133408319000,-0.12972982227802277,-0.1106063574552536,0.09020013362169266,9.044955253601074,-0.7831094264984131,-2.297589063644409
1403637133413319000,-0.11718542873859406,-0.10852546989917755,0.09927401691675186,9.061243057250977,-0.7832605838775635,-2.3301658630371094
1403637133418319000,-0.11021201312541962,-0.10154606401920319,0.09996538609266281,9.151077270507812,-0.7261729836463928,-2.338263750076294
1403637133423319000,-0.0969599038362503,-0.09667439758777618,0.10626529902219772,8.946638107299805,-0.8732863664627075,-2.338144063949585
1403637133428319000,-0.07116101682186127,-0.09112369269132614,0.11604220420122147,8.91357135772705,-1.020765781402588,-2.4442756175994873
1403637133433319000,-0.04467219114303589,-0.090473473072052,0.1321394443511963,8.635403633117676,-1.1684446334838867,-2.476802110671997
1403637133438319000,-0.012605011463165283,-0.10515749454498291,0.13983827829360962,8.660307884216309,-1.1115922927856445,-2.623685359954834
1403637133443319000,0.0027339309453964233,-0.11419861018657684,0.1468619406223297,8.595897674560547,-0.8008372783660889,-2.672322988510132
1403637133448319000,0.013899698853492737,-0.12533603608608246,0.1503450870513916,8.776206016540527,-0.6619371175765991,-2.721467971801758
1403637133453319000,0.020875781774520874,-0.14279572665691376,0.14685946702957153,8.727227210998535,-0.751839816570282,-2.6807689666748047
1403637133458319000,0.029973044991493225,-0.1511484831571579,0.12869644165039062,8.923778533935547,-0.6864389777183533,-2.713735342025757
1403637133463319000,0.03766210377216339,-0.15391433238983154,0.12313217669725418,8.88332748413086,-0.5638163685798645,-2.6565308570861816
1403637133468319000,0.044669196009635925,-0.15876835584640503,0.11543635278940201,9.112586975097656,-0.42491042613983154,-2.624129295349121
1403637133473319000,0.034235984086990356,-0.16081076860427856,0.1036391332745552,8.89256477355957,-0.13055942952632904,-2.3379554748535156
1403637133478319000,0.013979405164718628,-0.1830740123987198,0.10865003615617752,8.819515228271484,0.4089673161506653,-2.0347633361816406
1403637133483319000,-0.022360652685165405,-0.19631420075893402,0.11570423096418381,8.884617805480957,0.7279425859451294,-1.7475224733352661
1403637133488319000,-0.060045838356018066,-0.2137596756219864,0.11498744040727615,9.170369148254395,0.7770386338233948,-1.6166704893112183
1403637133493319000,-0.08928699791431427,-0.2130984365940094,0.11556687206029892,9.553972244262695,0.5646939277648926,-1.6751587390899658
1403637133498319000,-0.10528524219989777,-0.19642207026481628,0.114692322909832,9.839070320129395,0.14787663519382477,-1.8073910474777222
1403637133503319000,-0.1046157032251358,-0.16993477940559387,0.11878360062837601,9.708443641662598,-0.21973247826099396,-2.003908634185791
1403637133508319000,-0.09207509458065033,-0.13853636384010315,0.12089941650629044,9.479510307312012,-0.3259643018245697,-2.1587822437286377
1403637133513319000,-0.08234083652496338,-0.1287805289030075,0.13565593957901,8.883187294006348,-0.3831333518028259,-2.1907782554626465
1403637133518319000,-0.08096164464950562,-0.1455613374710083,0.14968082308769226,8.613142013549805,-0.3996216058731079,-2.427558183670044
1403637133523319000,-0.0788809061050415,-0.16441412270069122,0.1678500473499298,8.457609176635742,-0.41609495878219604,-2.59084153175354
1403637133528319000,-0.07540231943130493,-0.1846461445093155,0.17830264568328857,8.539203643798828,-0.44073623418807983,-2.746135950088501
1403637133533319000,-0.07958678901195526,-0.19861242175102234,0.17758554220199585,8.637042045593262,-0.5633031129837036,-2.8035778999328613
1403637133538319000,-0.07401694357395172,-0.20211191475391388,0.17753899097442627,8.972041130065918,-0.6207237839698792,-2.8774380683898926
1403637133543319000,-0.06914208829402924,-0.1944417506456375,0.17891407012939453,9.135591506958008,-0.6126242876052856,-2.8285226821899414
1403637133548319000,-0.06984074413776398,-0.1874527484178543,0.1781926453113556,9.38085651397705,-0.5065491199493408,-2.853165626525879
1403637133553319000,-0.07122167944908142,-0.1664959341287613,0.17748519778251648,9.601445198059082,-0.3106432855129242,-2.90224027633667
1403637133558319000,-0.07330268621444702,-0.15672126412391663,0.17398709058761597,9.748287200927734,-0.26990723609924316,-2.975844144821167
1403637133563319000,-0.08026811480522156,-0.1469479352235794,0.16700515151023865,9.797152519226074,-0.2535396218299866,-2.975907325744629
1403637133568319000,-0.08652089536190033,-0.15182074904441833,0.1523541808128357,9.878823280334473,-0.20450125634670258,-3.000640630722046
1403637133573319000,-0.09764215350151062,-0.15039722621440887,0.1342320740222931,9.903212547302246,-0.09824232012033463,-3.0661513805389404
1403637133578319000,-0.10249671339988708,-0.15387924015522003,0.11539892107248306,9.984818458557129,-0.09818054735660553,-3.058206796646118
1403637133583319000,-0.11433914303779602,-0.1489967703819275,0.09795104712247849,10.074145317077637,-0.19624266028404236,-3.164414405822754
1403637133588319000,-0.11852815747261047,-0.13853462040424347,0.09236013144254684,10.082051277160645,-0.2779138684272766,-3.1888279914855957
1403637133593319000,-0.12064182758331299,-0.12458087503910065,0.09024649113416672,9.983793258666992,-0.424882173538208,-3.180433511734009
1403637133598319000,-0.11718806624412537,-0.11760768294334412,0.1020924523472786,9.82858943939209,-0.5310589671134949,-3.17201828956604
1403637133603319000,-0.11650262773036957,-0.10365314781665802,0.10487628728151321,9.820213317871094,-0.5882617235183716,-3.1881914138793945
1403637133608319000,-0.11232751607894897,-0.10225129127502441,0.11326421052217484,9.591740608215332,-0.5228458046913147,-3.204371929168701
1403637133613319000,-0.10745540261268616,-0.09457570314407349,0.11465383321046829,9.55079460144043,-0.5964168310165405,-3.253260850906372
1403637133618319000,-0.105366051197052,-0.09736896306276321,0.11605095118284225,9.49364948272705,-0.6209257245063782,-3.253246545791626
1403637133623319000,-0.09838137030601501,-0.0896841287612915,0.11396578699350357,9.534581184387207,-0.5310872793197632,-3.261385679244995
1403637133628319000,-0.0955943763256073,-0.09317480772733688,0.11954469233751297,9.640779495239258,-0.5312141180038452,-3.285940408706665
1403637133633319000,-0.0990610271692276,-0.08968453109264374,0.1139676496386528,9.86938190460205,-0.4577832520008087,-3.294260025024414
1403637133638319000,-0.09624913334846497,-0.08969001471996307,0.10629905015230179,10.089847564697266,-0.4333842098712921,-3.31890869140625
1403637133643319000,-0.10248130559921265,-0.07574363052845001,0.08818564563989639,10.383508682250977,-0.3925918638706207,-3.416980504989624
1403637133648319000,-0.1045500636100769,-0.06877298653125763,0.0749407485127449,10.5303316116333,-0.40891480445861816,-3.425158977508545
1403637133653319000,-0.10937134921550751,-0.06320111453533173,0.049170129001140594,10.758816719055176,-0.3680342137813568,-3.5558483600616455
1403637133658319000,-0.11563630402088165,-0.049232035875320435,0.035216860473155975,10.725794792175293,-0.4169328212738037,-3.5638465881347656
1403637133663319000,-0.11911240220069885,-0.041536279022693634,0.013576440513134003,10.725367546081543,-0.5393588542938232,-3.5962865352630615
1403637133668319000,-0.12188944220542908,-0.03523450344800949,-0.0010936632752418518,10.586191177368164,-0.5718652009963989,-3.522688388824463
1403637133673319000,-0.12187628448009491,-0.027545802295207977,-0.012258954346179962,10.528797149658203,-0.5799487233161926,-3.530747175216675
1403637133678319000,-0.12049728631973267,-0.030327290296554565,-0.010875873267650604,10.390029907226562,-0.5962356925010681,-3.5144453048706055
1403637133683319000,-0.11841011047363281,-0.024043947458267212,-0.00948014110326767,10.438985824584961,-0.6452819108963013,-3.571509599685669
1403637133688319000,-0.11496198177337646,-0.017758451402187347,0.007247589528560638,10.365605354309082,-0.7269811034202576,-3.53057599067688
1403637133693319000,-0.11079457402229309,-0.010781154036521912,0.019112147390842438,10.382044792175293,-0.7270581722259521,-3.546841859817505
1403637133698319000,-0.1038588434457779,-0.007285304367542267,0.03444039076566696,10.267847061157227,-0.8169352412223816,-3.5140843391418457
1403637133703319000,-0.09132243692874908,0.0003824084997177124,0.053288914263248444,10.390544891357422,-0.7762888669967651,-3.5221259593963623
1403637133708319000,-0.0843810886144638,0.005964554846286774,0.07561110705137253,10.260141372680664,-0.7192084193229675,-3.5302236080169678
1403637133713319000,-0.0850454568862915,0.004545595496892929,0.0770346000790596,10.47255802154541,-0.5723114013671875,-3.52217435836792
1403637133718319000,-0.08994387090206146,0.0031453296542167664,0.08400165289640427,10.488818168640137,-0.6050122976303101,-3.481318950653076
1403637133723319000,-0.09203168749809265,0.0010478273034095764,0.08052902668714523,10.627667427062988,-0.6458860635757446,-3.5793070793151855
1403637133728319000,-0.09273570775985718,0.00245540589094162,0.07703941315412521,10.64390754699707,-0.7357026934623718,-3.628227710723877
1403637133733319000,-0.09062232077121735,0.01291780173778534,0.07148013263940811,10.77452564239502,-0.7030315399169922,-3.6607797145843506
1403637133738319000,-0.09062488377094269,0.017809726297855377,0.07147347182035446,10.709091186523438,-0.7111632823944092,-3.6362268924713135
1403637133743319000,-0.09478543698787689,0.028276994824409485,0.061714522540569305,10.725204467773438,-0.670245885848999,-3.6116559505462646
1403637133748319000,-0.09900222718715668,0.027596697211265564,0.06585774570703506,10.553411483764648,-0.7926493883132935,-3.489055871963501
1403637133753319000,-0.10388721525669098,0.03108418732881546,0.06724647432565689,10.61849594116211,-0.8252929449081421,-3.4481194019317627
1403637133758319000,-0.10878732800483704,0.03178782761096954,0.07279471307992935,10.471161842346191,-0.8905362486839294,-3.325540542602539
1403637133763319000,-0.11156299710273743,0.029678791761398315,0.07068683952093124,10.560608863830566,-0.808866560459137,-3.1786692142486572
1403637133768319000,-0.12064889073371887,0.03665870428085327,0.0839126780629158,10.372454643249512,-0.7353214025497437,-2.9989984035491943
1403637133773319000,-0.12692564725875854,0.028266262263059616,0.09227641671895981,10.42959213256836,-0.6128575801849365,-2.9013288021087646
1403637133778319000,-0.1380929797887802,0.022668272256851196,0.09925650805234909,10.454174041748047,-0.5393379330635071,-2.8851847648620605
1403637133783319000,-0.15131549537181854,0.01843356341123581,0.09858425706624985,10.788679122924805,-0.3923662602901459,-2.8858325481414795
1403637133788319000,-0.16945114731788635,0.012830585241317749,0.0930056944489479,10.87009334564209,-0.3922320306301117,-2.8941545486450195
1403637133793319000,-0.18965668976306915,0.0030227303504943848,0.07907711714506149,11.065958023071289,-0.3430565595626831,-2.935393810272217
1403637133798319000,-0.20430484414100647,-0.006750226020812988,0.06719321757555008,11.065387725830078,-0.41639673709869385,-2.8945014476776123
1403637133803319000,-0.2134106308221817,-0.02353217452764511,0.06858550757169724,11.269295692443848,-0.49799323081970215,-2.95990252494812
1403637133808319000,-0.21624617278575897,-0.030499190092086792,0.07554281502962112,11.293719291687012,-0.6530984044075012,-3.0247421264648438
1403637133813319000,-0.21632130444049835,-0.03888780623674393,0.09372871369123459,11.482576370239258,-0.7185339331626892,-3.2285826206207275
1403637133818319000,-0.21565766632556915,-0.03608609735965729,0.11327186226844788,11.4012451171875,-0.7676210403442383,-3.277310371398926
1403637133823319000,-0.21009303629398346,-0.039567552506923676,0.1258566975593567,11.353028297424316,-0.7760006189346313,-3.391519784927368
1403637133828319000,-0.21287386119365692,-0.04235108941793442,0.13422437012195587,11.165426254272461,-0.7434527277946472,-3.40790057182312
1403637133833319000,-0.2100675106048584,-0.05073355883359909,0.13284426927566528,11.141365051269531,-0.6619151830673218,-3.4652817249298096
1403637133838319000,-0.21283794939517975,-0.06188499182462692,0.12932920455932617,10.945268630981445,-0.6618598699569702,-3.408235549926758
1403637133843319000,-0.21978408098220825,-0.07794150710105896,0.11608149111270905,10.978026390075684,-0.6209911704063416,-3.441115379333496
1403637133848319000,-0.22394631803035736,-0.08770902454853058,0.10629720240831375,10.920690536499023,-0.612682580947876,-3.36777400970459
1403637133853319000,-0.2288394570350647,-0.09818928688764572,0.10561079531908035,11.067704200744629,-0.6372215747833252,-3.4249227046966553
1403637133858319000,-0.23094207048416138,-0.10168395936489105,0.10002560168504715,11.1981840133667,-0.6943266987800598,-3.4248287677764893
1403637133863319000,-0.22609715163707733,-0.10308867692947388,0.10419701784849167,11.328533172607422,-0.7840560078620911,-3.37566876411438
1403637133868319000,-0.22194364666938782,-0.1002807691693306,0.11537188291549683,11.361355781555176,-0.8903030157089233,-3.448796272277832
1403637133873319000,-0.20734953880310059,-0.09679155051708221,0.13702160120010376,11.43497085571289,-0.9801729917526245,-3.4648656845092773
1403637133878319000,-0.18994174897670746,-0.09677621722221375,0.16566985845565796,11.386483192443848,-1.0539648532867432,-3.562734842300415
1403637133883319000,-0.17392787337303162,-0.09467261284589767,0.18177255988121033,11.493200302124023,-1.0786246061325073,-3.6687963008880615
1403637133888319000,-0.155081108212471,-0.08559215068817139,0.19154655933380127,11.37108039855957,-0.9973316788673401,-3.7261714935302734
1403637133893319000,-0.13832418620586395,-0.08978709578514099,0.19293686747550964,11.306118965148926,-0.8751285672187805,-3.7590572834014893
1403637133898319000,-0.13899452984333038,-0.08351080119609833,0.18873456120491028,11.224535942077637,-0.7527291178703308,-3.767336845397949
1403637133903319000,-0.14385490119457245,-0.08978698402643204,0.18034514784812927,11.126473426818848,-0.7282347679138184,-3.7674708366394043
1403637133908319000,-0.14731037616729736,-0.09327875822782516,0.16147495806217194,11.02016830444336,-0.695397138595581,-3.6614909172058105
1403637133913319000,-0.14728352427482605,-0.10024607181549072,0.14331522583961487,10.946577072143555,-0.7279615998268127,-3.620795249938965
1403637133918319000,-0.1472739577293396,-0.09606438875198364,0.13493627309799194,10.97913932800293,-0.7278393507003784,-3.5636444091796875
1403637133923319000,-0.14100056886672974,-0.09325718134641647,0.13422267138957977,10.905477523803711,-0.8339675664901733,-3.530869245529175
1403637133928319000,-0.1340152472257614,-0.08348827809095383,0.12864765524864197,10.962728500366211,-0.7931182980537415,-3.53084397315979
1403637133933319000,-0.12632505595684052,-0.07230203598737717,0.12445027381181717,10.815749168395996,-0.7767829298973083,-3.514479637145996
1403637133938319000,-0.12770241498947144,-0.06042100489139557,0.12236291915178299,10.7014799118042,-0.7114658355712891,-3.5797832012176514
1403637133943319000,-0.12908907234668732,-0.0548277348279953,0.11957591027021408,10.660611152648926,-0.7032987475395203,-3.6287589073181152
1403637133948319000,-0.13604429364204407,-0.045038461685180664,0.10702075809240341,10.60324478149414,-0.7195514440536499,-3.6940829753875732
1403637133953319000,-0.14648520946502686,-0.04572896659374237,0.09655352681875229,10.4805908203125,-0.6622447967529297,-3.694197416305542
1403637133958319000,-0.15552154183387756,-0.03944719210267067,0.08261803537607193,10.488532066345215,-0.5968015789985657,-3.7595889568328857
1403637133963319000,-0.16597065329551697,-0.038737885653972626,0.06935746222734451,10.414776802062988,-0.6211614012718201,-3.7351303100585938
1403637133968319000,-0.17431877553462982,-0.03175731748342514,0.05610925704240799,10.430839538574219,-0.6128670573234558,-3.7187607288360596
1403637133973319000,-0.18618600070476532,-0.02126755565404892,0.049113593995571136,10.226356506347656,-0.6535066962242126,-3.6942005157470703
1403637133978319000,-0.19246265292167664,-0.008693583309650421,0.04003777354955673,10.128103256225586,-0.6696898937225342,-3.685939311981201
1403637133983319000,-0.19316567480564117,0.003170691430568695,0.03793910890817642,9.98102855682373,-0.620495617389679,-3.5632715225219727
1403637133988319000,-0.1917731612920761,0.01224365085363388,0.032347045838832855,9.784978866577148,-0.6121224761009216,-3.3752121925354004
1403637133993319000,-0.1889929473400116,0.015031054615974426,0.03443024307489395,9.638032913208008,-0.6283570528030396,-3.2362148761749268
1403637133998319000,-0.178529292345047,0.022015079855918884,0.035116322338581085,9.637965202331543,-0.710054874420166,-3.178858518600464
1403637134003319000,-0.16180609166622162,0.02619897574186325,0.04486837238073349,9.52376937866211,-0.8571106791496277,-3.121516704559326
1403637134008319000,-0.13391034305095673,0.03388315439224243,0.05253758281469345,9.662630081176758,-0.9063114523887634,-3.121387481689453
1403637134013319000,-0.10534025728702545,0.042252689599990845,0.07068035751581192,9.622105598449707,-0.8493201732635498,-3.055884838104248
1403637134018319000,-0.08650019764900208,0.04644697532057762,0.07977984100580215,9.769606590270996,-0.5963884592056274,-3.1703567504882812
1403637134023319000,-0.08159424364566803,0.053427811712026596,0.07910793274641037,9.794241905212402,-0.42489925026893616,-3.219482660293579
1403637134028319000,-0.08639809489250183,0.05273895338177681,0.055437587201595306,9.924805641174316,-0.21243156492710114,-3.252552032470703
1403637134033319000,-0.09825316071510315,0.04785964637994766,0.031017012894153595,9.753081321716309,-0.26117581129074097,-3.219874858856201
1403637134038319000,-0.11147353053092957,0.04577138274908066,0.0017176195979118347,9.760797500610352,-0.28548040986061096,-3.277050733566284
1403637134043319000,-0.12681400775909424,0.04228028655052185,-0.025518707931041718,9.64603328704834,-0.37508708238601685,-3.3014214038848877
1403637134048319000,-0.14144274592399597,0.04577108100056648,-0.03808022290468216,9.670126914978027,-0.3668617308139801,-3.285036087036133
1403637134053319000,-0.15541762113571167,0.049241673201322556,-0.041581325232982635,9.44958782196045,-0.3258873522281647,-3.227816104888916
1403637134058319000,-0.17214293777942657,0.05412572622299194,-0.05344582349061966,9.46550178527832,-0.3013549745082855,-3.195065975189209
1403637134063319000,-0.19309744238853455,0.05408947169780731,-0.061846740543842316,9.236766815185547,-0.31753218173980713,-3.178609848022461
1403637134068319000,-0.20564357936382294,0.054087232798337936,-0.07372637838125229,9.244635581970215,-0.3664897680282593,-3.1866486072540283
1403637134073319000,-0.21680109202861786,0.057552654296159744,-0.08562041074037552,9.081381797790527,-0.5133506059646606,-3.14551043510437
1403637134078319000,-0.2209649682044983,0.05197695270180702,-0.08980963379144669,9.105879783630371,-0.5949817299842834,-3.104609966278076
1403637134083319000,-0.21888329088687897,0.05544692650437355,-0.081431083381176,8.967485427856445,-0.6684135794639587,-3.071930408477783
1403637134088319000,-0.21331548690795898,0.05616782233119011,-0.06257543712854385,9.106276512145996,-0.6766836643218994,-3.1210711002349854
1403637134093319000,-0.20846717059612274,0.059656184166669846,-0.039539121091365814,9.098360061645508,-0.6767644286155701,-3.153841018676758
1403637134098319000,-0.20428596436977386,0.06526076793670654,-0.030446387827396393,9.302178382873535,-0.4972822070121765,-3.178457260131836
1403637134103319000,-0.20568159222602844,0.06804491579532623,-0.029728122055530548,9.277637481689453,-0.3503230810165405,-3.1050238609313965
1403637134108319000,-0.2084324061870575,0.06945855170488358,-0.04994791001081467,9.3834228515625,-0.22786743938922882,-3.056039810180664
1403637134113319000,-0.21609143912792206,0.0701538696885109,-0.07366988807916641,9.293405532836914,-0.08084713667631149,-2.91703462600708
1403637134118319000,-0.22513265907764435,0.06947829574346542,-0.0938941016793251,9.391119003295898,0.06617937982082367,-2.89253568649292
1403637134123319000,-0.24190185964107513,0.07502944022417068,-0.1099797859787941,9.211161613464355,0.07435479760169983,-2.8349695205688477
1403637134128319000,-0.2530739903450012,0.07850008457899094,-0.1127888634800911,9.113142013549805,0.017168106511235237,-2.7366113662719727
1403637134133319000,-0.2502906322479248,0.09173167496919632,-0.10722225159406662,8.941791534423828,-0.10535178333520889,-2.646469831466675
1403637134138319000,-0.2496015727519989,0.09590397775173187,-0.10093801468610764,8.860310554504395,-0.13799607753753662,-2.597412586212158
1403637134143319000,-0.24609807133674622,0.10218528658151627,-0.10304222255945206,8.843937873840332,-0.22783707082271576,-2.580981731414795
1403637134148319000,-0.2446780651807785,0.10569072514772415,-0.110035739839077,8.94161605834961,-0.3013365566730499,-2.6707887649536133
1403637134153319000,-0.23838140070438385,0.1147780492901802,-0.11353261023759842,9.03115463256836,-0.3585298955440521,-2.7687621116638184
1403637134158319000,-0.23697924613952637,0.11480871587991714,-0.10165072232484818,9.218775749206543,-0.3504207730293274,-2.850616693496704
1403637134163319000,-0.23138155043125153,0.11831960827112198,-0.09466753154993057,9.333003044128418,-0.4321345388889313,-2.8587698936462402
1403637134168319000,-0.23345856368541718,0.11975528299808502,-0.08139190822839737,9.594067573547363,-0.3914973735809326,-2.858910083770752
1403637134173319000,-0.23414599895477295,0.1323329657316208,-0.07440859824419022,9.708150863647461,-0.3997967541217804,-2.8670029640197754
1403637134178319000,-0.23414213955402374,0.13932612538337708,-0.06532762199640274,9.846894264221191,-0.37540191411972046,-2.9078891277313232
1403637134183319000,-0.24040624499320984,0.16235992312431335,-0.068816639482975,9.838306427001953,-0.39184534549713135,-2.907573699951172
1403637134188319000,-0.2425081729888916,0.1888529509305954,-0.06391886621713638,9.683023452758789,-0.40003377199172974,-2.9072654247283936
1403637134193319000,-0.2446029633283615,0.2188030630350113,-0.06737520545721054,9.462494850158691,-0.3183775544166565,-2.956082820892334
1403637134198319000,-0.25230395793914795,0.23754020035266876,-0.07083410769701004,9.103434562683105,-0.19578902423381805,-2.956122875213623
1403637134203319000,-0.26072072982788086,0.2555462718009949,-0.07990586012601852,8.679328918457031,-0.15481801331043243,-3.0133137702941895
1403637134208319000,-0.2705245912075043,0.26453882455825806,-0.08269263058900833,8.394007682800293,-0.1057949885725975,-2.948004722595215
1403637134213319000,-0.27193981409072876,0.2728656530380249,-0.08128934353590012,8.231100082397461,-0.11395040154457092,-2.915369987487793
1403637134218319000,-0.26218563318252563,0.2672586441040039,-0.07081399112939835,8.101312637329102,-0.25262853503227234,-2.8747005462646484
1403637134223319000,-0.24473868310451508,0.27701592445373535,-0.05892426520586014,8.09343433380127,-0.32617342472076416,-2.825751304626465
1403637134228319000,-0.22243408858776093,0.283288836479187,-0.03867702931165695,8.117974281311035,-0.2854928970336914,-2.7850780487060547
1403637134233319000,-0.1980196237564087,0.29517215490341187,-0.024013645946979523,8.272724151611328,-0.23673242330551147,-2.776888847351074
1403637134238319000,-0.1757228970527649,0.31259799003601074,-0.010042928159236908,8.232007026672363,-0.1960826963186264,-2.6953747272491455
1403637134243319000,-0.147844135761261,0.3223753571510315,0.0004236772656440735,8.248467445373535,-0.15541835129261017,-2.695535182952881
1403637134248319000,-0.1185867190361023,0.3293580412864685,0.015776164829730988,8.126554489135742,-0.24523071944713593,-2.5977044105529785
1403637134253319000,-0.09766867756843567,0.33149874210357666,0.0255436971783638,8.199892044067383,-0.14730776846408844,-2.532501459121704
1403637134258319000,-0.07884940505027771,0.3273283839225769,0.03740829974412918,8.10222339630127,-0.06561839580535889,-2.532770872116089
1403637134263319000,-0.05722248554229736,0.32461243867874146,0.04787779599428177,8.20008373260498,0.10598964989185333,-2.4431004524230957
1403637134268319000,-0.055837005376815796,0.32532554864883423,0.059042416512966156,8.159274101257324,0.11431986093521118,-2.33689546585083
1403637134273319000,-0.05583491921424866,0.33231621980667114,0.059042446315288544,8.224483489990234,0.13063405454158783,-2.3123438358306885
1403637134278319000,-0.04956933856010437,0.34067755937576294,0.06532809883356094,8.045068740844727,0.09000899642705917,-2.2225959300994873
1403637134283319000,-0.04957246780395508,0.35393089056015015,0.0660376325249672,8.053143501281738,0.11441317945718765,-2.271641492843628
1403637134288319000,-0.045406490564346313,0.3657797574996948,0.07652641087770462,7.73485803604126,0.18827307224273682,-2.222931385040283
1403637134293319000,-0.046803176403045654,0.36856549978256226,0.07653222233057022,7.685847759246826,0.22914040088653564,-2.2475087642669678
1403637134298319000,-0.04750370979309082,0.36855578422546387,0.08072652667760849,7.596097946166992,0.2127600610256195,-2.2965927124023438
1403637134303319000,-0.04748639464378357,0.36435896158218384,0.07025634497404099,7.726754188537598,0.21249529719352722,-2.394580602645874
1403637134308319000,-0.0474800169467926,0.364352822303772,0.06257721036672592,7.7920756340026855,0.16340407729148865,-2.394490957260132
1403637134313319000,-0.044670432806015015,0.36157089471817017,0.04721709340810776,7.947091102600098,0.1877993494272232,-2.4189302921295166
1403637134318319000,-0.04048606753349304,0.3601747751235962,0.04511823505163193,7.906370162963867,0.13072152435779572,-2.3535449504852295
1403637134323319000,-0.0328083336353302,0.3657933473587036,0.043714381754398346,8.069549560546875,0.10619117319583893,-2.2880592346191406
1403637134328319000,-0.020959943532943726,0.3713911771774292,0.05627783387899399,7.931034564971924,0.049225352704524994,-2.1983237266540527
1403637134333319000,-0.011890202760696411,0.37700897455215454,0.06325586885213852,8.004508972167969,0.06554508954286575,-2.190134048461914
1403637134338319000,-0.007016599178314209,0.3881800174713135,0.07512848824262619,7.759763240814209,0.08229182660579681,-2.0596730709075928
1403637134343319000,-0.009114831686019897,0.390267014503479,0.07791952043771744,7.596561908721924,0.10711336135864258,-1.9699534177780151
1403637134348319000,-0.0084247887134552,0.39514267444610596,0.0758242979645729,7.253696918487549,0.1812456101179123,-1.8558144569396973
1403637134353319000,-0.015411213040351868,0.3923289179801941,0.07023363560438156,7.098680019378662,0.18966315686702728,-1.798736333847046
1403637134358319000,-0.023098021745681763,0.3888172507286072,0.07511476427316666,6.854304313659668,0.13291272521018982,-1.6194074153900146
1403637134363319000,-0.0293881893157959,0.37484896183013916,0.0792907252907753,6.748055934906006,0.2313726395368576,-1.545796275138855
1403637134368319000,-0.038480594754219055,0.3657708764076233,0.09115611761808395,6.560208797454834,0.2808431088924408,-1.4968377351760864
1403637134373319000,-0.048260584473609924,0.3567157983779907,0.1065162941813469,6.592617511749268,0.27256911993026733,-1.5376240015029907
1403637134378319000,-0.058045029640197754,0.359516441822052,0.11839216202497482,6.559976100921631,0.2153167724609375,-1.5377863645553589
1403637134383319000,-0.06921793520450592,0.3490567207336426,0.12537670135498047,6.600640296936035,0.1496599018573761,-1.6031266450881958
1403637134388319000,-0.07829707860946655,0.3427809476852417,0.1302681267261505,6.600584506988525,0.07590397447347641,-1.644026517868042
1403637134393319000,-0.08527646958827972,0.3316224217414856,0.137244313955307,6.665733814239502,0.04302734509110451,-1.6765999794006348
1403637134398319000,-0.09366317093372345,0.3218570351600647,0.14492526650428772,6.600175857543945,0.0020443664398044348,-1.7501416206359863
1403637134403319000,-0.0964507907629013,0.30443906784057617,0.16166582703590393,6.681687355041504,-0.030720403417944908,-1.6928174495697021
1403637134408319000,-0.09924070537090302,0.2925989031791687,0.1756204068660736,6.787641525268555,-0.09634120762348175,-1.708979606628418
1403637134413319000,-0.09294572472572327,0.27585840225219727,0.18328893184661865,6.910002708435059,-0.08015173673629761,-1.7331962585449219
1403637134418319000,-0.09224028885364532,0.2709880471229553,0.18816515803337097,7.040736198425293,-0.08022139221429825,-1.7085511684417725
1403637134423319000,-0.08525702357292175,0.2605465352535248,0.20561397075653076,7.073459148406982,-0.08843886852264404,-1.6676398515701294
1403637134428319000,-0.0712948739528656,0.26405853033065796,0.22237855195999146,6.959246635437012,-0.12927070260047913,-1.6024651527404785
1403637134433319000,-0.06011970341205597,0.25709688663482666,0.24193677306175232,6.771505355834961,-0.17012181878089905,-1.5209752321243286
1403637134438319000,-0.04404008388519287,0.25569283962249756,0.2552087604999542,6.534817218780518,-0.13728651404380798,-1.3985892534255981
1403637134443319000,-0.02792610228061676,0.2375057488679886,0.2747595012187958,6.232959270477295,-0.08815760910511017,-1.2270877361297607
1403637134448319000,-0.018130600452423096,0.22489221394062042,0.27823272347450256,6.1429548263549805,0.09195895493030548,-1.194277048110962
1403637134453319000,-0.013909265398979187,0.21229052543640137,0.28660738468170166,5.963398456573486,0.10841669142246246,-1.128891944885254
1403637134458319000,-0.009028352797031403,0.1997174173593521,0.2872879207134247,5.914278030395508,0.1575927585363388,-1.1532493829727173
1403637134463319000,-0.0034281834959983826,0.18505047261714935,0.2970590591430664,5.783725738525391,0.10033867508172989,-1.13669753074646
1403637134468319000,0.003597632050514221,0.17385026812553406,0.2984546422958374,5.8411946296691895,0.1817888468503952,-1.063377857208252
1403637134473319000,0.0015187859535217285,0.1529039889574051,0.30473408102989197,5.751524448394775,0.1653592884540558,-1.038810133934021
1403637134478319000,-0.006183750927448273,0.1312827616930008,0.29215848445892334,5.97187614440918,0.336509108543396,-1.0472636222839355
1403637134483319000,-0.020195506513118744,0.11036752164363861,0.28098252415657043,6.0286970138549805,0.4510241448879242,-1.1043882369995117
1403637134488319000,-0.03839629888534546,0.0957709401845932,0.2607601583003998,6.208138942718506,0.44268420338630676,-1.1940410137176514
1403637134493319000,-0.050966620445251465,0.08255451172590256,0.24333566427230835,6.249030590057373,0.33615657687187195,-1.2022265195846558
1403637134498319000,-0.05795568227767944,0.06724509596824646,0.22450977563858032,6.3879570960998535,0.22953446209430695,-1.2429189682006836
1403637134503319000,-0.05657711625099182,0.05052301660180092,0.21683740615844727,6.290062427520752,0.09057311713695526,-1.275492548942566
1403637134508319000,-0.0593860000371933,0.03867144137620926,0.2042810022830963,6.388068675994873,0.08235315978527069,-1.3652602434158325
1403637134513319000,-0.057302653789520264,0.026125654578208923,0.19939804077148438,6.273842811584473,-0.04035453125834465,-1.3242310285568237
1403637134518319000,-0.05031834542751312,0.009385582059621811,0.19940319657325745,6.380194664001465,-0.007900516502559185,-1.3732614517211914
1403637134523319000,-0.0377579927444458,0.0010100789368152618,0.202190101146698,6.2006330490112305,-0.06524558365345001,-1.2749807834625244
1403637134528319000,-0.02657000720500946,-0.022009100764989853,0.20011720061302185,6.2089152336120605,-0.01669313944876194,-1.2097285985946655
1403637134533319000,-0.010527297854423523,-0.031094416975975037,0.2001195251941681,6.062001705169678,0.02419907972216606,-1.1932724714279175
1403637134538319000,-0.004240989685058594,-0.04712687432765961,0.1945640742778778,6.151789665222168,0.15467731654644012,-1.2263329029083252
1403637134543319000,-0.0014467164874076843,-0.05551569163799286,0.192493736743927,6.028959274291992,0.27732446789741516,-1.185685157775879
1403637134548319000,-0.004256188869476318,-0.0701739490032196,0.18136066198349,6.077291488647461,0.48974689841270447,-1.194054126739502
1403637134553319000,-0.016150563955307007,-0.07856866717338562,0.1667202115058899,6.027552127838135,0.6453841328620911,-1.1859081983566284
1403637134558319000,-0.03435066342353821,-0.09184367209672928,0.1402072012424469,6.092047214508057,0.7846116423606873,-1.2101186513900757
1403637134563319000,-0.054635584354400635,-0.10511845350265503,0.11019239574670792,6.058560371398926,0.8421158790588379,-1.2018523216247559
1403637134568319000,-0.07138575613498688,-0.1169503778219223,0.08018618077039719,6.172817230224609,0.7439325451850891,-1.2507216930389404
1403637134573319000,-0.08880110085010529,-0.12597012519836426,0.055055759847164154,6.198030471801758,0.5479580163955688,-1.3162204027175903
1403637134578319000,-0.10134151577949524,-0.13990923762321472,0.03340057283639908,6.362005710601807,0.43328753113746643,-1.3651195764541626
1403637134583319000,-0.10619395971298218,-0.15243245661258698,0.009645424783229828,6.305088520050049,0.2618461847305298,-1.3651280403137207
1403637134588319000,-0.10266396403312683,-0.16845469176769257,0.002647779881954193,6.428553581237793,0.17187726497650146,-1.4303826093673706
1403637134593319000,-0.09913286566734314,-0.1754039227962494,-0.0050557926297187805,6.535528659820557,-0.016073163598775864,-1.4466567039489746
1403637134598319000,-0.09492427110671997,-0.18654696643352509,-0.008556537330150604,6.585001468658447,-0.08957645297050476,-1.4629476070404053
1403637134603319000,-0.08724251389503479,-0.19002242386341095,-0.012757949531078339,6.519683837890625,-0.14656220376491547,-1.4708888530731201
1403637134608319000,-0.06768885254859924,-0.20186477899551392,-0.009272180497646332,6.528139591217041,-0.17926673591136932,-1.5034080743789673
1403637134613319000,-0.05442890524864197,-0.20882819592952728,-0.004383541643619537,6.52822208404541,-0.1957176774740219,-1.503328561782837
1403637134618319000,-0.04257136583328247,-0.21787887811660767,0.00261031836271286,6.487430572509766,-0.18764397501945496,-1.4951049089431763
1403637134623319000,-0.03349222242832184,-0.22276009619235992,0.015200681984424591,6.6103057861328125,-0.09820851683616638,-1.5444645881652832
1403637134628319000,-0.023040488362312317,-0.23110716044902802,0.02989458292722702,6.536895275115967,-0.016686348244547844,-1.5527052879333496
1403637134633319000,-0.016764402389526367,-0.23111839592456818,0.03129933029413223,6.601939678192139,0.0810398980975151,-1.5609090328216553
1403637134638319000,-0.01676115393638611,-0.24156741797924042,0.03410357981920242,6.561540603637695,0.13023042678833008,-1.6262247562408447
1403637134643319000,-0.013977780938148499,-0.24367566406726837,0.030615784227848053,6.610069751739502,0.2362334281206131,-1.6260854005813599
1403637134648319000,-0.020254060626029968,-0.25340741872787476,0.030631236732006073,6.4549994468688965,0.20384199917316437,-1.5934898853302002
1403637134653319000,-0.027907639741897583,-0.25899046659469604,0.01735018938779831,6.488009452819824,0.14690399169921875,-1.6261405944824219
1403637134658319000,-0.029287189245224,-0.2652474045753479,0.0061660632491111755,6.35752534866333,0.0331118144094944,-1.6096760034561157
1403637134663319000,-0.02995757758617401,-0.27363479137420654,-0.014805592596530914,6.455674171447754,0.00865783542394638,-1.650395393371582
1403637134668319000,-0.02786034345626831,-0.2868630886077881,-0.026670120656490326,6.373641490936279,-0.023829692974686623,-1.584871530532837
1403637134673319000,-0.02923184633255005,-0.3022240400314331,-0.04483398050069809,6.537187576293945,0.024899445474147797,-1.6338818073272705
1403637134678319000,-0.02434098720550537,-0.3154597878456116,-0.05600743740797043,6.528754711151123,-0.032267093658447266,-1.5684585571289062
1403637134683319000,-0.02013784646987915,-0.32874536514282227,-0.06513049453496933,6.815487861633301,-0.11416412144899368,-1.6176700592041016
1403637134688319000,-0.007561385631561279,-0.34203946590423584,-0.06239607185125351,7.053630828857422,-0.2609648108482361,-1.7159205675125122
1403637134693319000,0.00500565767288208,-0.3504864573478699,-0.05687158554792404,7.3649001121521,-0.3262941241264343,-1.8550652265548706
1403637134698319000,0.021742865443229675,-0.35610949993133545,-0.03874976187944412,7.447077751159668,-0.46495187282562256,-1.9287807941436768
1403637134703319000,0.048921629786491394,-0.3624396324157715,-0.01294562965631485,7.643399238586426,-0.5141460299491882,-2.002577304840088
1403637134708319000,0.07745030522346497,-0.3659137487411499,0.027604512870311737,7.578118801116943,-0.5225175619125366,-2.1005239486694336
1403637134713319000,0.09692615270614624,-0.3742622137069702,0.05975394695997238,7.757786750793457,-0.35138824582099915,-2.296422243118286
1403637134718319000,0.11081907153129578,-0.38536906242370605,0.08981721848249435,7.716922283172607,-0.24548101425170898,-2.3778486251831055
1403637134723319000,0.11568635702133179,-0.39512431621551514,0.10377833992242813,7.872075080871582,-0.12316863983869553,-2.4430696964263916
1403637134728319000,0.11710682511329651,-0.4007343649864197,0.10447093099355698,7.847074508666992,-0.155672088265419,-2.6062355041503906
1403637134733319000,0.113675057888031,-0.41122210025787354,0.09189047664403915,7.871072769165039,-0.041398800909519196,-2.720255136489868
1403637134738319000,0.10673990845680237,-0.416828453540802,0.07651460915803909,7.887186527252197,-0.02500772848725319,-2.7610316276550293
1403637134743319000,0.09565027058124542,-0.4259495735168457,0.04716222733259201,7.8377532958984375,-0.0411834791302681,-2.834374189376831
1403637134748319000,0.0810449868440628,-0.4371536374092102,0.017814181745052338,7.813286304473877,-0.13893535733222961,-2.8262648582458496
1403637134753319000,0.07689467072486877,-0.45678216218948364,-0.005277775228023529,7.951990127563477,-0.3019922375679016,-2.89188289642334
1403637134758319000,0.07831281423568726,-0.46661221981048584,-0.018565841019153595,7.984494686126709,-0.3917223811149597,-2.9246528148651123
1403637134763319000,0.09363321959972382,-0.4771137237548828,-0.011601604521274567,8.115412712097168,-0.5059558153152466,-2.8597888946533203
1403637134768319000,0.10127615928649902,-0.48547929525375366,0.007251746952533722,8.221592903137207,-0.5467572212219238,-2.8682339191436768
1403637134773319000,0.11656743288040161,-0.4958995580673218,0.03590301424264908,8.287144660949707,-0.5467069149017334,-2.8275835514068604
1403637134778319000,0.1262844204902649,-0.49656713008880615,0.07500904053449631,8.54820728302002,-0.5630673170089722,-2.934098720550537
1403637134783319000,0.13809123635292053,-0.4944579601287842,0.11833139508962631,8.613092422485352,-0.5875215530395508,-3.023927927017212
1403637134788319000,0.14646902680397034,-0.49096035957336426,0.1511443853378296,8.832925796508789,-0.5059188008308411,-3.244234323501587
1403637134793319000,0.14857397973537445,-0.4804980158805847,0.17140331864356995,8.799809455871582,-0.4487459659576416,-3.3746447563171387
