#timestamp [ns],w_RS_S_x [rad s^-1],w_RS_S_y [rad s^-1],w_RS_S_z [rad s^-1],a_RS_S_x [m s^-2],a_RS_S_y [m s^-2],a_RS_S_z [m s^-2]
1403637130498319000,-0.032114058236695664,0.05445427266222308,0.07749261878854824,9.447072833333333,-0.9398039583333333,-2.4516625
1403637130503319000,-0.017453292519943295,0.04328416544945937,0.06632251157578452,9.250939833333334,-1.1359369583333332,-2.4108014583333333
1403637130508319000,0.003490658503988659,0.033510321638291124,0.05375614096142535,9.16921775,-1.1849702083333333,-2.4434902916666665
1403637130513319000,0.019547687622336492,0.017453292519943295,0.05026548245743669,9.144701125,-1.0296982499999998,-2.435318083333333
1403637130518319000,0.029321531433504733,0.004886921905584123,0.056548667764616284,9.226423208333333,-0.7436709583333333,-2.4925235416666665
1403637130523319000,0.025132741228718346,0.0006981317007977319,0.06492624817418906,9.487933875,-0.4494714583333333,-2.459834708333333
1403637130528319000,0.0027925268031909274,0.004886921905584123,0.07539822368615504,9.422556208333333,-0.3350605416666666,-2.3944570416666666
1403637130533319000,-0.017453292519943295,0.0013962634015954637,0.09215338450530061,9.46341725,-0.43312704166666666,-2.4189736666666666
1403637130538319000,-0.030019663134302467,0.014660765716752367,0.10262536001726656,9.586000375,-0.661948875,-2.3862848333333333
1403637130543319000,-0.0307177948351002,0.025132741228718346,0.11519173063162574,9.635033625,-0.8417374583333332,-2.3535959999999996
1403637130548319000,-0.02024581932313422,0.03630284844148206,0.11309733552923257,9.659550249999999,-0.9970094166666666,-2.4108014583333333
1403637130553319000,-0.0006981317007977319,0.04258603374866164,0.1075122819228507,9.577828166666666,-1.0133538333333332,-2.3045627499999997
1403637130558319000,0.017453292519943295,0.03700098014227979,0.08936085770210968,9.316317499999998,-0.8662540833333333,-2.2718739166666664
1403637130563319000,0.029321531433504733,0.0153588974175501,0.07051130178057091,9.332661916666666,-0.6782932916666666,-2.3699404166666667
1403637130568319000,0.030019663134302467,0.020943951023931952,0.06422811647339133,9.422556208333333,-0.4739880833333333,-2.476179125
1403637130573319000,0.017453292519943295,0.014660765716752367,0.07051130178057091,9.414383999999998,-0.220649625,-2.6151066666666667
1403637130578319000,-0.0020943951023931952,0.01884955592153876,0.07539822368615504,9.520622708333333,-0.14709974999999997,-2.6477955
1403637130583319000,-0.020943951023931952,0.021642082724729686,0.0879645943005142,9.340834124999999,-0.2778550833333333,-2.59876225
1403637130588319000,-0.0307177948351002,0.02024581932313422,0.08656833089891874,9.389867375,-0.6782932916666666,-2.549729
1403637130593319000,-0.02722713633111154,0.02234021442552742,0.07749261878854824,9.430728416666666,-0.9724927916666666,-2.582417833333333
1403637130598319000,-0.004886921905584123,0.024434609527920613,0.06911503837897544,9.389867375,-1.0869037083333333,-2.557901208333333
1403637130603319000,0.012566370614359173,0.01884955592153876,0.06911503837897544,9.316317499999998,-1.103248125,-2.459834708333333
1403637130608319000,0.030019663134302467,0.016057029118347832,0.07120943348136866,9.389867375,-0.8580818749999999,-2.4680069166666665
1403637130613319000,0.03560471674068433,0.0013962634015954637,0.08237954069413235,9.210078791666666,-0.7273265416666667,-2.3209071666666663
1403637130618319000,0.02583087292951608,-0.006283185307179587,0.08307767239493008,9.381695166666667,-0.6782932916666666,-2.280046125
1403637130623319000,0.025132741228718346,-0.009773843811168246,0.08377580409572781,9.536967125,-0.73549875,-2.1656352083333332
1403637130628319000,0.02583087292951608,-0.01117010721276371,0.07260569688296412,9.814822208333332,-0.563882375,-2.214668458333333
1403637130633319000,0.024434609527920613,0.0041887902047863905,0.07819075048934597,9.782133375,-0.4739880833333333,-2.157463
1403637130638319000,0.016057029118347832,0.009075712110370514,0.06562437987498679,9.724927916666667,-0.34323275000000003,-2.2718739166666664
1403637130643319000,0.0022842464968562126,0.025713175535202026,0.04924417659640312,9.546131134033203,-0.4399627149105072,-2.3187735080718994
1403637130648319000,-0.007831049151718616,0.03772686421871185,0.027435820549726486,9.396796226501465,-0.43747568130493164,-2.549180746078491
1403637130653319000,-0.010997203178703785,0.03805352747440338,0.03969675675034523,9.37170696258545,-0.3334052264690399,-2.777333974838257
1403637130658319000,-0.014849347062408924,0.04687301814556122,0.06132550537586212,9.566244125366211,-0.26958513259887695,-2.989716053009033
1403637130663319000,-0.0199933759868145,0.055962011218070984,0.07733585685491562,9.345705032348633,-0.29603084921836853,-2.988452434539795
1403637130668319000,-0.03510252758860588,0.05406379699707031,0.07234219461679459,9.240473747253418,-0.3222748637199402,-2.906794786453247
1403637130673319000,-0.05258890613913536,0.04272903501987457,0.059539344161748886,8.987347602844238,-0.5641923546791077,-2.833667516708374
1403637130678319000,-0.052577149122953415,0.027454018592834473,0.04815686121582985,8.987812995910645,-0.7101191878318787,-2.7522833347320557
1403637130683319000,-0.04966307803988457,0.009981900453567505,0.06944433599710464,8.948040962219238,-0.7666530609130859,-2.6375627517700195
1403637130688319000,-0.046262796968221664,-0.0013096034526824951,0.08984532952308655,9.225276947021484,-0.8079227209091187,-2.514859199523926
1403637130693319000,-0.03945852443575859,-0.011073529720306396,0.09875411540269852,9.389283180236816,-1.1427019834518433,-2.2487196922302246
1403637130698319000,-0.026683326810598373,-0.01042628288269043,0.08962985873222351,9.601902961730957,-1.4743678569793701,-1.913344383239746
1403637130703319000,0.0024978844448924065,-0.013714209198951721,0.0806250348687172,9.519758224487305,-1.6940367221832275,-1.653530240058899
1403637130708319000,0.045225296169519424,-0.012367427349090576,0.07557602226734161,9.792732238769531,-1.3133535385131836,-1.8549314737319946
1403637130713319000,0.057157326489686966,0.004282429814338684,0.09226641803979874,9.923076629638672,-0.4677078127861023,-2.168041706085205
1403637130718319000,0.03878921642899513,0.03368291258811951,0.1086491122841835,10.010773658752441,0.23429293930530548,-2.508037567138672
1403637130723319000,-0.007489887066185474,0.06849817931652069,0.12586462497711182,9.772377014160156,0.3092409074306488,-2.638402223587036
1403637130728319000,-0.042261745780706406,0.0809287577867508,0.12000107020139694,9.568026542663574,-0.14823086559772491,-2.605132579803467
1403637130733319000,-0.04448823258280754,0.07291948795318604,0.11152622848749161,9.101995468139648,-0.9260863661766052,-2.430182456970215
1403637130738319000,-0.01625458523631096,0.05348588526248932,0.09686468541622162,9.061800003051758,-1.2220548391342163,-2.4363341331481934
1403637130743319000,0.01707218959927559,0.031831398606300354,0.08094685524702072,8.941394805908203,-1.0138239860534668,-2.486976385116577
1403637130748319000,0.025808323174715042,0.01203867793083191,0.06415676325559616,9.135770797729492,-0.2902909219264984,-2.7528998851776123
1403637130753319000,0.015292066149413586,0.0048697590827941895,0.055246807634830475,9.199642181396484,-0.018057474866509438,-2.785220146179199
1403637130758319000,-0.010452565737068653,-0.007854044437408447,0.045413900166749954,9.208754539489746,-0.024145523086190224,-2.588416814804077
1403637130763319000,-0.038379620760679245,-0.02286258339881897,0.04145829379558563,9.266037940979004,-0.27914538979530334,-2.432267189025879
1403637130768319000,-0.045815568417310715,-0.015446200966835022,0.03892740234732628,9.706473350524902,-0.5186976194381714,-2.4302821159362793
1403637130773319000,-0.047325294464826584,0.0074548423290252686,0.050501856952905655,9.725584030151367,-0.8317673206329346,-2.4146814346313477
1403637130778319000,-0.033431049436330795,0.02275639772415161,0.0580093152821064,9.79196834564209,-0.954058051109314,-2.480297565460205
1403637130783319000,-0.018239375203847885,0.04079286754131317,0.06673558801412582,9.653559684753418,-0.9309808611869812,-2.488311290740967
1403637130788319000,-0.008246463723480701,0.051976367831230164,0.07162734866142273,9.513582229614258,-0.79470294713974,-2.472262144088745
1403637130793319000,-0.01141792256385088,0.05515250563621521,0.07514018565416336,9.307722091674805,-0.6728470325469971,-2.3837807178497314
1403637130798319000,-0.012162533588707447,0.04298582673072815,0.06715072691440582,9.235623359680176,-0.7557116746902466,-2.195855140686035
1403637130803319000,-0.010420558042824268,0.01516006886959076,0.056751664727926254,9.073534965515137,-1.2890634536743164,-2.0203328132629395
1403637130808319000,0.01123673003166914,-0.016369983553886414,0.04690365120768547,9.358750343322754,-1.388417363166809,-2.0597031116485596
1403637130813319000,0.04594293609261513,-0.02842801809310913,0.06366162747144699,9.472406387329102,-0.8901137113571167,-2.2505080699920654
1403637130818319000,0.04733327403664589,-0.022747337818145752,0.07773303985595703,9.853086471557617,-0.10507509112358093,-2.549030303955078
1403637130823319000,0.016329843550920486,0.015494555234909058,0.09002869576215744,9.917411804199219,0.23793086409568787,-2.7123169898986816
1403637130828319000,-0.02050202712416649,0.04397928714752197,0.08581282943487167,9.878485679626465,0.055491816252470016,-2.703773021697998
1403637130833319000,-0.037363480776548386,0.061249375343322754,0.08294286578893661,9.560507774353027,-0.5845165848731995,-2.4991884231567383
1403637130838319000,-0.023395027965307236,0.0583176463842392,0.08047142624855042,9.348308563232422,-1.010308027267456,-2.388054609298706
1403637130843319000,-0.00526506919413805,0.04778583347797394,0.08548782020807266,9.038402557373047,-1.0311665534973145,-2.360727548599243
1403637130848319000,0.006896826438605785,0.03336326777935028,0.08127634972333908,9.102335929870605,-0.7640721201896667,-2.526615619659424
1403637130853319000,0.002815025858581066,0.02343982458114624,0.07455536723136902,9.079257011413574,-0.6732105016708374,-2.675436019897461
1403637130858319000,-0.0025709839537739754,0.01449468731880188,0.06819656491279602,9.309090614318848,-0.7118285298347473,-2.6363935470581055
1403637130863319000,-0.0018051685765385628,0.007394686341285706,0.07763900607824326,9.21865177154541,-0.7348519563674927,-2.5063745975494385
1403637130868319000,-0.0028213830664753914,-0.0010852068662643433,0.08166788518428802,9.46304702758789,-0.6480928063392639,-2.4238243103027344
1403637130873319000,-0.012483981437981129,-0.0028231292963027954,0.08761473000049591,9.446595191955566,-0.7259398102760315,-2.2922863960266113
1403637130878319000,-0.013713535852730274,-0.003156006336212158,0.09205597639083862,9.583932876586914,-0.9134504199028015,-2.306856632232666
1403637130883319000,-0.004646343179047108,0.011428475379943848,0.10147237032651901,9.609187126159668,-1.064705491065979,-2.312737226486206
1403637130888319000,0.010209414176642895,0.025327548384666443,0.11696205288171768,9.724037170410156,-0.9483593702316284,-2.486953020095825
1403637130893319000,0.023329559713602066,0.04517988860607147,0.12846282124519348,9.535784721374512,-0.6938008069992065,-2.481050491333008
1403637130898319000,0.02032812312245369,0.0513186901807785,0.12655065953731537,9.43778133392334,-0.30263862013816833,-2.4015355110168457
1403637130903319000,0.006849708966910839,0.04663240909576416,0.11804848164319992,9.159896850585938,-0.22363431751728058,-2.3037242889404297
1403637130908319000,-0.005982545204460621,0.02341461181640625,0.10770324617624283,9.224803924560547,-0.35429808497428894,-2.318314552307129
1403637130913319000,-0.010130343027412891,0.0070122480392456055,0.08850026875734329,9.396500587463379,-0.5072813034057617,-2.439957857131958
1403637130918319000,-0.0035586031153798103,0.0012417733669281006,0.071062833070755,9.542993545532227,-0.5086917877197266,-2.596161127090454
1403637130923319000,-0.002857905812561512,0.011844724416732788,0.06167716905474663,9.502924919128418,-0.4939627945423126,-2.6214988231658936
1403637130928319000,-0.005642515607178211,0.026618927717208862,0.05743785947561264,9.625849723815918,-0.4507795572280884,-2.6218035221099854
1403637130933319000,-0.005308774299919605,0.03515039384365082,0.0621965155005455,9.471597671508789,-0.5144089460372925,-2.4826903343200684
1403637130938319000,-0.004073155112564564,0.03099188208580017,0.06579370051622391,9.406022071838379,-0.5556222200393677,-2.4083313941955566
1403637130943319000,-0.004114401526749134,0.026034384965896606,0.06100088730454445,9.259074211120605,-0.6696462035179138,-2.365802764892578
1403637130948319000,-0.007997703738510609,0.014062449336051941,0.0558919794857502,9.421448707580566,-0.6386726498603821,-2.4389915466308594
1403637130953319000,-0.010840428061783314,0.013310745358467102,0.05453738197684288,9.413451194763184,-0.6403975486755371,-2.39784836769104
1403637130958319000,-0.011904564686119556,0.007767617702484131,0.04925033077597618,9.50400161743164,-0.6559545993804932,-2.4234445095062256
1403637130963319000,-0.014290270395576954,0.012056782841682434,0.057263974100351334,9.439613342285156,-0.7110800743103027,-2.4169554710388184
1403637130968319000,-0.00905726570636034,0.016957804560661316,0.06264874339103699,9.602561950683594,-0.7016668915748596,-2.4995250701904297
1403637130973319000,-0.006162834353744984,0.02737182378768921,0.06691388785839081,9.529455184936523,-0.635951042175293,-2.5409936904907227
1403637130978319000,-0.007086780853569508,0.03348492085933685,0.06283672899007797,9.57778263092041,-0.5144994854927063,-2.5403263568878174
1403637130983319000,-0.014287409372627735,0.03197142481803894,0.068522147834301,9.323610305786133,-0.4566107392311096,-2.5151166915893555
1403637130988319000,-0.02131802961230278,0.025598526000976562,0.06469764560461044,9.396282196044922,-0.4644167125225067,-2.5478057861328125
1403637130993319000,-0.022764082998037338,0.025070369243621826,0.0664975568652153,9.29025650024414,-0.5311041474342346,-2.5157723426818848
1403637130998319000,-0.02133304998278618,0.024706363677978516,0.0629212036728859,9.331531524658203,-0.6122224926948547,-2.5739541053771973
1403637131003319000,-0.02291300520300865,0.020765453577041626,0.07057403773069382,9.242368698120117,-0.5476391315460205,-2.5489661693573
1403637131008319000,-0.02279258891940117,0.02065776288509369,0.06918803602457047,9.356042861938477,-0.5491073131561279,-2.5317118167877197
1403637131013319000,-0.025753792375326157,0.02114921808242798,0.07410550862550735,9.306968688964844,-0.5810189843177795,-2.4984707832336426
1403637131018319000,-0.029926013201475143,0.019438549876213074,0.07709360122680664,9.486550331115723,-0.6952473521232605,-2.4063498973846436
1403637131023319000,-0.02567363902926445,0.012968793511390686,0.07959668338298798,9.35636043548584,-0.9734879732131958,-2.2160120010375977
1403637131028319000,-0.010616716928780079,0.00048457086086273193,0.06421113759279251,9.570109367370605,-1.2146151065826416,-2.0656819343566895
1403637131033319000,0.013208034448325634,-0.004873141646385193,0.06009224057197571,9.596648216247559,-1.1354854106903076,-2.0496559143066406
1403637131038319000,0.026479635387659073,0.0031733065843582153,0.060530342161655426,9.68649673461914,-0.5879046320915222,-2.160153388977051
1403637131043319000,0.016274619847536087,0.01801079511642456,0.0702284723520279,9.659990310668945,-0.12986625730991364,-2.3674333095550537
1403637131048319000,-0.01124070305377245,0.03804446756839752,0.06946732103824615,9.756546020507812,0.06773479282855988,-2.6367616653442383
1403637131053319000,-0.03346666321158409,0.04966902732849121,0.06429140269756317,9.470694541931152,-0.2701670825481415,-2.604999303817749
1403637131058319000,-0.03700124844908714,0.05637642741203308,0.055132146924734116,9.388328552246094,-0.7567188739776611,-2.6212317943573
1403637131063319000,-0.01638909801840782,0.04671034216880798,0.04540857672691345,9.04742431640625,-1.0915210247039795,-2.472238302230835
1403637131068319000,0.006909909658133984,0.028666064143180847,0.03535037487745285,9.120582580566406,-0.9714815020561218,-2.5804572105407715
1403637131073319000,0.018050391227006912,0.015650421380996704,0.031845271587371826,9.128083229064941,-0.6871920228004456,-2.6876487731933594
1403637131078319000,0.012744593434035778,0.009698614478111267,0.030156098306179047,9.34009838104248,-0.5385130047798157,-2.7367422580718994
1403637131083319000,0.0016508428379893303,-0.0035402625799179077,0.046628132462501526,9.177151679992676,-0.5621604919433594,-2.5642013549804688
1403637131088319000,-0.010079917497932911,-0.008117541670799255,0.062191467732191086,9.339655876159668,-0.7511927485466003,-2.4478940963745117
1403637131093319000,-0.0131338806822896,-0.009138315916061401,0.08232297748327255,9.389274597167969,-0.9182024002075195,-2.298582077026367
1403637131098319000,-0.012407314963638783,-0.0037031322717666626,0.1016915813088417,9.633840560913086,-0.8828147649765015,-2.290069103240967
1403637131103319000,-0.009576407261192799,0.006551086902618408,0.12377465516328812,9.601189613342285,-0.9468572735786438,-2.2806737422943115
1403637131108319000,-0.007247430272400379,0.02248428761959076,0.14334440231323242,9.773331642150879,-0.8384975790977478,-2.3879799842834473
1403637131113319000,-0.004536059685051441,0.03779765963554382,0.16079404950141907,9.699567794799805,-0.834928572177887,-2.428666114807129
1403637131118319000,-0.0043754251673817635,0.05557277798652649,0.15813817083835602,9.675382614135742,-0.8974329233169556,-2.4113502502441406
1403637131123319000,0.0014196215197443962,0.05926735699176788,0.1435880959033966,9.307718276977539,-1.1663434505462646,-2.2198333740234375
1403637131128319000,0.020589906722307205,0.047378286719322205,0.13261878490447998,8.890530586242676,-1.2333074808120728,-2.260387420654297
1403637131133319000,0.04905376210808754,0.013937965035438538,0.13865117728710175,8.922226905822754,-0.8377442359924316,-2.444216728210449
1403637131138319000,0.059900183230638504,0.004406169056892395,0.1388961672782898,9.287301063537598,-0.17006388306617737,-2.727332830429077
1403637131143319000,0.04477747157216072,0.0031713247299194336,0.13633716106414795,9.51515007019043,0.34245049953460693,-2.8018033504486084
1403637131148319000,0.002782839350402355,0.01642245054244995,0.11327097564935684,9.631070137023926,0.3531329929828644,-2.7681074142456055
1403637131153319000,-0.02661876007914543,0.02038489282131195,0.09722871333360672,9.543487548828125,-0.13094747066497803,-2.5477824211120605
1403637131158319000,-0.025220539420843124,0.02308504283428192,0.08906242996454239,9.486509323120117,-0.6517081260681152,-2.3662638664245605
1403637131163319000,-0.003387835808098316,0.016124263405799866,0.08029323071241379,9.349061965942383,-0.8669508099555969,-2.216359853744507
1403637131168319000,0.01664610579609871,0.012718185782432556,0.06345484405755997,9.431008338928223,-0.5585181713104248,-2.2840685844421387
1403637131173319000,0.020939219743013382,0.007162824273109436,0.05233808606863022,9.505003929138184,-0.2713862955570221,-2.3333866596221924
1403637131178319000,0.002583893947303295,0.013507619500160217,0.033674001693725586,9.612420082092285,-0.1316947191953659,-2.3082566261291504
1403637131183319000,-0.01604359969496727,0.012220785021781921,0.027666157111525536,9.56384563446045,-0.3493974208831787,-2.2352161407470703
1403637131188319000,-0.025988202542066574,0.019289180636405945,0.02696377970278263,9.530025482177734,-0.6278722882270813,-2.3016228675842285
1403637131193319000,-0.018222283571958542,0.01974259316921234,0.03567909076809883,9.668363571166992,-0.9100120663642883,-2.383843421936035
1403637131198319000,-0.011734438128769398,0.033543720841407776,0.044361453503370285,9.57888412475586,-0.9340900182723999,-2.4584310054779053
1403637131203319000,-0.01129081565886736,0.03490950167179108,0.0546405054628849,9.464061737060547,-0.7862650752067566,-2.4336583614349365
1403637131208319000,-0.009411600418388844,0.03340049088001251,0.06966987997293472,9.283214569091797,-0.7974887490272522,-2.4328126907348633
1403637131213319000,-0.007423845119774342,0.026208728551864624,0.07542864233255386,9.282620429992676,-0.8669725656509399,-2.4084701538085938
1403637131218319000,-0.00552032608538866,0.02571818232536316,0.08293242752552032,9.265499114990234,-0.8997536897659302,-2.4582414627075195
1403637131223319000,-0.0020116688683629036,0.0184171199798584,0.09484609216451645,9.283137321472168,-0.8468952775001526,-2.482867956161499
1403637131228319000,0.001370447687804699,0.011503487825393677,0.10734695196151733,9.348334312438965,-0.7780388593673706,-2.473337411880493
1403637131233319000,-0.002735150046646595,0.004927217960357666,0.10801830887794495,9.461889266967773,-0.7066540122032166,-2.464099407196045
1403637131238319000,0.000804009847342968,0.012426719069480896,0.10820362716913223,9.470091819763184,-0.633868932723999,-2.4224424362182617
1403637131243319000,-0.0007043452933430672,0.015095382928848267,0.10547763854265213,9.690247535705566,-0.609046459197998,-2.4634015560150146
1403637131248319000,-0.0006492855027318001,0.027615994215011597,0.10085906833410263,9.46258544921875,-0.5504154562950134,-2.366114616394043
1403637131253319000,-0.0029568495228886604,0.032530397176742554,0.09610364586114883,9.569223403930664,-0.3953237235546112,-2.5074872970581055
1403637131258319000,-0.00761829037219286,0.03907817602157593,0.09327604621648788,9.390583992004395,-0.4931996464729309,-2.46596622467041
1403637131263319000,-0.01511972863227129,0.03437945246696472,0.08884493261575699,9.55343246459961,-0.5836098790168762,-2.54655385017395
1403637131268319000,-0.009568226523697376,0.03722470998764038,0.08380312472581863,9.355929374694824,-0.6730107665061951,-2.4543213844299316
1403637131273319000,-0.006628525443375111,0.019793584942817688,0.08204919844865799,9.20888614654541,-0.5924291014671326,-2.2995543479919434
1403637131278319000,-0.00036680418998003006,0.005190551280975342,0.08290373533964157,9.257050514221191,-0.41305074095726013,-2.375077247619629
1403637131283319000,-0.009982598014175892,0.014934271574020386,0.0778140276670456,9.64894962310791,-0.2091905027627945,-2.621943712234497
1403637131288319000,-0.025624122470617294,0.021990060806274414,0.06315914541482925,9.405689239501953,-0.1741536259651184,-2.525315523147583
1403637131293319000,-0.04196734353899956,0.016910836100578308,0.04567078873515129,9.51927661895752,-0.5469181537628174,-2.5088045597076416
1403637131298319000,-0.029376011341810226,0.022325903177261353,0.051599856466054916,9.349017143249512,-0.9625563621520996,-2.365955114364624
1403637131303319000,-0.012312603183090687,0.01881559193134308,0.05590265616774559,9.397879600524902,-1.0529223680496216,-2.3725836277008057
1403637131308319000,0.004188212566077709,0.018254294991493225,0.06353987008333206,9.471078872680664,-0.9819510579109192,-2.3470568656921387
1403637131313319000,0.010550695471465588,0.027306407690048218,0.061398785561323166,9.635085105895996,-0.6725708842277527,-2.4730141162872314
1403637131318319000,0.008579405955970287,0.023913174867630005,0.05859760940074921,9.219060897827148,-0.5060268640518188,-2.4501264095306396
1403637131323319000,-0.00923952180892229,0.015495911240577698,0.06569578498601913,9.389070510864258,-0.5212082862854004,-2.498403549194336
1403637131328319000,-0.011102837510406971,0.02319541573524475,0.07774040848016739,9.267251968383789,-0.6526356935501099,-2.398637294769287
1403637131333319000,-0.005300817079842091,0.01609201729297638,0.08885838836431503,9.380804061889648,-0.7519651055335999,-2.4396281242370605
1403637131338319000,-0.0028799893334507942,0.013065963983535767,0.09186013787984848,9.551323890686035,-0.8342664837837219,-2.5708327293395996
1403637131343319000,0.0036197034642100334,0.02902628481388092,0.08891714364290237,9.553522109985352,-0.7536640167236328,-2.5630314350128174
1403637131348319000,0.008344295434653759,0.03345586359500885,0.09973414987325668,9.364644050598145,-0.5653470158576965,-2.5803537368774414
1403637131353319000,0.0026244698092341423,0.03708302974700928,0.09260761737823486,9.477241516113281,-0.31831011176109314,-2.7031350135803223
1403637131358319000,-0.011020076461136341,0.03840172290802002,0.0861792266368866,9.339588165283203,-0.25362667441368103,-2.6375045776367188
1403637131363319000,-0.024593230336904526,0.03502407670021057,0.07076793164014816,9.248991966247559,-0.3928007185459137,-2.5490171909332275
1403637131368319000,-0.027586113661527634,0.016468927264213562,0.06843257695436478,9.136592864990234,-0.7838761806488037,-2.366520404815674
1403637131373319000,-0.020674940198659897,0.0016362667083740234,0.07126405090093613,9.219191551208496,-1.0965136289596558,-2.2488622665405273
1403637131378319000,-0.0005387039855122566,-0.016100481152534485,0.0857626274228096,9.3724946975708,-1.3211520910263062,-2.205491542816162
1403637131383319000,0.01963043585419655,-0.008332967758178711,0.08920308202505112,9.668264389038086,-1.2098090648651123,-2.195478916168213
1403637131388319000,0.027637112885713577,-0.008241832256317139,0.08916953951120377,9.694239616394043,-0.947158694267273,-2.1405625343322754
1403637131393319000,0.028771910816431046,0.009213894605636597,0.09071826189756393,9.839838027954102,-0.6043232679367065,-2.183472156524658
1403637131398319000,0.027760077267885208,0.026621311902999878,0.09466170519590378,9.783485412597656,-0.301955908536911,-2.2670295238494873
1403637131403319000,0.015114369802176952,0.0453043133020401,0.09747284650802612,9.659234046936035,-0.1767321079969406,-2.4168128967285156
1403637131408319000,-0.009740245528519154,0.05162331461906433,0.09834008663892746,9.599889755249023,-0.16119685769081116,-2.564971685409546
1403637131413319000,-0.02578076347708702,0.06352165341377258,0.08850198984146118,9.397095680236816,-0.37152746319770813,-2.6045243740081787
1403637131418319000,-0.027915310114622116,0.052227914333343506,0.07870353013277054,9.233675003051758,-0.7413008809089661,-2.529980182647705
1403637131423319000,-0.008117717690765858,0.042167991399765015,0.07058408111333847,9.038820266723633,-1.073720097541809,-2.4465584754943848
1403637131428319000,0.01226321142166853,0.012526288628578186,0.062541164457798,9.033367156982422,-1.1401877403259277,-2.3975017070770264
1403637131433319000,0.029564056545495987,-0.004452347755432129,0.053524043411016464,9.153359413146973,-0.8805152177810669,-2.3996829986572266
1403637131438319000,0.03789818659424782,-0.017084911465644836,0.0546855553984642,9.282893180847168,-0.4745255708694458,-2.458519697189331
1403637131443319000,0.021733690053224564,-0.012134522199630737,0.05613955855369568,9.454355239868164,-0.20736686885356903,-2.5478620529174805
1403637131448319000,-0.0031626196578145027,-0.004951536655426025,0.060330186039209366,9.600794792175293,-0.18402725458145142,-2.5149130821228027
1403637131453319000,-0.019624944776296616,0.006035521626472473,0.06514434516429901,9.561075210571289,-0.404646635055542,-2.382857084274292
1403637131458319000,-0.02342982217669487,0.016440466046333313,0.0706218034029007,9.69225788116455,-0.6411961913108826,-2.3743298053741455
1403637131463319000,-0.0192241333425045,0.03118826448917389,0.07389809191226959,9.569541931152344,-0.8428784012794495,-2.399496555328369
1403637131468319000,-0.012202990241348743,0.037617072463035583,0.06967531889677048,9.618742942810059,-0.8326222896575928,-2.5471479892730713
1403637131473319000,-0.009004098363220692,0.050954341888427734,0.06355637311935425,9.316426277160645,-0.8530795574188232,-2.5963926315307617
1403637131478319000,0.0003367690369486809,0.03931663930416107,0.06358829140663147,9.030145645141602,-0.6084306836128235,-2.572843313217163
1403637131483319000,0.0027865497395396233,0.021357610821723938,0.07195106893777847,9.004608154296875,-0.405951589345932,-2.5726356506347656
1403637131488319000,0.0016405610367655754,0.005768865346908569,0.0798274353146553,9.428027153015137,-0.28638049960136414,-2.621469259262085
1403637131493319000,-0.01914021000266075,0.00793534517288208,0.07983500510454178,9.453045845031738,-0.2409241497516632,-2.581321954727173
1403637131498319000,-0.038337018340826035,0.004421025514602661,0.06789276748895645,9.674483299255371,-0.4286184310913086,-2.540184259414673
1403637131503319000,-0.042898502200841904,0.013254642486572266,0.06778717041015625,9.536044120788574,-0.8266144394874573,-2.482576847076416
1403637131508319000,-0.03343620523810387,0.015153542160987854,0.07965172827243805,9.592617988586426,-0.9324145913124084,-2.4729807376861572
1403637131513319000,-0.014180895872414112,0.027076423168182373,0.08949892967939377,9.49470329284668,-0.8826278448104858,-2.348062038421631
1403637131518319000,-0.004912045784294605,0.027976155281066895,0.08458729833364487,9.536380767822266,-0.6461926698684692,-2.390564203262329
1403637131523319000,-0.006920632906258106,0.034403830766677856,0.07668960094451904,9.316776275634766,-0.48311951756477356,-2.325958728790283
1403637131528319000,-0.01348064560443163,0.025975853204727173,0.06923237442970276,9.349096298217773,-0.37696611881256104,-2.4080777168273926
1403637131533319000,-0.019582074135541916,0.0267113596200943,0.07230468839406967,9.348557472229004,-0.44338861107826233,-2.513418674468994
1403637131538319000,-0.02475106343626976,0.025279134511947632,0.07175076752901077,9.55189037322998,-0.46144407987594604,-2.5950825214385986
1403637131543319000,-0.029490437358617783,0.02454519271850586,0.07622305303812027,9.486739158630371,-0.6240786910057068,-2.5297422409057617
1403637131548319000,-0.030110161751508713,0.02786378562450409,0.07778651267290115,9.626914978027344,-0.8760206699371338,-2.5132086277008057
1403637131553319000,-0.024186741560697556,0.03561662137508392,0.08616502583026886,9.325671195983887,-1.020672082901001,-2.2995238304138184
1403637131558319000,-0.010777798481285572,0.027245178818702698,0.09362507611513138,9.283788681030273,-1.1578267812728882,-2.2818591594696045
1403637131563319000,0.003795984201133251,0.021444082260131836,0.10550937801599503,9.217338562011719,-1.1750961542129517,-2.3130266666412354
1403637131568319000,0.019380439072847366,0.02067074179649353,0.11097786575555801,9.355083465576172,-0.9566800594329834,-2.404958724975586
1403637131573319000,0.022330868989229202,0.022479042410850525,0.12059866636991501,9.388222694396973,-0.6502808332443237,-2.4716274738311768
1403637131578319000,0.01107670646160841,0.026110440492630005,0.12140713632106781,9.462281227111816,-0.3749083876609802,-2.5218827724456787
1403637131583319000,-0.0008399905636906624,0.02043728530406952,0.12916482985019684,9.387866020202637,-0.25922390818595886,-2.46574330329895
1403637131588319000,-0.018107187002897263,0.020905256271362305,0.12373244017362595,9.510512351989746,-0.33278095722198486,-2.43302321434021
1403637131593319000,-0.023399915546178818,0.013184532523155212,0.11043087393045425,9.535795211791992,-0.6640210747718811,-2.2998294830322266
1403637131598319000,-0.012398389168083668,0.00968201458454132,0.09161565452814102,9.642523765563965,-0.9148315787315369,-2.289764165878296
1403637131603319000,0.006929653696715832,0.015886932611465454,0.08458420634269714,9.570940017700195,-0.9985297322273254,-2.2970969676971436
1403637131608319000,0.022937152534723282,0.02365417778491974,0.07921478897333145,9.61195182800293,-0.8349716663360596,-2.355846405029297
1403637131613319000,0.030758265405893326,0.021109700202941895,0.0826353207230568,9.455617904663086,-0.5484053492546082,-2.424445152282715
1403637131618319000,0.025955040007829666,0.025425538420677185,0.0756354033946991,9.44638442993164,-0.2981001138687134,-2.433551073074341
1403637131623319000,0.0063239214941859245,0.019065678119659424,0.07128087431192398,9.331503868103027,-0.36314234137535095,-2.449568033218384
1403637131628319000,-0.007962447591125965,0.018982574343681335,0.06163417920470238,9.372237205505371,-0.47672319412231445,-2.4826080799102783
1403637131633319000,-0.009360668249428272,0.01761297881603241,0.06100103631615639,9.380838394165039,-0.7063983082771301,-2.449201822280884
1403637131638319000,-0.00456607062369585,0.01889301836490631,0.058231670409440994,9.438159942626953,-0.8517103791236877,-2.5307376384735107
1403637131643319000,0.005292284302413464,0.015947431325912476,0.05917579308152199,9.36489486694336,-0.9312044382095337,-2.4897518157958984
1403637131648319000,0.014148804359138012,0.02310970425605774,0.06116722151637077,9.40529727935791,-0.7428962588310242,-2.563882827758789
1403637131653319000,0.016804266721010208,0.01972566545009613,0.06688220053911209,9.422319412231445,-0.5775378942489624,-2.555647850036621
1403637131658319000,0.009455922059714794,0.018983304500579834,0.06852944195270538,9.478996276855469,-0.46283766627311707,-2.5560848712921143
1403637131663319000,0.0023749498650431633,0.014738261699676514,0.0755801871418953,9.39749526977539,-0.4007953703403473,-2.4736554622650146
1403637131668319000,-0.00861929077655077,0.015372127294540405,0.0770370289683342,9.291041374206543,-0.5075121521949768,-2.4079065322875977
1403637131673319000,-0.009549868293106556,0.0034936070442199707,0.08104149252176285,9.429078102111816,-0.5491958260536194,-2.4162001609802246
1403637131678319000,-0.011749533005058765,0.01812557876110077,0.08104325085878372,9.527731895446777,-0.5507460832595825,-2.465614080429077
1403637131683319000,-0.011648205108940601,0.020976155996322632,0.08106759935617447,9.585783958435059,-0.5492870807647705,-2.474766969680786
1403637131688319000,-0.013241571374237537,0.031621500849723816,0.07765022665262222,9.553186416625977,-0.5548830032348633,-2.4995803833007812
1403637131693319000,-0.012553867883980274,0.03214848041534424,0.07966969162225723,9.487977981567383,-0.5870294570922852,-2.465787887573242
1403637131698319000,-0.012400072999298573,0.03489145636558533,0.07289311289787292,9.429681777954102,-0.5713849663734436,-2.4405155181884766
1403637131703319000,-0.011663598008453846,0.026602283120155334,0.06455157697200775,9.34760570526123,-0.5146916508674622,-2.456744432449341
1403637131708319000,-0.01302098948508501,0.023207902908325195,0.0609646700322628,9.33955192565918,-0.47608739137649536,-2.4653544425964355
1403637131713319000,-0.013730105943977833,0.01555238664150238,0.056152161210775375,9.470376968383789,-0.5258558988571167,-2.4899699687957764
1403637131718319000,-0.019130926579236984,0.021953612565994263,0.04921506717801094,9.46297836303711,-0.6303064823150635,-2.4818475246429443
1403637131723319000,-0.02091902121901512,0.019856855273246765,0.04972969368100166,9.463301658630371,-0.7363661527633667,-2.432992458343506
1403637131728319000,-0.017204847186803818,0.021243765950202942,0.05120110884308815,9.29992961883545,-0.8089567422866821,-2.3669495582580566
1403637131733319000,-0.010041606612503529,0.014051973819732666,0.05256979539990425,9.405760765075684,-0.7759895920753479,-2.3749942779541016
1403637131738319000,-0.006906297989189625,0.01951420307159424,0.06078314408659935,9.422314643859863,-0.7600584626197815,-2.390746831893921
1403637131743319000,-0.00968074519187212,0.018143892288208008,0.06097530201077461,9.52885627746582,-0.671899139881134,-2.407050848007202
1403637131748319000,-0.009529960341751575,0.025198325514793396,0.07263350486755371,9.446586608886719,-0.6294942498207092,-2.4895195960998535
1403637131753319000,-0.01489169616252184,0.02712726593017578,0.07533131539821625,9.50338077545166,-0.6462557315826416,-2.538606882095337
1403637131758319000,-0.01853441819548607,0.0348648726940155,0.07890722155570984,9.429666519165039,-0.8426079154014587,-2.554814577102661
1403637131763319000,-0.01031715888530016,0.03916293382644653,0.07949940860271454,9.488049507141113,-1.078364610671997,-2.4959731101989746
1403637131768319000,-0.0020689191296696663,0.03568845987319946,0.0849905014038086,9.1539945602417,-1.1288800239562988,-2.1902308464050293
1403637131773319000,0.014181721024215221,0.009653136134147644,0.09435222297906876,9.128836631774902,-0.9994552731513977,-2.2489633560180664
1403637131778319000,0.025682497769594193,0.00196249783039093,0.10833089798688889,9.291101455688477,-0.7949551343917847,-2.3478071689605713
1403637131783319000,0.01877567544579506,-0.0027878880500793457,0.1055811420083046,9.575838088989258,-0.5099549889564514,-2.5310659408569336
1403637131788319000,0.012166830711066723,0.012751713395118713,0.10968383401632309,9.608174324035645,-0.37203681468963623,-2.5393450260162354
1403637131793319000,0.0026515601202845573,0.023157551884651184,0.11037878692150116,9.698751449584961,-0.34780627489089966,-2.5059666633605957
1403637131798319000,-0.012669694609940052,0.032805368304252625,0.10978889465332031,9.487167358398438,-0.39670518040657043,-2.473599672317505
1403637131803319000,-0.015339297242462635,0.03554357588291168,0.11124187707901001,9.576602935791016,-0.4783923327922821,-2.4563074111938477
1403637131808319000,-0.013076615519821644,0.03899112343788147,0.11093386262655258,9.404590606689453,-0.6311933398246765,-2.4642140865325928
1403637131813319000,-0.008082670159637928,0.03541664779186249,0.0992027148604393,9.363999366760254,-0.6548245549201965,-2.440234899520874
1403637131818319000,-0.001837027259171009,0.02160833775997162,0.0874556377530098,9.22577953338623,-0.637071967124939,-2.3909738063812256
1403637131823319000,0.00606160145252943,0.011376053094863892,0.07235636562108994,9.389920234680176,-0.588224470615387,-2.4155027866363525
1403637131828319000,0.0052327243611216545,0.008154034614562988,0.06628531217575073,9.267834663391113,-0.4264213740825653,-2.3757147789001465
1403637131833319000,6.018858402967453e-05,0.001925632357597351,0.055666159838438034,9.53606128692627,-0.3129850924015045,-2.4577183723449707
1403637131838319000,-0.008935135789215565,0.004514947533607483,0.05324440822005272,9.536348342895508,-0.362239271402359,-2.473780632019043
1403637131843319000,-0.014763069339096546,0.011235177516937256,0.051211126148700714,9.66683578491211,-0.3459410071372986,-2.514752149581909
1403637131848319000,-0.02208651229739189,0.020255520939826965,0.05371860787272453,9.584861755371094,-0.4989375174045563,-2.5064592361450195
1403637131853319000,-0.025544505566358566,0.02979332208633423,0.056572284549474716,9.617673873901367,-0.6193745732307434,-2.5639069080352783
1403637131858319000,-0.022586699575185776,0.0394873172044754,0.060788918286561966,9.470292091369629,-0.7646331787109375,-2.5648810863494873
1403637131863319000,-0.016596462577581406,0.04460865259170532,0.06198899820446968,9.38138198852539,-0.8784034252166748,-2.5313401222229004
1403637131868319000,-0.01239634770900011,0.03867615759372711,0.07093698531389236,9.137717247009277,-0.8542757034301758,-2.473194122314453
1403637131873319000,-0.005495202727615833,0.024818286299705505,0.0788663774728775,9.160807609558105,-0.6602696776390076,-2.424351930618286
1403637131878319000,-0.00821214634925127,0.007891163229942322,0.08521828800439835,9.136002540588379,-0.5887295603752136,-2.399341583251953
1403637131883319000,-0.014644009061157703,-0.0013503283262252808,0.08597680181264877,9.470025062561035,-0.492162823677063,-2.4491612911224365
1403637131888319000,-0.020705323666334152,0.004216983914375305,0.07972770184278488,9.486631393432617,-0.6463788747787476,-2.399684429168701
1403637131893319000,-0.015464466996490955,0.006296709179878235,0.07561133801937103,9.674736022949219,-0.7047542929649353,-2.489466667175293
1403637131898319000,-0.008337345905601978,0.020036950707435608,0.0817638412117958,9.626843452453613,-0.8435431122779846,-2.4068217277526855
1403637131903319000,-0.0015333564952015877,0.027690082788467407,0.08187285810709,9.626935005187988,-0.8260819911956787,-2.415261745452881
1403637131908319000,0.006251993589103222,0.03831714391708374,0.08862705528736115,9.479618072509766,-0.7535462975502014,-2.4311084747314453
1403637131913319000,0.0031897304579615593,0.039776042103767395,0.08645603805780411,9.4868803024292,-0.6876229643821716,-2.479376792907715
1403637131918319000,-0.0004490287974476814,0.03971832990646362,0.09214463084936142,9.208802223205566,-0.6699772477149963,-2.4472920894622803
1403637131923319000,0.0010510412976145744,0.025179624557495117,0.0931178405880928,9.290492057800293,-0.6482397317886353,-2.4804770946502686
1403637131928319000,0.0003460971638560295,0.018298909068107605,0.09243270009756088,9.282672882080078,-0.665051281452179,-2.4806418418884277
1403637131933319000,-0.0034164609387516975,0.012767389416694641,0.08964432775974274,9.380309104919434,-0.591859757900238,-2.4896209239959717
1403637131938319000,-0.0033076824620366096,0.011378243565559387,0.08526188880205154,9.307324409484863,-0.6417654156684875,-2.4646053314208984
1403637131943319000,-0.0014096768572926521,0.014073729515075684,0.0776292160153389,9.503429412841797,-0.6155540943145752,-2.4647653102874756
1403637131948319000,-0.0011383863165974617,0.015371009707450867,0.06601759046316147,9.430327415466309,-0.6867647171020508,-2.45674204826355
1403637131953319000,0.0033984659239649773,0.0180882066488266,0.06179479882121086,9.56043815612793,-0.6389404535293579,-2.4563682079315186
1403637131958319000,0.006474423222243786,0.021614566445350647,0.06377238780260086,9.364837646484375,-0.6130433678627014,-2.4158096313476562
1403637131963319000,0.00870234053581953,0.016830652952194214,0.060393255203962326,9.528278350830078,-0.5249106287956238,-2.399228811264038
1403637131968319000,0.0016817925497889519,0.01978723704814911,0.05883532017469406,9.471939086914062,-0.5343074798583984,-2.2924461364746094
1403637131973319000,-0.0016198428347706795,0.014306679368019104,0.05543278530240059,9.423705101013184,-0.5410065054893494,-2.2680552005767822
1403637131978319000,-0.004526671953499317,0.005172595381736755,0.05679205060005188,9.349957466125488,-0.6475113034248352,-2.219130754470825
1403637131983319000,-0.0053794654086232185,0.0022370219230651855,0.04925534501671791,9.58619499206543,-0.6310335993766785,-2.3007547855377197
1403637131988319000,-0.006111246533691883,0.009185656905174255,0.043027374893426895,9.570244789123535,-0.5082260966300964,-2.3757448196411133
1403637131993319000,-0.010855329222977161,0.01682688295841217,0.040089163929224014,9.634844779968262,-0.4340437948703766,-2.4418752193450928
1403637131998319000,-0.017937060445547104,0.02937018871307373,0.04952826723456383,9.414965629577637,-0.4981495141983032,-2.458832263946533
1403637132003319000,-0.01921847090125084,0.03692425787448883,0.052409835159778595,9.528403282165527,-0.5472860336303711,-2.516058921813965
1403637132008319000,-0.019815128296613693,0.03899107873439789,0.05790787935256958,9.420735359191895,-0.6927414536476135,-2.6548759937286377
1403637132013319000,-0.016549285501241684,0.04547743499279022,0.05715275928378105,9.37214183807373,-0.7099230885505676,-2.670727014541626
1403637132018319000,-0.013005432672798634,0.034503281116485596,0.05929616466164589,9.135965347290039,-0.7351624369621277,-2.5561161041259766
1403637132023319000,-0.011253011412918568,0.021133750677108765,0.06581652909517288,9.28180980682373,-0.6617502570152283,-2.5966856479644775
1403637132028319000,-0.009607774205505848,0.011396601796150208,0.0701160877943039,9.111504554748535,-0.6368993520736694,-2.5554280281066895
1403637132033319000,-0.017420705407857895,0.0016074925661087036,0.07144830375909805,9.315336227416992,-0.6365829110145569,-2.515101671218872
1403637132038319000,-0.01680343970656395,-0.0026821643114089966,0.07397501915693283,9.299466133117676,-0.7672708034515381,-2.4245193004608154
1403637132043319000,-0.016547542065382004,-0.0007482469081878662,0.08100713044404984,9.536565780639648,-0.745019257068634,-2.374166250228882
1403637132048319000,-0.008442220278084278,0.004718706011772156,0.08957342803478241,9.585771560668945,-0.7628660202026367,-2.2992475032806396
1403637132053319000,-0.003975865431129932,0.01043383777141571,0.08757578581571579,9.709150314331055,-0.6823477149009705,-2.2744224071502686
1403637132058319000,0.0008126674219965935,0.01808801293373108,0.09086783975362778,9.594379425048828,-0.6247619986534119,-2.2836644649505615
1403637132063319000,-0.00261902529746294,0.028521522879600525,0.07915487140417099,9.683164596557617,-0.5505111217498779,-2.3497087955474854
1403637132068319000,-0.006519955582916737,0.03989088535308838,0.08181442320346832,9.536951065063477,-0.4607657790184021,-2.4080395698547363
1403637132073319000,-0.01365023571997881,0.040079548954963684,0.07510660588741302,9.528630256652832,-0.4355422258377075,-2.449260950088501
1403637132078319000,-0.017703186720609665,0.03931114077568054,0.07505138963460922,9.291219711303711,-0.5085380673408508,-2.40834379196167
1403637132083319000,-0.017200719565153122,0.02952079474925995,0.07204055786132812,9.364327430725098,-0.6638461351394653,-2.4155948162078857
1403637132088319000,-0.009743434377014637,0.02666965126991272,0.07054147869348526,9.291029930114746,-0.8011881709098816,-2.4149646759033203
1403637132093319000,0.00024332385510206223,0.020447179675102234,0.06866100430488586,9.348249435424805,-0.7285563945770264,-2.448341131210327
1403637132098319000,0.005454647354781628,0.014177784323692322,0.0707622542977333,9.307686805725098,-0.6640074849128723,-2.440351963043213
1403637132103319000,0.005851182155311108,0.010566845536231995,0.06252650916576385,9.511136054992676,-0.4594602584838867,-2.473588705062866
1403637132108319000,-0.003360760398209095,0.007141873240470886,0.06447365134954453,9.446640014648438,-0.4101743698120117,-2.4411234855651855
1403637132113319000,-0.012729492969810963,0.011445596814155579,0.05960960313677788,9.634347915649414,-0.313236266374588,-2.472975492477417
1403637132118319000,-0.02120773121714592,0.019678622484207153,0.06646107882261276,9.528240203857422,-0.3047284781932831,-2.43259334564209
1403637132123319000,-0.03486406430602074,0.025949671864509583,0.058320265263319016,9.58610725402832,-0.27206212282180786,-2.473762035369873
1403637132128319000,-0.04144611582159996,0.027989298105239868,0.055890921503305435,9.51280403137207,-0.49045541882514954,-2.4819047451019287
1403637132133319000,-0.04066899046301842,0.03346674144268036,0.05107671767473221,9.520854949951172,-0.69221431016922,-2.5073368549346924
1403637132138319000,-0.03054177388548851,0.03422771394252777,0.051000166684389114,9.39855670928955,-0.9367298483848572,-2.4900200366973877
1403637132143319000,-0.01871706172823906,0.03565412759780884,0.049629952758550644,9.422626495361328,-1.0179694890975952,-2.5388689041137695
1403637132148319000,-0.005735454149544239,0.03775408864021301,0.06273520737886429,9.283980369567871,-1.019112467765808,-2.563316583633423
1403637132153319000,-0.0028427662327885628,0.03566589951515198,0.07110371440649033,9.315768241882324,-0.8664173483848572,-2.596914291381836
1403637132158319000,0.0006520925089716911,0.027953386306762695,0.08836834877729416,9.037982940673828,-0.9556826949119568,-2.5130112171173096
1403637132163319000,0.006090897135436535,0.017389655113220215,0.10044527798891068,9.208295822143555,-0.9164371490478516,-2.496166944503784
1403637132168319000,0.009747358970344067,0.0103292316198349,0.11233916133642197,9.191744804382324,-0.8925216197967529,-2.4876925945281982
1403637132173319000,0.012415173463523388,0.004155218601226807,0.1187092661857605,9.461078643798828,-0.7389633059501648,-2.4636073112487793
1403637132178319000,0.012499737553298473,0.00766967236995697,0.12418002635240555,9.49421501159668,-0.6656993627548218,-2.3815643787384033
1403637132183319000,0.010791364125907421,0.0062590837478637695,0.12231957167387009,9.641608238220215,-0.5755555033683777,-2.3650097846984863
1403637132188319000,0.010068747214972973,0.015297263860702515,0.11742895096540451,9.577130317687988,-0.542343020439148,-2.290883779525757
1403637132193319000,0.010249662213027477,0.022324487566947937,0.10977334529161453,9.634735107421875,-0.49283266067504883,-2.3072965145111084
1403637132198319000,0.01348991971462965,0.023739397525787354,0.10227978974580765,9.512267112731934,-0.5338736176490784,-2.299139976501465
1403637132203319000,0.01584099605679512,0.02866216003894806,0.09535397589206696,9.667265892028809,-0.3401457369327545,-2.414670467376709
1403637132208319000,0.005155655555427074,0.03562691807746887,0.08344154059886932,9.561407089233398,-0.3071673512458801,-2.4729764461517334
1403637132213319000,0.0017883507534861565,0.036514684557914734,0.07097149640321732,9.5366849899292,-0.29044294357299805,-2.4980530738830566
1403637132218319000,-0.009356779046356678,0.03452937304973602,0.06308197230100632,9.308032035827637,-0.2980865240097046,-2.5233185291290283
1403637132223319000,-0.014491421170532703,0.026122644543647766,0.05408487096428871,9.35628604888916,-0.3125418722629547,-2.531315803527832
1403637132228319000,-0.023205023258924484,0.0219641774892807,0.044989846646785736,9.298928260803223,-0.4586118161678314,-2.5805823802948
1403637132233319000,-0.026226621121168137,0.01996093988418579,0.03720303252339363,9.405120849609375,-0.5072281360626221,-2.564230442047119
1403637132238319000,-0.025393661111593246,0.018500983715057373,0.03220059350132942,9.31556224822998,-0.611237108707428,-2.5319113731384277
1403637132243319000,-0.021870192140340805,0.016884639859199524,0.032851699739694595,9.396885871887207,-0.7498214840888977,-2.5477588176727295
1403637132248319000,-0.015292507596313953,0.014087170362472534,0.04178870841860771,9.242722511291504,-0.9374672770500183,-2.424211263656616
1403637132253319000,-0.008073327131569386,0.010619282722473145,0.04256574064493179,9.374443054199219,-1.0600340366363525,-2.2920849323272705
1403637132258319000,0.002613249234855175,0.008491560816764832,0.054878342896699905,9.326346397399902,-1.1195377111434937,-2.2499849796295166
1403637132263319000,0.013053211383521557,0.0020967721939086914,0.07369551062583923,9.529845237731934,-0.9421446919441223,-2.2662129402160645
1403637132268319000,0.0147507069632411,0.007562100887298584,0.09139632433652878,9.505231857299805,-0.7943111062049866,-2.2835912704467773
1403637132273319000,0.007396089844405651,0.010486006736755371,0.09508722275495529,9.611018180847168,-0.6077204942703247,-2.2681102752685547
1403637132278319000,0.003123539499938488,0.013255149126052856,0.10326229780912399,9.553118705749512,-0.5337668657302856,-2.2933971881866455
1403637132283319000,-0.002042737789452076,0.022863849997520447,0.10201866179704666,9.634571075439453,-0.5251720547676086,-2.350128412246704
1403637132288319000,0.00031331460922956467,0.02576538920402527,0.09861775487661362,9.552986145019531,-0.5897799730300903,-2.3831193447113037
1403637132293319000,0.0021902350708842278,0.03141830861568451,0.0910162702202797,9.585318565368652,-0.5322751402854919,-2.5315752029418945
1403637132298319000,0.005618336610496044,0.03981021046638489,0.08618195354938507,9.413117408752441,-0.4520360231399536,-2.5726685523986816
1403637132303319000,-0.002431062050163746,0.04062741994857788,0.07627945393323898,9.387466430664062,-0.3450433611869812,-2.6382548809051514
1403637132308319000,-0.013002348132431507,0.03786854445934296,0.0760989561676979,9.207956314086914,-0.336228609085083,-2.638033628463745
1403637132313319000,-0.016335543245077133,0.02679172158241272,0.07305186986923218,9.232610702514648,-0.394948273897171,-2.5807878971099854
1403637132318319000,-0.022679965943098068,0.023260653018951416,0.0756702721118927,9.167949676513672,-0.6630429625511169,-2.5307705402374268
1403637132323319000,-0.02230900153517723,0.009933024644851685,0.07749197632074356,9.404664993286133,-0.8267754912376404,-2.5296621322631836
1403637132328319000,-0.01250911969691515,0.00708027184009552,0.08377590030431747,9.364757537841797,-0.9520120024681091,-2.4220681190490723
1403637132333319000,-0.004847300238907337,0.007617339491844177,0.09212129563093185,9.50348949432373,-0.9847937226295471,-2.396160125732422
1403637132338319000,0.00408403854817152,0.011097192764282227,0.10034020990133286,9.47916316986084,-0.942626416683197,-2.329901695251465
1403637132343319000,0.01138343196362257,0.012503772974014282,0.110199473798275,9.64274787902832,-0.7721918821334839,-2.355470657348633
1403637132348319000,0.010590779595077038,0.02152933180332184,0.11442535370588303,9.602283477783203,-0.6489177346229553,-2.3236734867095947
1403637132353319000,0.004062655381858349,0.025124534964561462,0.11718495935201645,9.577834129333496,-0.5582709312438965,-2.308678388595581
1403637132358319000,0.0036569563671946526,0.03350403904914856,0.1214713528752327,9.463066101074219,-0.566868245601654,-2.2838408946990967
1403637132363319000,0.00871973019093275,0.02998991310596466,0.11878780275583267,9.535396575927734,-0.6224889755249023,-2.390108585357666
1403637132368319000,0.008629667572677135,0.034836798906326294,0.11657404154539108,9.421106338500977,-0.6701331734657288,-2.456101894378662
1403637132373319000,0.016500208526849747,0.03765606880187988,0.11109436303377151,9.477916717529297,-0.5480605363845825,-2.5555388927459717
1403637132378319000,0.01355482917279005,0.03721633553504944,0.11247066408395767,9.290026664733887,-0.3842000663280487,-2.5891709327697754
1403637132383319000,0.007049339823424816,0.03162117302417755,0.10765034705400467,9.313873291015625,-0.27786949276924133,-2.679466485977173
1403637132388319000,-0.0005505653098225594,0.026591122150421143,0.1020956039428711,9.305569648742676,-0.3274362087249756,-2.6219496726989746
1403637132393319000,-0.008733701892197132,0.023129448294639587,0.08475816994905472,9.330589294433594,-0.38496133685112,-2.564148187637329
1403637132398319000,-0.012390580959618092,0.012095078825950623,0.0721576139330864,9.225142478942871,-0.4507442116737366,-2.481321334838867
1403637132403319000,-0.012945380993187428,0.005017116665840149,0.06520742923021317,9.405043601989746,-0.47683829069137573,-2.4485487937927246
1403637132408319000,-0.014571276493370533,0.004269838333129883,0.0604340024292469,9.439040184020996,-0.5338664650917053,-2.390803337097168
1403637132413319000,-0.018414851278066635,0.0016374588012695312,0.052708949893713,9.54556941986084,-0.4671888053417206,-2.3498787879943848
1403637132418319000,-0.01804676279425621,0.006564915180206299,0.04412279650568962,9.554149627685547,-0.5237952470779419,-2.2680511474609375
1403637132423319000,-0.013884511776268482,0.010518431663513184,0.03646939992904663,9.66011905670166,-0.6698020100593567,-2.316378355026245
1403637132428319000,-0.013412770815193653,0.023754894733428955,0.035829659551382065,9.65224838256836,-0.710656464099884,-2.300184488296509
1403637132433319000,-0.015362483449280262,0.030784115195274353,0.03595363348722458,9.668374061584473,-0.6708638072013855,-2.3751442432403564
1403637132438319000,-0.01689448580145836,0.037058427929878235,0.044786881655454636,9.45605754852295,-0.6301201581954956,-2.4170706272125244
1403637132443319000,-0.019260000437498093,0.03630433976650238,0.04600239917635918,9.438773155212402,-0.6692619919776917,-2.4504904747009277
1403637132448319000,-0.01862787827849388,0.03495261073112488,0.055528249591588974,9.291770935058594,-0.7905096411705017,-2.4832613468170166
1403637132453319000,-0.01520396489650011,0.023982852697372437,0.060044724494218826,9.25890064239502,-0.7750312089920044,-2.4663922786712646
1403637132458319000,-0.012644258327782154,0.02049991488456726,0.06507562100887299,9.193035125732422,-0.7666513323783875,-2.4253296852111816
1403637132463319000,-0.0015722932294011116,0.0071135759353637695,0.07062780112028122,9.299084663391113,-0.7917652130126953,-2.4490716457366943
1403637132468319000,0.0019792793318629265,0.008448034524917603,0.07615996152162552,9.363992691040039,-0.7202641367912292,-2.490007162094116
1403637132473319000,0.0021064458414912224,0.00914350152015686,0.07827756553888321,9.477972030639648,-0.6471477150917053,-2.5224592685699463
1403637132478319000,7.652025669813156e-05,0.017403706908226013,0.08171530067920685,9.413599014282227,-0.6956089735031128,-2.4810287952423096
1403637132483319000,-0.0033696116879582405,0.012372255325317383,0.08806359022855759,9.52751636505127,-0.6809865236282349,-2.447615623474121
1403637132488319000,-0.006692555733025074,0.02279186248779297,0.09365007281303406,9.471073150634766,-0.7871456742286682,-2.414400815963745
1403637132493319000,-0.0005551548674702644,0.020127341151237488,0.09996015578508377,9.447465896606445,-0.7476203441619873,-2.3071553707122803
1403637132498319000,0.004936861805617809,0.02094458043575287,0.10142294317483902,9.41434383392334,-0.6583616137504578,-2.2911465167999268
1403637132503319000,0.009900915436446667,0.016087129712104797,0.10427757352590561,9.512115478515625,-0.6007435917854309,-2.315544843673706
1403637132508319000,0.00991750042885542,0.016889795660972595,0.09110759943723679,9.53668212890625,-0.4868934154510498,-2.415492534637451
1403637132513319000,0.0002998737618327141,0.01836550235748291,0.08001159876585007,9.528250694274902,-0.4607178866863251,-2.4401872158050537
1403637132518319000,-0.0064347656443715096,0.019179120659828186,0.06900270283222198,9.430865287780762,-0.41084393858909607,-2.367583990097046
1403637132523319000,-0.010210362263023853,0.013389810919761658,0.06262645870447159,9.389334678649902,-0.4442446529865265,-2.37600040435791
1403637132528319000,-0.011435029096901417,0.018235549330711365,0.05834243819117546,9.511337280273438,-0.46781280636787415,-2.408517599105835
1403637132533319000,-0.010187503881752491,0.016903147101402283,0.06164947524666786,9.511552810668945,-0.47511935234069824,-2.4415297508239746
1403637132538319000,-0.012305867858231068,0.022606506943702698,0.051236625760793686,9.471077919006348,-0.41019687056541443,-2.4336161613464355
1403637132543319000,-0.016500171273946762,0.019029736518859863,0.048344213515520096,9.470648765563965,-0.42507103085517883,-2.449753522872925
1403637132548319000,-0.0204511396586895,0.022550582885742188,0.038073986768722534,9.504171371459961,-0.490205854177475,-2.4496874809265137
1403637132553319000,-0.018709253519773483,0.02681805193424225,0.030486442148685455,9.520015716552734,-0.4984804391860962,-2.498487710952759
1403637132558319000,-0.025329243391752243,0.026229530572891235,0.026118934154510498,9.454994201660156,-0.5626794695854187,-2.515345573425293
1403637132563319000,-0.0221506766974926,0.025944441556930542,0.024426398798823357,9.38969898223877,-0.7433055639266968,-2.548078775405884
1403637132568319000,-0.022773247212171555,0.027955517172813416,0.03415462747216225,9.33267593383789,-0.7835001349449158,-2.5232796669006348
1403637132573319000,-0.01447134930640459,0.02385994791984558,0.048655588179826736,9.284016609191895,-0.847377598285675,-2.5145280361175537
1403637132578319000,-0.013883066363632679,0.022443711757659912,0.05583297461271286,9.340785026550293,-0.7274562120437622,-2.4985055923461914
1403637132583319000,-0.011228484101593494,0.015367850661277771,0.06636033207178116,9.315827369689941,-0.7585223317146301,-2.4985530376434326
1403637132588319000,-0.011846703477203846,0.014001443982124329,0.07328352332115173,9.397653579711914,-0.7586750984191895,-2.506645441055298
1403637132593319000,-0.012476828880608082,0.01057790219783783,0.07621962577104568,9.446789741516113,-0.7446452975273132,-2.3832244873046875
1403637132598319000,-0.010458809323608875,0.010616093873977661,0.08124317973852158,9.454668998718262,-0.7280290722846985,-2.333346128463745
1403637132603319000,-0.00886466819792986,0.009716257452964783,0.08250565081834793,9.43794059753418,-0.7291668057441711,-2.3079469203948975
1403637132608319000,-0.009606418199837208,0.010394260287284851,0.0770154520869255,9.576692581176758,-0.7054308652877808,-2.3824520111083984
1403637132613319000,-0.0021713795140385628,0.012545093894004822,0.08245768398046494,9.560806274414062,-0.6966431736946106,-2.4071178436279297
1403637132618319000,-0.0009011747315526009,0.027159646153450012,0.08667724579572678,9.618133544921875,-0.6808910369873047,-2.4644041061401367
1403637132623319000,0.0005074469372630119,0.03134450316429138,0.09312362968921661,9.454482078552246,-0.6643043756484985,-2.456073760986328
1403637132628319000,0.003221440128982067,0.036244601011276245,0.09435661882162094,9.429861068725586,-0.6159383058547974,-2.4229912757873535
1403637132633319000,0.003388124518096447,0.032035380601882935,0.09630852192640305,9.388359069824219,-0.7059294581413269,-2.4881250858306885
1403637132638319000,0.00047114770859479904,0.03425407409667969,0.09099946916103363,9.396766662597656,-0.7139917016029358,-2.471430540084839
1403637132643319000,0.0015803603455424309,0.02730397880077362,0.09577859193086624,9.28238582611084,-0.6812599301338196,-2.4386656284332275
1403637132648319000,0.0009291497990489006,0.021747425198554993,0.1007707491517067,9.37209415435791,-0.6901513338088989,-2.4716272354125977
1403637132653319000,-0.002451312728226185,0.016065791249275208,0.11183687299489975,9.33945369720459,-0.7131778597831726,-2.4387567043304443
1403637132658319000,-0.003391963429749012,0.013972297310829163,0.11498873680830002,9.469754219055176,-0.7373515963554382,-2.4632372856140137
1403637132663319000,0.0015707938000559807,0.015378490090370178,0.12331981211900711,9.428943634033203,-0.7548953294754028,-2.405027389526367
1403637132668319000,0.006605791859328747,0.01668637990951538,0.12979796528816223,9.5599365234375,-0.7053824067115784,-2.4381704330444336
1403637132673319000,0.009069937281310558,0.024964764714241028,0.12985455989837646,9.470341682434082,-0.6159400939941406,-2.3977997303009033
1403637132678319000,0.008044603280723095,0.02929823100566864,0.11754090338945389,9.535704612731934,-0.4688856899738312,-2.4891743659973145
1403637132683319000,0.0023453114554286003,0.03142571449279785,0.10703320056200027,9.396886825561523,-0.4267670512199402,-2.506385326385498
1403637132688319000,-0.00310711283236742,0.03357414901256561,0.09305604547262192,9.50289249420166,-0.3209388256072998,-2.5316905975341797
1403637132693319000,-0.005345490761101246,0.03146129846572876,0.08539118617773056,9.38901138305664,-0.40853503346443176,-2.547830820083618
1403637132698319000,-0.006678936071693897,0.02535507082939148,0.07643043994903564,9.422294616699219,-0.49762773513793945,-2.5232439041137695
1403637132703319000,-0.001443442888557911,0.024000808596611023,0.07066214829683304,9.299633979797363,-0.5879348516464233,-2.457426071166992
1403637132708319000,0.002156364731490612,0.016973689198493958,0.058786649256944656,9.438133239746094,-0.6119272112846375,-2.5067081451416016
1403637132713319000,-0.0005673589184880257,0.015468835830688477,0.06072046235203743,9.445871353149414,-0.677086353302002,-2.5311367511749268
1403637132718319000,-0.0012573720887303352,0.016865745186805725,0.06301841884851456,9.478680610656738,-0.6862795948982239,-2.4983575344085693
1403637132723319000,9.174924343824387e-05,0.013302072882652283,0.07954557985067368,9.389504432678223,-0.7848636507987976,-2.3822710514068604
1403637132728319000,-0.0026178481057286263,0.018043652176856995,0.09185811132192612,9.470595359802246,-0.801397442817688,-2.3821678161621094
1403637132733319000,-0.000589725561439991,0.017327353358268738,0.11189436167478561,9.429787635803223,-0.8198249936103821,-2.282602310180664
1403637132738319000,0.0015154806897044182,0.019434109330177307,0.12109056860208511,9.535992622375488,-0.7882639765739441,-2.2982664108276367
1403637132743319000,0.00018900912255048752,0.022952094674110413,0.12267286330461502,9.45444107055664,-0.7056851387023926,-2.274648427963257
1403637132748319000,-0.0004389556124806404,0.01960955560207367,0.11396796256303787,9.585455894470215,-0.5268553495407104,-2.291921615600586
1403637132753319000,0.00564179103821516,0.023776188492774963,0.10495826601982117,9.52872085571289,-0.48473331332206726,-2.3169424533843994
1403637132758319000,-0.0016436250880360603,0.022499889135360718,0.09109001606702805,9.635027885437012,-0.353307843208313,-2.3590426445007324
1403637132763319000,-0.004106161184608936,0.02392040193080902,0.07717008888721466,9.528831481933594,-0.295274555683136,-2.4008595943450928
1403637132768319000,-0.007383001036942005,0.027350276708602905,0.06115406006574631,9.626443862915039,-0.31168118119239807,-2.4823520183563232
1403637132773319000,-0.0121781500056386,0.03370562195777893,0.047097548842430115,9.479780197143555,-0.4168357253074646,-2.490882158279419
1403637132778319000,-0.016473393887281418,0.03370329737663269,0.04293495789170265,9.414518356323242,-0.45736515522003174,-2.4913551807403564
1403637132783319000,-0.013829615898430347,0.032313138246536255,0.04360518231987953,9.250776290893555,-0.5721951723098755,-2.474461078643799
1403637132788319000,-0.014405724592506886,0.026052623987197876,0.043585970997810364,9.331568717956543,-0.6126641631126404,-2.5564048290252686
1403637132793319000,-0.01243662554770708,0.023910731077194214,0.04190078750252724,9.31551742553711,-0.7593796849250793,-2.556398868560791
1403637132798319000,-0.012512517161667347,0.020503714680671692,0.041072994470596313,9.413667678833008,-0.8506672382354736,-2.5806169509887695
1403637132803319000,-0.011694160290062428,0.01906578242778778,0.04596102610230446,9.340935707092285,-0.9975345134735107,-2.506197214126587
1403637132808319000,0.0007745353505015373,0.011188894510269165,0.06133481487631798,9.503756523132324,-1.0150164365768433,-2.455322027206421
1403637132813319000,0.012946042232215405,0.011844545602798462,0.08225398510694504,9.365011215209961,-0.9018024802207947,-2.421980619430542
1403637132818319000,0.012801202945411205,0.011806830763816833,0.09758412092924118,9.429605484008789,-0.648037314414978,-2.4727373123168945
1403637132823319000,0.0014411238953471184,0.020879819989204407,0.1092764139175415,9.445693016052246,-0.48440271615982056,-2.4659502506256104
1403637132828319000,-0.008040306158363819,0.029191434383392334,0.11015305668115616,9.56799602508545,-0.48330163955688477,-2.5722553730010986
1403637132833319000,-0.011454206891357899,0.03476262092590332,0.11048407852649689,9.421260833740234,-0.4980891942977905,-2.5067625045776367
1403637132838319000,-0.01075033564120531,0.03347322344779968,0.10372278839349747,9.40546703338623,-0.5640426874160767,-2.367375373840332
1403637132843319000,-0.005606663413345814,0.03351351618766785,0.10224651545286179,9.339900970458984,-0.5891023874282837,-2.382871150970459
1403637132848319000,-0.0025631608441472054,0.022405773401260376,0.09729862958192825,9.412829399108887,-0.5478838682174683,-2.432063102722168
1403637132853319000,-0.007516798563301563,0.02604082226753235,0.08745472878217697,9.454570770263672,-0.4842444062232971,-2.400484323501587
1403637132858319000,-0.009541896171867847,0.02117672562599182,0.08399075269699097,9.536285400390625,-0.4602624177932739,-2.4410080909729004
1403637132863319000,-0.02105684205889702,0.0280865877866745,0.08889831602573395,9.487009048461914,-0.524891197681427,-2.3912477493286133
1403637132868319000,-0.022885527461767197,0.02868020534515381,0.09649274498224258,9.59233570098877,-0.5842516422271729,-2.406475305557251
1403637132873319000,-0.02263718470931053,0.0362657755613327,0.1025778204202652,9.560151100158691,-0.6997414827346802,-2.405574083328247
1403637132878319000,-0.016520898789167404,0.03901015222072601,0.10455261170864105,9.552051544189453,-0.7316612005233765,-2.4135947227478027
1403637132883319000,-0.012279716320335865,0.0446256548166275,0.10449831932783127,9.437865257263184,-0.7389606833457947,-2.463345527648926
1403637132888319000,-0.0074803950265049934,0.043979838490486145,0.09639697521924973,9.438178062438965,-0.624011218547821,-2.447129726409912
1403637132893319000,-0.0096091004088521,0.04201216995716095,0.08824831992387772,9.413741111755371,-0.5083714127540588,-2.440138578414917
1403637132898319000,-0.008668345399200916,0.03586694598197937,0.07931160181760788,9.340373039245605,-0.47400760650634766,-2.416257381439209
1403637132903319000,-0.013032299466431141,0.028988435864448547,0.06383779644966125,9.381274223327637,-0.46549442410469055,-2.416501522064209
1403637132908319000,-0.019878681749105453,0.02688978612422943,0.05120127275586128,9.398442268371582,-0.4248299300670624,-2.3846702575683594
1403637132913319000,-0.022674184292554855,0.014327362179756165,0.035345666110515594,9.35046672821045,-0.48125308752059937,-2.385382890701294
1403637132918319000,-0.024405714124441147,0.007803410291671753,0.03248128294944763,9.537116050720215,-0.6033762097358704,-2.3920505046844482
1403637132923319000,-0.023996081203222275,0.01613745093345642,0.03036116063594818,9.521072387695312,-0.7177858352661133,-2.359443426132202
1403637132928319000,-0.021659400314092636,0.020328164100646973,0.03714004158973694,9.496515274047852,-0.9061567187309265,-2.3428070545196533
1403637132933319000,-0.02207782492041588,0.02934408187866211,0.04733758792281151,9.472123146057129,-1.0369137525558472,-2.358619451522827
1403637132938319000,-0.00991919357329607,0.025061264634132385,0.06452849507331848,9.333563804626465,-1.1191221475601196,-2.3824994564056396
1403637132943319000,-0.005415645428001881,0.02774512767791748,0.0847381129860878,9.250965118408203,-1.0800646543502808,-2.398146152496338
1403637132948319000,-0.006450471468269825,0.021429240703582764,0.10846713930368423,9.217242240905762,-1.0722997188568115,-2.4785678386688232
1403637132953319000,-0.006714967079460621,0.022811278700828552,0.1280013918876648,9.355368614196777,-0.9584508538246155,-2.528271436691284
1403637132958319000,-0.008320075459778309,0.02260015904903412,0.14471319317817688,9.338096618652344,-0.9258382320404053,-2.5767314434051514
1403637132963319000,-0.005558830685913563,0.021222397685050964,0.16424256563186646,9.362200736999512,-0.9092997312545776,-2.551072835922241
1403637132968319000,-0.004759323783218861,0.007385373115539551,0.17491458356380463,9.288530349731445,-0.9008843898773193,-2.3955140113830566
1403637132973319000,0.0031193075701594353,-0.0010184943675994873,0.17380401492118835,9.338041305541992,-0.8280446529388428,-2.3302438259124756
1403637132978319000,0.00786751788109541,-0.009297624230384827,0.17040732502937317,9.387199401855469,-0.5837171673774719,-2.3481686115264893
1403637132983319000,0.006523224525153637,-0.013267725706100464,0.1567590832710266,9.52717399597168,-0.38836851716041565,-2.316749095916748
1403637132988319000,0.0002744225785136223,-0.022258251905441284,0.1368340104818344,9.543941497802734,-0.2490687519311905,-2.293203115463257
1403637132993319000,-0.008321878500282764,-0.018812596797943115,0.11312418431043625,9.650595664978027,-0.24012914299964905,-2.3582921028137207
1403637132998319000,-0.014566061086952686,-0.016834884881973267,0.10047426074743271,9.585941314697266,-0.31397488713264465,-2.275787591934204
1403637133003319000,-0.019627582281827927,-0.004806801676750183,0.08570338785648346,9.545001029968262,-0.39652058482170105,-2.29243803024292
1403637133008319000,-0.015942376106977463,-0.005576685070991516,0.08744683116674423,9.316861152648926,-0.5580647587776184,-2.2675511837005615
1403637133013319000,-0.010371697135269642,-0.002248033881187439,0.08468035608530045,9.373303413391113,-0.6398847103118896,-2.341374635696411
1403637133018319000,-0.007513967342674732,0.006816834211349487,0.08593087643384933,9.39705753326416,-0.6153985857963562,-2.4481539726257324
1403637133023319000,-0.00965533871203661,0.023067161440849304,0.08154121786355972,9.560060501098633,-0.5159383416175842,-2.629013776779175
1403637133028319000,-0.014046248979866505,0.03214821219444275,0.0787944570183754,9.477431297302246,-0.5311307311058044,-2.7114977836608887
1403637133033319000,-0.022653337568044662,0.04194103181362152,0.07469859719276428,9.412383079528809,-0.5315775871276855,-2.736196756362915
1403637133038319000,-0.023199256509542465,0.03855806589126587,0.06962019950151443,9.200825691223145,-0.6036477088928223,-2.686795234680176
1403637133043319000,-0.023363154381513596,0.030346810817718506,0.06474123895168304,9.102975845336914,-0.7078559994697571,-2.687013626098633
1403637133048319000,-0.018673773854970932,0.014865279197692871,0.06609304249286652,9.135403633117676,-0.8056411147117615,-2.7520058155059814
1403637133053319000,-0.004091245122253895,0.0035535097122192383,0.06270414590835571,9.510197639465332,-0.7968075275421143,-2.88358736038208
1403637133058319000,0.008986580185592175,0.007063016295433044,0.05659351870417595,9.674047470092773,-0.7397383451461792,-2.892274856567383
1403637133063319000,0.015628714114427567,0.01698528230190277,0.042235419154167175,9.959423065185547,-0.561288058757782,-2.9897947311401367
1403637133068319000,0.01847173646092415,0.04044544696807861,0.03236759826540947,10.122420310974121,-0.48854488134384155,-3.094346523284912
1403637133073319000,0.00980918388813734,0.06741669774055481,0.023387858644127846,10.130266189575195,-0.38413214683532715,-3.175745725631714
1403637133078319000,-0.0025342972949147224,0.09935452044010162,0.03070732206106186,9.860188484191895,-0.5467970967292786,-3.110283851623535
1403637133083319000,-0.0011751027777791023,0.1125236302614212,0.04232224449515343,9.663785934448242,-0.7990397810935974,-3.068931818008423
1403637133088319000,0.01230879407376051,0.11448390781879425,0.06835152208805084,9.289278030395508,-1.1243895292282104,-2.902841567993164
1403637133093319000,0.037164393812417984,0.10330365598201752,0.09611266106367111,9.240962028503418,-1.2873430252075195,-2.7603766918182373
1403637133098319000,0.06582452356815338,0.08768510818481445,0.11530867964029312,9.06988525390625,-1.1827268600463867,-2.6857528686523438
1403637133103319000,0.08348868787288666,0.07153700292110443,0.13383230566978455,9.232088088989258,-0.867146909236908,-2.6644437313079834
1403637133108319000,0.09002727270126343,0.06538902223110199,0.14516647160053253,9.312780380249023,-0.6725796461105347,-2.5993998050689697
1403637133113319000,0.08671987056732178,0.06178764998912811,0.1453411877155304,9.49283504486084,-0.633499026298523,-2.508711576461792
1403637133118319000,0.08617088198661804,0.05892042815685272,0.1536743938922882,9.459450721740723,-0.49626073241233826,-2.4029223918914795
1403637133123319000,0.08034124970436096,0.06493152678012848,0.15993115305900574,9.630996704101562,-0.4159567654132843,-2.3536038398742676
1403637133128319000,0.06123994663357735,0.06545725464820862,0.1573048233985901,9.443538665771484,-0.358585000038147,-2.347116231918335
1403637133133319000,0.048218656331300735,0.06206536293029785,0.14684659242630005,9.63269329071045,-0.26854509115219116,-2.3319036960601807
1403637133138319000,0.031020063906908035,0.05522941052913666,0.1254175901412964,9.504400253295898,-0.4107517898082733,-2.2583224773406982
1403637133143319000,0.01456670742481947,0.03247708082199097,0.09789121150970459,9.595514297485352,-0.4017740488052368,-2.274547815322876
1403637133148319000,0.0008713332936167717,0.025630444288253784,0.0795917958021164,9.733461380004883,-0.3779228925704956,-2.2660202980041504
1403637133153319000,-0.009131995029747486,0.018718808889389038,0.06079315021634102,9.848526000976562,-0.411615252494812,-2.1913492679595947
1403637133158319000,-0.021095436066389084,0.011692538857460022,0.047485724091529846,9.81656265258789,-0.36538901925086975,-2.0525736808776855
1403637133163319000,-0.030803736299276352,0.019731834530830383,0.03724110871553421,10.019871711730957,-0.30050334334373474,-2.142683506011963
1403637133168319000,-0.04243611916899681,0.029280081391334534,0.023364242166280746,9.84197998046875,-0.41280046105384827,-2.120220184326172
1403637133173319000,-0.04859070107340813,0.03416922688484192,0.010419448837637901,9.826138496398926,-0.31368252635002136,-2.1138112545013428
1403637133178319000,-0.05520517751574516,0.04747474193572998,-0.0009461850859224796,9.48433780670166,-0.31122174859046936,-2.0269935131073
1403637133183319000,-0.06431500613689423,0.039950042963027954,-0.023876575753092766,9.451133728027344,-0.3329729735851288,-2.1010396480560303
1403637133188319000,-0.086033895611763,0.03314642608165741,-0.030462292954325676,9.149229049682617,-0.3959996998310089,-1.9473825693130493
1403637133193319000,-0.09356510639190674,0.020055413246154785,-0.0431731753051281,9.140379905700684,-0.4587076008319855,-1.9978306293487549
1403637133198319000,-0.104163259267807,0.0165560245513916,-0.05139465630054474,9.131726264953613,-0.5977363586425781,-2.0555059909820557
1403637133203319000,-0.11020584404468536,0.012151643633842468,-0.058312248438596725,9.318438529968262,-0.597752571105957,-2.1616029739379883
1403637133208319000,-0.11851632595062256,0.02190113067626953,-0.06193317845463753,9.30223560333252,-0.7040469646453857,-2.261627674102783
1403637133213319000,-0.11760428547859192,0.021039709448814392,-0.06107952073216438,9.497482299804688,-0.9273834228515625,-2.467872142791748
1403637133218319000,-0.11481945216655731,0.030684873461723328,-0.05498289316892624,9.602998733520508,-1.0335086584091187,-2.649294853210449
1403637133223319000,-0.1037672907114029,0.029983937740325928,-0.03910450637340546,9.545669555664062,-1.0264582633972168,-2.7388293743133545
1403637133228319000,-0.09262056648731232,0.019521817564964294,-0.031986385583877563,9.568982124328613,-0.9163654446601868,-2.8516857624053955
1403637133233319000,-0.0861576646566391,0.00917363166809082,-0.026468424126505852,9.70645809173584,-0.6790819764137268,-2.8972883224487305
1403637133238319000,-0.08880436420440674,-0.006712824106216431,-0.030458634719252586,9.73134708404541,-0.541027843952179,-2.911102533340454
1403637133243319000,-0.09363996982574463,-0.017257660627365112,-0.04318181425333023,9.966443061828613,-0.4851512610912323,-2.9090747833251953
1403637133248319000,-0.09727710485458374,-0.01575629413127899,-0.054468389600515366,10.000420570373535,-0.5396090149879456,-2.8436179161071777
1403637133253319000,-0.09368433058261871,-0.015969887375831604,-0.054447729140520096,10.050056457519531,-0.5745106339454651,-2.7771944999694824
1403637133258319000,-0.08953873813152313,-0.004266306757926941,-0.046864405274391174,10.00894546508789,-0.6408843994140625,-2.7114908695220947
1403637133263319000,-0.0780007541179657,-6.595253944396973e-05,-0.031173160299658775,9.895544052124023,-0.6793442964553833,-2.628925323486328
1403637133268319000,-0.06699739396572113,0.004705116152763367,-0.015152305364608765,9.740421295166016,-0.6817091107368469,-2.5633349418640137
1403637133273319000,-0.058900829404592514,-0.00363960862159729,0.005175992846488953,9.584936141967773,-0.7386452555656433,-2.464430809020996
1403637133278319000,-0.0461592935025692,-0.005456507205963135,0.01991928368806839,9.658246040344238,-0.7629998326301575,-2.5044617652893066
1403637133283319000,-0.03361762687563896,-0.004668861627578735,0.03604790195822716,9.616887092590332,-0.6279866695404053,-2.4617488384246826
1403637133288319000,-0.03145384415984154,-0.010049402713775635,0.04455685243010521,9.714529991149902,-0.5224351286888123,-2.5601000785827637
1403637133293319000,-0.03202721104025841,-0.01851874589920044,0.05124947056174278,9.83653450012207,-0.5290798544883728,-2.5751829147338867
1403637133298319000,-0.034019362181425095,-0.02084319293498993,0.04503270611166954,10.057025909423828,-0.4982016384601593,-2.572965145111084
1403637133303319000,-0.04502479359507561,-0.020854145288467407,0.042348723858594894,10.13908863067627,-0.5448266863822937,-2.5886361598968506
1403637133308319000,-0.05332845076918602,-0.02509075403213501,0.04035148769617081,10.196830749511719,-0.5177943706512451,-2.597205877304077
1403637133313319000,-0.060419585555791855,-0.028069332242012024,0.03901566192507744,10.342670440673828,-0.4700881242752075,-2.6780450344085693
1403637133318319000,-0.06501373648643494,-0.021677017211914062,0.032820578664541245,10.424983024597168,-0.3297979533672333,-2.75924015045166
1403637133323319000,-0.07848402857780457,-0.02776379883289337,0.0325331948697567,10.36762809753418,-0.31996217370033264,-2.80057954788208
1403637133328319000,-0.09530554711818695,-0.02554723620414734,0.019399473443627357,10.27791690826416,-0.29596805572509766,-2.776398181915283
1403637133333319000,-0.10859285295009613,-0.03334242105484009,0.018570223823189735,10.082728385925293,-0.32738056778907776,-2.678256034851074
1403637133338319000,-0.11989748477935791,-0.0397585928440094,0.021398091688752174,10.09810733795166,-0.30264124274253845,-2.6622812747955322
1403637133343319000,-0.12658898532390594,-0.04816174507141113,0.02824963815510273,10.072844505310059,-0.39266782999038696,-2.646634578704834
1403637133348319000,-0.13820359110832214,-0.044740915298461914,0.03772832080721855,10.065403938293457,-0.3354438245296478,-2.6306631565093994
1403637133353319000,-0.14894120395183563,-0.04707172513008118,0.052754271775484085,9.902226448059082,-0.36609333753585815,-2.5261754989624023
1403637133358319000,-0.15519548952579498,-0.047732219099998474,0.06886494159698486,9.959210395812988,-0.43898358941078186,-2.5104546546936035
1403637133363319000,-0.15770651400089264,-0.05117972195148468,0.08972471952438354,9.844950675964355,-0.4392319917678833,-2.4872000217437744
1403637133368319000,-0.16271795332431793,-0.041361674666404724,0.10993798822164536,9.779068946838379,-0.4548328220844269,-2.497041702270508
1403637133373319000,-0.16533507406711578,-0.044315651059150696,0.11997733265161514,9.395498275756836,-0.5508522391319275,-2.4091784954071045
1403637133378319000,-0.16705776751041412,-0.0520053505897522,0.10269229859113693,9.346222877502441,-0.5517923831939697,-2.548414707183838
1403637133383319000,-0.16618546843528748,-0.06049810349941254,0.09630540758371353,9.289002418518066,-0.5745182633399963,-2.5804336071014404
1403637133388319000,-0.16085238754749298,-0.06880591809749603,0.09045379608869553,9.345911979675293,-0.5660812854766846,-2.662341594696045
1403637133393319000,-0.1560925841331482,-0.07511910796165466,0.0849461480975151,9.118563652038574,-0.6315344572067261,-2.4734432697296143
1403637133398319000,-0.1545051634311676,-0.09274506568908691,0.08134295791387558,8.892759323120117,-0.5968523025512695,-2.2446160316467285
1403637133403319000,-0.14635580778121948,-0.11048148572444916,0.08949115127325058,8.721144676208496,-0.6938167214393616,-2.2271993160247803
1403637133408319000,-0.13305433094501495,-0.11120890080928802,0.09014778584241867,9.028606414794922,-0.7695800065994263,-2.2832248210906982
1403637133413319000,-0.12065525352954865,-0.10893234610557556,0.09924205392599106,9.04428768157959,-0.7706330418586731,-2.3163444995880127
1403637133418319000,-0.11358514428138733,-0.10202459990978241,0.10033489763736725,9.134268760681152,-0.7141194343566895,-2.3240561485290527
1403637133423319000,-0.10035820305347443,-0.09728604555130005,0.10647708922624588,8.929963111877441,-0.8617456555366516,-2.3231565952301025
1403637133428319000,-0.07449163496494293,-0.09136565029621124,0.11575505882501602,8.896188735961914,-1.0098471641540527,-2.428521156311035
1403637133433319000,-0.04803245887160301,-0.0903555154800415,0.13168084621429443,8.618049621582031,-1.1575859785079956,-2.459587335586548
1403637133438319000,-0.016218747943639755,-0.1049858033657074,0.13973325490951538,8.642162322998047,-1.101494312286377,-2.6073644161224365
1403637133443319000,-0.0004609348252415657,-0.1142268180847168,0.14663264155387878,8.578179359436035,-0.7933956384658813,-2.6562867164611816
1403637133448319000,0.010540354065597057,-0.1252535879611969,0.15031881630420685,8.757335662841797,-0.6530365943908691,-2.705411672592163
1403637133453319000,0.017902303487062454,-0.1424810290336609,0.14717164635658264,8.708740234375,-0.7408808469772339,-2.663897752761841
1403637133458319000,0.02705039456486702,-0.15105658769607544,0.12921249866485596,8.905152320861816,-0.6769216060638428,-2.69836163520813
1403637133463319000,0.03461657837033272,-0.15407243371009827,0.12359960377216339,8.865779876708984,-0.5536001324653625,-2.642190456390381
1403637133468319000,0.041675079613924026,-0.1589186042547226,0.11605260521173477,9.09570598602295,-0.41344547271728516,-2.610560655593872
1403637133473319000,0.03135840967297554,-0.16129428148269653,0.10425033420324326,8.880654335021973,-0.11990121752023697,-2.3247904777526855
1403637133478319000,0.011909919790923595,-0.18383249640464783,0.1092751994729042,8.808353424072266,0.42124974727630615,-2.0252504348754883
1403637133483319000,-0.023935209959745407,-0.19719892740249634,0.11622069031000137,8.866856575012207,0.7412221431732178,-1.7453221082687378
1403637133488319000,-0.06156143173575401,-0.21447189152240753,0.11498706787824631,9.145562171936035,0.7918994426727295,-1.61811363697052
1403637133493319000,-0.0905718207359314,-0.21365557610988617,0.11493026465177536,9.532811164855957,0.5791447162628174,-1.6717599630355835
1403637133498319000,-0.10751436650753021,-0.19724638760089874,0.11406314373016357,9.827825546264648,0.16180120408535004,-1.7957102060317993
1403637133503319000,-0.10710066556930542,-0.17101739346981049,0.11849186569452286,9.700135231018066,-0.20591385662555695,-1.9888867139816284
1403637133508319000,-0.09517045319080353,-0.13954761624336243,0.12075795978307724,9.468832969665527,-0.3131553530693054,-2.1440253257751465
1403637133513319000,-0.08555249869823456,-0.12990045547485352,0.13561059534549713,8.873290061950684,-0.36839741468429565,-2.17850661277771
1403637133518319000,-0.0842583030462265,-0.14668963849544525,0.1495983749628067,8.600598335266113,-0.38216525316238403,-2.413747549057007
1403637133523319000,-0.08218182623386383,-0.16545192897319794,0.16727769374847412,8.44390869140625,-0.39942046999931335,-2.5763144493103027
1403637133528319000,-0.07893781363964081,-0.1852083057165146,0.17798207700252533,8.523672103881836,-0.42365220189094543,-2.7317214012145996
1403637133533319000,-0.08279964327812195,-0.19887568056583405,0.1775553822517395,8.619782447814941,-0.5462782382965088,-2.7889976501464844
1403637133538319000,-0.07790456712245941,-0.20245777070522308,0.17730651795864105,8.950920104980469,-0.6064199805259705,-2.8621158599853516
1403637133543319000,-0.07278324663639069,-0.19481568038463593,0.17876318097114563,9.113523483276367,-0.5970657467842102,-2.812500476837158
1403637133548319000,-0.0736335813999176,-0.18799981474876404,0.17823220789432526,9.357929229736328,-0.48905688524246216,-2.8379831314086914
1403637133553319000,-0.07495224475860596,-0.16708391904830933,0.17731575667858124,9.579802513122559,-0.2940356135368347,-2.8879411220550537
1403637133558319000,-0.07692481577396393,-0.15744933485984802,0.17373251914978027,9.727245330810547,-0.251557856798172,-2.9613234996795654
1403637133563319000,-0.08389294147491455,-0.14779746532440186,0.16681765019893646,9.776395797729492,-0.23521286249160767,-2.9610660076141357
1403637133568319000,-0.09005743265151978,-0.15234467387199402,0.1523650586605072,9.85795783996582,-0.1914823055267334,-2.9842312335968018
1403637133573319000,-0.10106417536735535,-0.15049561858177185,0.13439124822616577,9.883407592773438,-0.09001210331916809,-3.047877550125122
1403637133578319000,-0.10575848817825317,-0.1536986529827118,0.1156308725476265,9.964494705200195,-0.09066938608884811,-3.0383453369140625
1403637133583319000,-0.11749367415904999,-0.1485736221075058,0.09782799333333969,10.05421257019043,-0.1916426420211792,-3.144566774368286
1403637133588319000,-0.1219668835401535,-0.13823509216308594,0.09201508015394211,10.061731338500977,-0.27526941895484924,-3.169395923614502
1403637133593319000,-0.12351363897323608,-0.12455432116985321,0.08993183821439743,9.962782859802246,-0.4191223084926605,-3.1630520820617676
1403637133598319000,-0.12040010094642639,-0.1180003434419632,0.10149591416120529,9.80739974975586,-0.5244694948196411,-3.1554315090179443
1403637133603319000,-0.11934936046600342,-0.10419350862503052,0.10425437241792679,9.79931640625,-0.5840168595314026,-3.1732354164123535
1403637133608319000,-0.11486966907978058,-0.10249778628349304,0.11265014857053757,9.571949005126953,-0.5174636244773865,-3.1885554790496826
1403637133613319000,-0.11000232398509979,-0.09441408514976501,0.11404719203710556,9.53262996673584,-0.5903632044792175,-3.2380940914154053
1403637133618319000,-0.107686847448349,-0.09698843955993652,0.11550729721784592,9.474872589111328,-0.6152600049972534,-3.2369229793548584
1403637133623319000,-0.10093413293361664,-0.0891118049621582,0.11353031545877457,9.515397071838379,-0.5249660015106201,-3.2430789470672607
1403637133628319000,-0.09825854003429413,-0.09277236461639404,0.11900486797094345,9.620107650756836,-0.5235723853111267,-3.266552686691284
1403637133633319000,-0.10165393352508545,-0.08938094973564148,0.11353317648172379,9.848393440246582,-0.4514229893684387,-3.274207353591919
1403637133638319000,-0.0993143618106842,-0.08953914046287537,0.10592291504144669,10.069379806518555,-0.4259686768054962,-3.2985239028930664
1403637133643319000,-0.10495300590991974,-0.0756542831659317,0.08797112107276917,10.364285469055176,-0.3848910927772522,-3.3969268798828125
1403637133648319000,-0.10751684010028839,-0.06865164637565613,0.07484395056962967,10.511709213256836,-0.40220412611961365,-3.4052481651306152
1403637133653319000,-0.11197696626186371,-0.06294077634811401,0.04932544752955437,10.739656448364258,-0.3618892431259155,-3.535057306289673
1403637133658319000,-0.11860007047653198,-0.04897269606590271,0.035099245607852936,10.707000732421875,-0.41180408000946045,-3.5437934398651123
1403637133663319000,-0.12193131446838379,-0.04109124839305878,0.013567160815000534,10.707005500793457,-0.5353403687477112,-3.5794456005096436
1403637133668319000,-0.1248779147863388,-0.0346653014421463,-0.0013662888668477535,10.568642616271973,-0.5686244368553162,-3.5071098804473877
1403637133673319000,-0.12515132129192352,-0.027001410722732544,-0.012593775987625122,10.511430740356445,-0.576913595199585,-3.5160090923309326
1403637133678319000,-0.12333469092845917,-0.02989359200000763,-0.01124420203268528,10.371976852416992,-0.5940498113632202,-3.5003411769866943
1403637133683319000,-0.12164835631847382,-0.023628681898117065,-0.009822912514209747,10.420469284057617,-0.6432732343673706,-3.5584516525268555
1403637133688319000,-0.11783252656459808,-0.017337113618850708,0.00653762137517333,10.347396850585938,-0.7234169840812683,-3.517782688140869
1403637133693319000,-0.11338900029659271,-0.010417714715003967,0.01847964897751808,10.363834381103516,-0.7232797145843506,-3.5345356464385986
1403637133698319000,-0.10682335495948792,-0.00699518620967865,0.03374463692307472,10.249979972839355,-0.8125406503677368,-3.5026936531066895
1403637133703319000,-0.09365157783031464,0.0007227957248687744,0.0526655949652195,10.372458457946777,-0.7722277045249939,-3.509591817855835
1403637133708319000,-0.08697395026683807,0.006268978118896484,0.07505006343126297,10.242051124572754,-0.7134144306182861,-3.5171687602996826
1403637133713319000,-0.08738768100738525,0.004903808236122131,0.0768524706363678,10.453431129455566,-0.5678513050079346,-3.5072896480560303
1403637133718319000,-0.09218145906925201,0.003421381115913391,0.08351252228021622,10.470593452453613,-0.6002406477928162,-3.466507911682129
1403637133723319000,-0.0943419486284256,0.0013111084699630737,0.08031240105628967,10.609404563903809,-0.6391783356666565,-3.564743995666504
1403637133728319000,-0.0948730856180191,0.002788051962852478,0.07696980983018875,10.625791549682617,-0.7298644185066223,-3.614759683609009
1403637133733319000,-0.09293127059936523,0.013167932629585266,0.07144597917795181,10.75709056854248,-0.6986299157142639,-3.6470065116882324
1403637133738319000,-0.09296727180480957,0.017983898520469666,0.07141948491334915,10.691572189331055,-0.7058815360069275,-3.6228673458099365
1403637133743319000,-0.09711107611656189,0.028450414538383484,0.06179079785943031,10.707917213439941,-0.6648369431495667,-3.5976719856262207
1403637133748319000,-0.10144035518169403,0.027728870511054993,0.06548315286636353,10.537014961242676,-0.78717440366745,-3.4770548343658447
1403637133753319000,-0.10621333122253418,0.031241953372955322,0.06714604049921036,10.601778984069824,-0.8188121318817139,-3.436979055404663
1403637133758319000,-0.1111583262681961,0.0319698303937912,0.07272488623857498,10.45543384552002,-0.8840107321739197,-3.3152759075164795
1403637133763319000,-0.11408567428588867,0.03000602126121521,0.07042014598846436,10.545578002929688,-0.8047698736190796,-3.1672942638397217
1403637133768319000,-0.1229744702577591,0.03717970848083496,0.0833815485239029,10.358464241027832,-0.7309266328811646,-2.9866256713867188
1403637133773319000,-0.12928088009357452,0.029010549187660217,0.09200973063707352,10.415550231933594,-0.6083136796951294,-2.8867523670196533
1403637133778319000,-0.14023847877979279,0.023320257663726807,0.09873896092176437,10.439549446105957,-0.534389853477478,-2.8703150749206543
1403637133783319000,-0.15353064239025116,0.019202977418899536,0.09814513474702835,10.774506568908691,-0.3875216841697693,-2.8671581745147705
1403637133788319000,-0.17149552702903748,0.013659507036209106,0.09259740263223648,10.856971740722656,-0.38607582449913025,-2.8754143714904785
1403637133793319000,-0.19182828068733215,0.003843829035758972,0.0785985067486763,11.053818702697754,-0.3366258144378662,-2.914832353591919
1403637133798319000,-0.2066749632358551,-0.00606517493724823,0.06675446778535843,11.054962158203125,-0.4098146855831146,-2.8744633197784424
1403637133803319000,-0.21576671302318573,-0.022793874144554138,0.06818298995494843,11.259183883666992,-0.49114832282066345,-2.9403793811798096
1403637133808319000,-0.21902205049991608,-0.029846295714378357,0.07478127628564835,11.283927917480469,-0.6458227634429932,-3.008382558822632
1403637133813319000,-0.2189488410949707,-0.038157299160957336,0.09268254041671753,11.471015930175781,-0.7106351256370544,-3.2146549224853516
1403637133818319000,-0.21831214427947998,-0.035525426268577576,0.11217743903398514,11.389756202697754,-0.7598985433578491,-3.265270233154297
1403637133823319000,-0.21292151510715485,-0.03923554718494415,0.1249484196305275,11.339569091796875,-0.7679221034049988,-3.3811280727386475
1403637133828319000,-0.21533553302288055,-0.0421152263879776,0.13329654932022095,11.150538444519043,-0.7349168062210083,-3.3975465297698975
1403637133833319000,-0.21299828588962555,-0.050581276416778564,0.1321757584810257,11.124667167663574,-0.6534794569015503,-3.454284429550171
1403637133838319000,-0.2153671532869339,-0.06176534295082092,0.1286894828081131,10.927896499633789,-0.6531804203987122,-3.397510051727295
1403637133843319000,-0.2225317806005478,-0.0777752548456192,0.11536271125078201,10.959969520568848,-0.6113349199295044,-3.4297938346862793
1403637133848319000,-0.22663864493370056,-0.0874921977519989,0.10546042025089264,10.903130531311035,-0.6026802659034729,-3.355875253677368
1403637133853319000,-0.23137451708316803,-0.09789888560771942,0.10476966947317123,11.049588203430176,-0.6262678503990173,-3.413424491882324
1403637133858319000,-0.2337803840637207,-0.10148096084594727,0.09924498200416565,11.180941581726074,-0.6834371089935303,-3.413151502609253
1403637133863319000,-0.22869130969047546,-0.10295285284519196,0.10335070639848709,11.31298828125,-0.7741659283638,-3.3651444911956787
1403637133868319000,-0.2246495932340622,-0.10020172595977783,0.1144891232252121,11.346644401550293,-0.880903959274292,-3.4410064220428467
1403637133873319000,-0.20990046858787537,-0.09686239063739777,0.13594746589660645,11.420687675476074,-0.9723460078239441,-3.458317518234253
1403637133878319000,-0.19225040078163147,-0.0968971699476242,0.16448985040187836,11.371127128601074,-1.047853708267212,-3.558419942855835
1403637133883319000,-0.17653249204158783,-0.0948132872581482,0.18069568276405334,11.476757049560547,-1.0735552310943604,-3.6644933223724365
1403637133888319000,-0.157095804810524,-0.08558177947998047,0.19049793481826782,11.353338241577148,-0.9936516880989075,-3.718813180923462
1403637133893319000,-0.14064855873584747,-0.089469775557518,0.1920069456100464,11.286617279052734,-0.8717530369758606,-3.7479255199432373
1403637133898319000,-0.1408490091562271,-0.08305197954177856,0.18801887333393097,11.204060554504395,-0.7482845187187195,-3.75321364402771
1403637133903319000,-0.14550721645355225,-0.08938243985176086,0.17985573410987854,11.105053901672363,-0.7227290272712708,-3.7525007724761963
1403637133908319000,-0.1490728110074997,-0.09284089505672455,0.16087152063846588,10.997464179992676,-0.6897116303443909,-3.645120620727539
1403637133913319000,-0.14881566166877747,-0.09992744028568268,0.14249955117702484,10.922855377197266,-0.7216092348098755,-3.604299306869507
1403637133918319000,-0.14884954690933228,-0.09571006894111633,0.1341625154018402,10.95609188079834,-0.7210420966148376,-3.5466411113739014
1403637133923319000,-0.14292313158512115,-0.09299050271511078,0.13353437185287476,10.883240699768066,-0.8275682926177979,-3.5158848762512207
1403637133928319000,-0.13563264906406403,-0.08304212987422943,0.1282324492931366,10.94124984741211,-0.7872917056083679,-3.5150065422058105
1403637133933319000,-0.1282672882080078,-0.07181347906589508,0.12387637048959732,10.7948579788208,-0.7703673839569092,-3.498542547225952
1403637133938319000,-0.12953753769397736,-0.05993907153606415,0.12150654941797256,10.680456161499023,-0.705496609210968,-3.563765525817871
1403637133943319000,-0.13087905943393707,-0.05433747172355652,0.11883307248353958,10.639110565185547,-0.697708010673523,-3.611785888671875
1403637133948319000,-0.1378595381975174,-0.04456864297389984,0.10635869950056076,10.582870483398438,-0.712911069393158,-3.678077459335327
1403637133953319000,-0.14846177399158478,-0.04526433348655701,0.09575831890106201,10.459676742553711,-0.6561669111251831,-3.6784377098083496
1403637133958319000,-0.15731140971183777,-0.038857221603393555,0.08170496672391891,10.468015670776367,-0.5901850461959839,-3.74369740486145
1403637133963319000,-0.16797757148742676,-0.0381210595369339,0.06830080598592758,10.395169258117676,-0.6127117872238159,-3.720576763153076
1403637133968319000,-0.17653195559978485,-0.031006470322608948,0.05525827780365944,10.41129207611084,-0.6037425994873047,-3.7055935859680176
1403637133973319000,-0.18837787210941315,-0.020562127232551575,0.04829572141170502,10.208297729492188,-0.6425356268882751,-3.682427406311035
1403637133978319000,-0.1947895586490631,-0.0080147385597229,0.039135415107011795,10.110506057739258,-0.6577625870704651,-3.6762983798980713
1403637133983319000,-0.1956188827753067,0.0038024336099624634,0.036969009786844254,9.9636812210083,-0.6090819835662842,-3.5534729957580566
1403637133988319000,-0.19432596862316132,0.012823805212974548,0.03168359771370888,9.76915168762207,-0.600347101688385,-3.3659708499908447
1403637133993319000,-0.19193056225776672,0.015586435794830322,0.0338406078517437,9.622321128845215,-0.6160426139831543,-3.227689266204834
1403637133998319000,-0.18137302994728088,0.02268943190574646,0.03455333411693573,9.622559547424316,-0.6973728537559509,-3.171250820159912
1403637134003319000,-0.16509957611560822,0.026936516165733337,0.04428090527653694,9.508987426757812,-0.8432289958000183,-3.114765167236328
1403637134008319000,-0.13724608719348907,0.03456422686576843,0.05207539722323418,9.647692680358887,-0.8933770656585693,-3.114903450012207
1403637134013319000,-0.10871118307113647,0.04284986853599548,0.07006821781396866,9.607508659362793,-0.8376802802085876,-3.047907829284668
1403637134018319000,-0.08980901539325714,0.047019779682159424,0.07932776212692261,9.754023551940918,-0.5865899324417114,-3.160670518875122
1403637134023319000,-0.08441178500652313,0.05389171838760376,0.0787595883011818,9.77817153930664,-0.4167926609516144,-3.2092666625976562
1403637134028319000,-0.08911743760108948,0.053300708532333374,0.055352017283439636,9.910043716430664,-0.20484592020511627,-3.2420530319213867
1403637134033319000,-0.10052596032619476,0.04845264554023743,0.03106033429503441,9.739226341247559,-0.25230056047439575,-3.209885358810425
1403637134038319000,-0.1137552559375763,0.04633866250514984,0.0020471764728426933,9.746992111206055,-0.27662619948387146,-3.2676405906677246
1403637134043319000,-0.12914176285266876,0.04298914968967438,-0.025223733857274055,9.632689476013184,-0.3654220402240753,-3.2928242683410645
1403637134048319000,-0.14377658069133759,0.04648776352405548,-0.03799738362431526,9.657968521118164,-0.35744228959083557,-3.277270555496216
1403637134053319000,-0.15765418112277985,0.049948304891586304,-0.04188461974263191,9.438143730163574,-0.31654298305511475,-3.2201988697052
1403637134058319000,-0.1745663732290268,0.054743096232414246,-0.05377664044499397,9.455187797546387,-0.29014840722084045,-3.1879382133483887
1403637134063319000,-0.1954054981470108,0.0545707643032074,-0.06226180121302605,9.226677894592285,-0.30658772587776184,-3.171510696411133
1403637134068319000,-0.20831577479839325,0.05442400276660919,-0.07385430485010147,9.234342575073242,-0.3548055589199066,-3.1802570819854736
1403637134073319000,-0.21950414776802063,0.057877346873283386,-0.08571449667215347,9.071557998657227,-0.5011311769485474,-3.1403520107269287
1403637134078319000,-0.22394829988479614,0.05235455930233002,-0.09006568789482117,9.095881462097168,-0.5843842625617981,-3.1001627445220947
1403637134083319000,-0.22191430628299713,0.056039273738861084,-0.08187714964151382,8.957465171813965,-0.6574000120162964,-3.0677762031555176
1403637134088319000,-0.2165016531944275,0.05675433576107025,-0.06312748789787292,9.095709800720215,-0.6652363538742065,-3.1169562339782715
1403637134093319000,-0.21154527366161346,0.06030045449733734,-0.04038519784808159,9.086633682250977,-0.6648846864700317,-3.1494219303131104
1403637134098319000,-0.20735643804073334,0.06573978066444397,-0.030994204804301262,9.290899276733398,-0.48599255084991455,-3.1732075214385986
1403637134103319000,-0.2086486667394638,0.06844629347324371,-0.029964948073029518,9.267797470092773,-0.3397524952888489,-3.0994341373443604
1403637134108319000,-0.211429625749588,0.06975597143173218,-0.05002466216683388,9.375121116638184,-0.21826592087745667,-3.0495200157165527
1403637134113319000,-0.2191413938999176,0.07039095461368561,-0.07361450046300888,9.288093566894531,-0.0713539645075798,-2.9100444316864014
1403637134118319000,-0.22826707363128662,0.06965756416320801,-0.09378288686275482,9.387235641479492,0.07573264092206955,-2.8855860233306885
1403637134123319000,-0.2447964996099472,0.07529318332672119,-0.11025477200746536,9.208342552185059,0.08497905731201172,-2.82895565032959
1403637134128319000,-0.2564123868942261,0.07889053225517273,-0.11327476799488068,9.110991477966309,0.03024357371032238,-2.731484889984131
1403637134133319000,-0.2535063326358795,0.09231066703796387,-0.10766132175922394,8.93932056427002,-0.09144584089517593,-2.641939878463745
1403637134138319000,-0.2528746426105499,0.09653526544570923,-0.10126412659883499,8.857128143310547,-0.124453604221344,-2.592571973800659
1403637134143319000,-0.24959592521190643,0.10275274515151978,-0.10306268185377121,8.84001350402832,-0.2142190933227539,-2.5765609741210938
1403637134148319000,-0.24801896512508392,0.10612666606903076,-0.10999197512865067,8.936802864074707,-0.28872430324554443,-2.666085958480835
1403637134153319000,-0.2417333424091339,0.11526362597942352,-0.11349018663167953,9.0256929397583,-0.34726566076278687,-2.7634780406951904
1403637134158319000,-0.24003304541110992,0.11530819535255432,-0.10173243284225464,9.21272087097168,-0.34043022990226746,-2.8442773818969727
1403637134163319000,-0.23442094027996063,0.1188071072101593,-0.09476781636476517,9.327709197998047,-0.42246073484420776,-2.8528730869293213
1403637134168319000,-0.23641915619373322,0.12023085355758667,-0.08161569386720657,9.589940071105957,-0.38218629360198975,-2.852224588394165
1403637134173319000,-0.2368094027042389,0.1328098177909851,-0.07471753656864166,9.70561408996582,-0.39065128564834595,-2.8601155281066895
1403637134178319000,-0.23688407242298126,0.13975957036018372,-0.065580353140831,9.845104217529297,-0.3662707805633545,-2.900381326675415
1403637134183319000,-0.24268586933612823,0.1626790463924408,-0.06866725534200668,9.838323593139648,-0.3814197778701782,-2.9007880687713623
1403637134188319000,-0.24487300217151642,0.18910104036331177,-0.06387767940759659,9.683575630187988,-0.3890519440174103,-2.901423931121826
1403637134193319000,-0.2469700127840042,0.21929845213890076,-0.0674634575843811,9.462334632873535,-0.30908459424972534,-2.950071096420288
1403637134198319000,-0.2544853091239929,0.2383912205696106,-0.07121536880731583,9.101517677307129,-0.1868641972541809,-2.949280261993408
1403637134203319000,-0.26332181692123413,0.25668126344680786,-0.0802825540304184,8.673104286193848,-0.14586356282234192,-3.0056569576263428
1403637134208319000,-0.27318084239959717,0.2660154700279236,-0.082825668156147,8.385319709777832,-0.09859640896320343,-2.939643621444702
1403637134213319000,-0.2752087712287903,0.27467745542526245,-0.08122874051332474,8.220495223999023,-0.10685594379901886,-2.9066152572631836
1403637134218319000,-0.2653278410434723,0.2691858410835266,-0.07088254392147064,8.088287353515625,-0.24563190340995789,-2.8653883934020996
1403637134223319000,-0.24844993650913239,0.2788490355014801,-0.0589473582804203,8.08035945892334,-0.3214765191078186,-2.815809488296509
1403637134228319000,-0.22575590014457703,0.2851226031780243,-0.038891494274139404,8.105331420898438,-0.28185585141181946,-2.7744739055633545
1403637134233319000,-0.20129771530628204,0.2970336377620697,-0.024191679432988167,8.261999130249023,-0.2328147292137146,-2.76594877243042
1403637134238319000,-0.17900978028774261,0.3142947852611542,-0.01001233235001564,8.222986221313477,-0.19274196028709412,-2.6834888458251953
1403637134243319000,-0.1506945937871933,0.3238992393016815,0.0007509575225412846,8.239846229553223,-0.15134382247924805,-2.682715892791748
1403637134248319000,-0.12169118225574493,0.3308389484882355,0.01600787602365017,8.117932319641113,-0.24160990118980408,-2.583902359008789
1403637134253319000,-0.10049597918987274,0.3330325782299042,0.025908401235938072,8.19290828704834,-0.14412519335746765,-2.518641471862793
1403637134258319000,-0.08155034482479095,0.32894256711006165,0.03758794814348221,8.095025062561035,-0.06210287660360336,-2.518031597137451
1403637134263319000,-0.05986989662051201,0.32619407773017883,0.04810560867190361,8.194843292236328,0.10785370320081711,-2.4287116527557373
1403637134268319000,-0.05800836905837059,0.3270256519317627,0.05930871143937111,8.155123710632324,0.11672364920377731,-2.3237626552581787
1403637134273319000,-0.05806509777903557,0.33402663469314575,0.05950021743774414,8.220849990844727,0.13471704721450806,-2.299062490463257
1403637134278319000,-0.05174940451979637,0.3421778380870819,0.06582928448915482,8.041003227233887,0.09275230765342712,-2.2094011306762695
1403637134283319000,-0.05155506357550621,0.3552854061126709,0.06663266569375992,8.0482759475708,0.11762145161628723,-2.2575864791870117
1403637134288319000,-0.04761853441596031,0.36691364645957947,0.0769517794251442,7.7305707931518555,0.18842360377311707,-2.209076404571533
1403637134293319000,-0.04897883161902428,0.36971184611320496,0.07701105624437332,7.681158542633057,0.22900542616844177,-2.233943223953247
1403637134298319000,-0.04973038658499718,0.3697361648082733,0.08106783032417297,7.590816497802734,0.21407955884933472,-2.282870054244995
1403637134303319000,-0.04955586418509483,0.3657006621360779,0.07064691185951233,7.720098972320557,0.2152332067489624,-2.3798696994781494
1403637134308319000,-0.04978012666106224,0.3659316301345825,0.06288819015026093,7.7846760749816895,0.16636702418327332,-2.3795316219329834
1403637134313319000,-0.04683161899447441,0.3631907105445862,0.04779891297221184,7.940154075622559,0.19207029044628143,-2.4037084579467773
1403637134318319000,-0.0426294170320034,0.36168214678764343,0.045559726655483246,7.900146007537842,0.13348834216594696,-2.3388237953186035
1403637134323319000,-0.035527076572179794,0.3670406639575958,0.044037483632564545,8.064003944396973,0.10887797176837921,-2.2735788822174072
1403637134328319000,-0.023193906992673874,0.3723984658718109,0.05630769580602646,7.926366329193115,0.05292370915412903,-2.1848182678222656
1403637134333319000,-0.014482972212135792,0.3778926432132721,0.06331515312194824,7.999380588531494,0.06895853579044342,-2.1761343479156494
1403637134338319000,-0.009983924217522144,0.38882461190223694,0.07514873892068863,7.756731033325195,0.08224184811115265,-2.0480403900146484
1403637134343319000,-0.011765253730118275,0.39081063866615295,0.07822957634925842,7.5947723388671875,0.10590389370918274,-1.9606751203536987
1403637134348319000,-0.01180028636008501,0.39556458592414856,0.0763295516371727,7.2530598640441895,0.17426440119743347,-1.8488070964813232
1403637134353319000,-0.018440213054418564,0.39280107617378235,0.0709037110209465,7.098132610321045,0.18084865808486938,-1.7940658330917358
1403637134358319000,-0.026615183800458908,0.3889659345149994,0.0757768526673317,6.854548931121826,0.1211063414812088,-1.617164134979248
1403637134363319000,-0.03288466855883598,0.37470555305480957,0.08010349422693253,6.748580455780029,0.21758665144443512,-1.5452836751937866
1403637134368319000,-0.04183342680335045,0.36532488465309143,0.09184090793132782,6.56057596206665,0.26486051082611084,-1.4977725744247437
1403637134373319000,-0.05161244794726372,0.35624295473098755,0.10706669837236404,6.591686248779297,0.25886914134025574,-1.5373986959457397
1403637134378319000,-0.06115294620394707,0.3589651882648468,0.11894956231117249,6.557823657989502,0.20163242518901825,-1.5372107028961182
1403637134383319000,-0.07227711379528046,0.34882888197898865,0.12594754993915558,6.596916675567627,0.13775157928466797,-1.6020495891571045
1403637134388319000,-0.08118376135826111,0.3426966369152069,0.13078945875167847,6.595915794372559,0.06526248157024384,-1.6410778760910034
1403637134393319000,-0.08793230354785919,0.3317054212093353,0.1377655565738678,6.66018009185791,0.03350241109728813,-1.6728423833847046
1403637134398319000,-0.09624570608139038,0.32216745615005493,0.14515572786331177,6.593262672424316,-0.007069196552038193,-1.745152473449707
1403637134403319000,-0.09867203235626221,0.3047536611557007,0.16162823140621185,6.674244403839111,-0.03843878209590912,-1.6873358488082886
1403637134408319000,-0.10164013504981995,0.2930273711681366,0.1755148470401764,6.779444217681885,-0.10212365537881851,-1.7028255462646484
1403637134413319000,-0.09509284794330597,0.2763047218322754,0.1830638349056244,6.902289390563965,-0.0845242440700531,-1.7264630794525146
1403637134418319000,-0.0942954421043396,0.2715335786342621,0.18787837028503418,7.033483505249023,-0.08465041220188141,-1.7024587392807007
1403637134423319000,-0.0874432921409607,0.26099905371665955,0.20533552765846252,7.065915584564209,-0.09217964857816696,-1.6608084440231323
1403637134428319000,-0.07338139414787292,0.2641010284423828,0.22212949395179749,6.950530052185059,-0.1331194043159485,-1.5936468839645386
1403637134433319000,-0.06224789842963219,0.2568895220756531,0.2414151132106781,6.7602105140686035,-0.17338784039020538,-1.5087891817092896
1403637134438319000,-0.04645518586039543,0.2552075684070587,0.2545892894268036,6.523627281188965,-0.1417602151632309,-1.3841632604599
1403637134443319000,-0.03028636798262596,0.23665359616279602,0.27386966347694397,6.221203804016113,-0.09410813450813293,-1.2084987163543701
1403637134448319000,-0.020582418888807297,0.2238895297050476,0.2774706184864044,6.134192943572998,0.08549483865499496,-1.1760637760162354
1403637134453319000,-0.016239847987890244,0.21128225326538086,0.2859182357788086,5.954941749572754,0.10315193235874176,-1.1075656414031982
1403637134458319000,-0.011172977276146412,0.19895890355110168,0.28666946291923523,5.906383514404297,0.15226228535175323,-1.1316254138946533
1403637134463319000,-0.005715173669159412,0.18434801697731018,0.29590609669685364,5.774423122406006,0.0976274162530899,-1.1114263534545898
1403637134468319000,0.0015981672331690788,0.17310699820518494,0.2971246540546417,5.834881782531738,0.17939813435077667,-1.0368659496307373
1403637134473319000,-0.0008213194087147713,0.15231499075889587,0.3031403422355652,5.745870113372803,0.16285744309425354,-1.0104979276657104
1403637134478319000,-0.007788431830704212,0.13105502724647522,0.2907952666282654,5.972959041595459,0.3344622850418091,-1.0234230756759644
1403637134483319000,-0.021465729922056198,0.1101912409067154,0.2795051634311676,6.034154415130615,0.4503370225429535,-1.0842305421829224
1403637134488319000,-0.039400335401296616,0.09587369859218597,0.25960612297058105,6.214486598968506,0.4429636001586914,-1.179240345954895
1403637134493319000,-0.05174363777041435,0.08288823068141937,0.24230235815048218,6.255261421203613,0.33767396211624146,-1.19024658203125
1403637134498319000,-0.05902230367064476,0.06785930693149567,0.2235420048236847,6.393980503082275,0.23259444534778595,-1.2334553003311157
1403637134503319000,-0.05801254138350487,0.05113714933395386,0.21541737020015717,6.295446872711182,0.0951637253165245,-1.2648389339447021
1403637134508319000,-0.06077059730887413,0.039254918694496155,0.2030128389596939,6.3932061195373535,0.0868903174996376,-1.3568311929702759
1403637134513319000,-0.05920162424445152,0.02684362232685089,0.19794109463691711,6.279260158538818,-0.033690426498651505,-1.3155304193496704
1403637134518319000,-0.05232010409235954,0.010041579604148865,0.1980094313621521,6.385783672332764,-0.0006683491519652307,-1.3655269145965576
1403637134523319000,-0.04020566865801811,0.0016658902168273926,0.20073242485523224,6.2078094482421875,-0.05691584199666977,-1.2663837671279907
1403637134528319000,-0.029547374695539474,-0.021159082651138306,0.1985829472541809,6.218755722045898,-0.00829425361007452,-1.2019160985946655
1403637134533319000,-0.013652813620865345,-0.03001934289932251,0.19826734066009521,6.0728325843811035,0.033017292618751526,-1.1856769323349
1403637134538319000,-0.007459175772964954,-0.04601830244064331,0.1929481327533722,6.1643452644348145,0.16289614140987396,-1.220007061958313
1403637134543319000,-0.004703951068222523,-0.05439247190952301,0.19077199697494507,6.043306827545166,0.2856416702270508,-1.1799683570861816
1403637134548319000,-0.007335853762924671,-0.06903594732284546,0.18005087971687317,6.092808723449707,0.49913808703422546,-1.1893178224563599
1403637134553319000,-0.019225221127271652,-0.07735446095466614,0.16574817895889282,6.044637203216553,0.6557153463363647,-1.182747721672058
1403637134558319000,-0.037242453545331955,-0.09064571559429169,0.13958171010017395,6.108909606933594,0.7955401539802551,-1.2106064558029175
1403637134563319000,-0.057720597833395004,-0.10364606976509094,0.10974324494600296,6.0757904052734375,0.8537432551383972,-1.204930067062378
1403637134568319000,-0.07432721555233002,-0.11542052030563354,0.08009108901023865,6.189361572265625,0.7578251957893372,-1.2570744752883911
1403637134573319000,-0.09176592528820038,-0.12438139319419861,0.054937031120061874,6.214955806732178,0.5611967444419861,-1.3256644010543823
1403637134578319000,-0.10444770753383636,-0.13838213682174683,0.033218614757061005,6.3768086433410645,0.4468984305858612,-1.3744843006134033
1403637134583319000,-0.10951897501945496,-0.15070195496082306,0.009430823847651482,6.320883274078369,0.2767725884914398,-1.3764506578445435
1403637134588319000,-0.10588666796684265,-0.1670207679271698,0.0021549887023866177,6.443248748779297,0.18533869087696075,-1.4411568641662598
1403637134593319000,-0.10272100567817688,-0.17405450344085693,-0.00554685527458787,6.550292015075684,-0.0021597675513476133,-1.4568589925765991
1403637134598319000,-0.09831328690052032,-0.18535484373569489,-0.00905381329357624,6.600236415863037,-0.0756153017282486,-1.473207712173462
1403637134603319000,-0.0908651202917099,-0.18873757123947144,-0.01342347078025341,6.535641670227051,-0.13456305861473083,-1.4823516607284546
1403637134608319000,-0.07135267555713654,-0.2007676213979721,-0.010130012407898903,6.5442986488342285,-0.16729220747947693,-1.5144987106323242
1403637134613319000,-0.05797749385237694,-0.20783032476902008,-0.0053187147714197636,6.544599533081055,-0.18425242602825165,-1.514107346534729
1403637134618319000,-0.046347301453351974,-0.21685446798801422,0.0016184765845537186,6.503575801849365,-0.17583854496479034,-1.5059903860092163
1403637134623319000,-0.03713492676615715,-0.22214487195014954,0.014241950586438179,6.626154899597168,-0.0855223685503006,-1.5530195236206055
1403637134628319000,-0.02686258777976036,-0.23055832087993622,0.02883223630487919,6.5532073974609375,-0.003960334695875645,-1.5616865158081055
1403637134633319000,-0.02043325826525688,-0.23069190979003906,0.030387965962290764,6.617496967315674,0.09428928792476654,-1.5691986083984375
1403637134638319000,-0.020444881170988083,-0.24109329283237457,0.033350709825754166,6.577012062072754,0.1432926058769226,-1.634496808052063
1403637134643319000,-0.017827849835157394,-0.2432982325553894,0.03022374026477337,6.6253509521484375,0.2481650412082672,-1.6343860626220703
1403637134648319000,-0.023840706795454025,-0.2527991533279419,0.030094807967543602,6.470959186553955,0.21522459387779236,-1.6038247346878052
1403637134653319000,-0.03148959204554558,-0.2583903670310974,0.01707105152308941,6.504313945770264,0.15757082402706146,-1.6370874643325806
1403637134658319000,-0.03271874412894249,-0.2643584609031677,0.005891067907214165,6.374821186065674,0.041904762387275696,-1.6231449842453003
1403637134663319000,-0.033272575587034225,-0.2728564441204071,-0.014890151098370552,6.471630573272705,0.01771816983819008,-1.6638069152832031
1403637134668319000,-0.031543564051389694,-0.28588831424713135,-0.02694668062031269,6.389373779296875,-0.015559753403067589,-1.599432349205017
1403637134673319000,-0.0324409119784832,-0.30159446597099304,-0.04494403675198555,6.551026344299316,0.03265995532274246,-1.6470400094985962
1403637134678319000,-0.027874361723661423,-0.31476518511772156,-0.056320760399103165,6.542013168334961,-0.022977272048592567,-1.581925868988037
1403637134683319000,-0.023229848593473434,-0.3287096917629242,-0.06573976576328278,6.827829360961914,-0.10443226248025894,-1.6277134418487549
1403637134688319000,-0.01085121650248766,-0.34262561798095703,-0.06317143887281418,7.064507484436035,-0.25172534584999084,-1.72188401222229
1403637134693319000,0.001790749840438366,-0.35179218649864197,-0.057382408529520035,7.374441623687744,-0.3173688054084778,-1.855906367301941
1403637134698319000,0.01876657083630562,-0.3575114607810974,-0.03934019058942795,7.455776691436768,-0.4572553336620331,-1.92714524269104
1403637134703319000,0.04536612704396248,-0.36395350098609924,-0.013495035469532013,7.649805068969727,-0.5069191455841064,-1.9969134330749512
1403637134708319000,0.07419915497303009,-0.3671404719352722,0.026892680674791336,7.58233118057251,-0.5158774256706238,-2.0935006141662598
1403637134713319000,0.09329690039157867,-0.37536850571632385,0.059308916330337524,7.758397579193115,-0.3437994420528412,-2.286245107650757
1403637134718319000,0.10715781152248383,-0.3861094117164612,0.089341901242733,7.715876579284668,-0.2372647374868393,-2.3667960166931152
1403637134723319000,0.112240269780159,-0.3958154618740082,0.10358960181474686,7.869480609893799,-0.11436721682548523,-2.4299635887145996
1403637134728319000,0.11363230645656586,-0.40115755796432495,0.1046144962310791,7.84329080581665,-0.14710775017738342,-2.5932013988494873
1403637134733319000,0.11044733226299286,-0.41156241297721863,0.09264300018548965,7.867835521697998,-0.032344602048397064,-2.7075812816619873
1403637134738319000,0.10312645137310028,-0.4173109233379364,0.07754790782928467,7.884444713592529,-0.015632184222340584,-2.749018907546997
1403637134743319000,0.09243164956569672,-0.42656660079956055,0.04847419261932373,7.836346626281738,-0.030699556693434715,-2.824643850326538
1403637134748319000,0.07784442603588104,-0.4381418824195862,0.018932873383164406,7.81244421005249,-0.12878751754760742,-2.8183772563934326
1403637134753319000,0.0740433782339096,-0.45811769366264343,-0.004316780250519514,7.949121952056885,-0.2930609881877899,-2.883206605911255
1403637134758319000,0.07568918168544769,-0.46803656220436096,-0.0176572073251009,7.981283664703369,-0.384145587682724,-2.9158685207366943
1403637134763319000,0.09060291945934296,-0.47858741879463196,-0.011033972725272179,8.109380722045898,-0.5002110600471497,-2.8488526344299316
1403637134768319000,0.09842802584171295,-0.48690345883369446,0.007371353451162577,8.213634490966797,-0.5434049367904663,-2.855600357055664
1403637134773319000,0.11351679265499115,-0.4973111152648926,0.035637304186820984,8.276603698730469,-0.5441964268684387,-2.8121466636657715
1403637134778319000,0.123176708817482,-0.4980006217956543,0.07406514137983322,8.532639503479004,-0.5599803924560547,-2.9165704250335693
1403637134783319000,0.13496346771717072,-0.49559876322746277,0.11704342812299728,8.592759132385254,-0.5839084982872009,-3.0059616565704346
1403637134788319000,0.1430477350950241,-0.49185872077941895,0.15011458098888397,8.808835983276367,-0.49929237365722656,-3.2252724170684814
