#timestamp [ns],w_RS_S_x [rad s^-1],w_RS_S_y [rad s^-1],w_RS_S_z [rad s^-1],a_RS_S_x [m s^-2],a_RS_S_y [m s^-2],a_RS_S_z [m s^-2]
1403715886544058000,-0.0020943951023931952,0.01884955592153876,0.07609635538695278,9.062979041666667,0.4494714583333333,-3.6529771249999996
1403715886549058000,-0.003490658503988659,0.021642082724729686,0.07609635538695278,9.062979041666667,0.416782625,-3.6366327083333334
1403715886554058000,-0.0027925268031909274,0.01884955592153876,0.0767944870877505,9.062979041666667,0.367749375,-3.6611493333333334
1403715886559058000,0.0006981317007977319,0.016057029118347832,0.07958701389094143,9.054806833333332,0.4004382083333333,-3.6202882916666663
1403715886564058000,-0.0013962634015954637,0.01884955592153876,0.07749261878854824,9.062979041666667,0.367749375,-3.6121160833333334
1403715886569058000,-0.0006981317007977319,0.013962634015954637,0.07749261878854824,9.095667875,0.40861041666666664,-3.6284604999999996
1403715886574058000,-0.0020943951023931952,0.013962634015954637,0.07749261878854824,9.079323458333333,0.392266,-3.6121160833333334
1403715886579058000,-0.0020943951023931952,0.0153588974175501,0.07609635538695278,9.062979041666667,0.40861041666666664,-3.6202882916666663
1403715886584058000,-0.0020943951023931952,0.012566370614359173,0.07819075048934597,9.054806833333332,0.40861041666666664,-3.6529771249999996
1403715886589058000,-0.0006981317007977319,0.01815142422074103,0.07819075048934597,9.046634625,0.392266,-3.6448049166666663
1403715886594058000,-0.0020943951023931952,0.01815142422074103,0.07609635538695278,9.112012291666666,0.4739880833333333,-3.693838166666666
1403715886599058000,-0.003490658503988659,0.01815142422074103,0.07749261878854824,9.062979041666667,0.416782625,-3.6448049166666663
1403715886604058000,-0.006283185307179587,0.020943951023931952,0.07749261878854824,9.07115125,0.392266,-3.6039438749999997
1403715886609058000,-0.004886921905584123,0.016755160819145562,0.07330382858376185,9.144701125,0.40861041666666664,-3.6284604999999996
1403715886614058000,-0.0041887902047863905,0.01884955592153876,0.07120943348136866,9.103840083333333,0.4494714583333333,-3.6448049166666663
1403715886619058000,-0.004886921905584123,0.02024581932313422,0.07749261878854824,9.103840083333333,0.40861041666666664,-3.6611493333333334
1403715886624058000,-0.0020943951023931952,0.01884955592153876,0.07539822368615504,9.112012291666666,0.40861041666666664,-3.6448049166666663
1403715886629058000,-0.0020943951023931952,0.016057029118347832,0.07539822368615504,9.062979041666667,0.3840937916666667,-3.6529771249999996
1403715886634058000,-0.0013962634015954637,0.016755160819145562,0.07400196028455958,9.079323458333333,0.3759215833333333,-3.6856659583333333
1403715886639058000,0.0,0.01815142422074103,0.07888888219014369,9.030290208333332,0.40861041666666664,-3.6611493333333334
1403715886644058000,-0.0020943951023931952,0.02024581932313422,0.07819075048934597,9.022118,0.43312704166666666,-3.6284604999999996
1403715886649058000,-0.003490658503988659,0.019547687622336492,0.08098327729253688,9.087495666666666,0.43312704166666666,-3.6448049166666663
1403715886654058000,-0.0013962634015954637,0.020943951023931952,0.08098327729253688,9.087495666666666,0.416782625,-3.6284604999999996
1403715886659058000,0.0006981317007977319,0.02234021442552742,0.08028514559173915,9.054806833333332,0.3840937916666667,-3.6448049166666663
1403715886664058000,-0.0041887902047863905,0.02024581932313422,0.07749261878854824,9.087495666666666,0.3840937916666667,-3.6693215416666662
1403715886669058000,-0.0020943951023931952,0.020943951023931952,0.07958701389094143,9.095667875,0.392266,-3.6202882916666663
1403715886674058000,-0.0020943951023931952,0.02024581932313422,0.07609635538695278,9.1201845,0.3840937916666667,-3.6366327083333334
1403715886679058000,-0.004886921905584123,0.016057029118347832,0.07819075048934597,9.087495666666666,0.392266,-3.6202882916666663
1403715886684058000,-0.003490658503988659,0.019547687622336492,0.07819075048934597,9.038462416666666,0.3840937916666667,-3.6202882916666663
1403715886689058000,-0.003579668700695038,0.020695863291621208,0.07625894248485565,9.062817573547363,0.41708293557167053,-3.6635260581970215
1403715886694058000,-0.0015338733792304993,0.019982686266303062,0.07767344266176224,9.054805755615234,0.4251789152622223,-3.6552512645721436
1403715886699058000,-0.00358012318611145,0.023497087880969048,0.07277920842170715,9.062828063964844,0.35983002185821533,-3.6304121017456055
1403715886704058000,-0.0021911785006523132,0.021397126838564873,0.07416486740112305,9.087312698364258,0.4415954053401947,-3.655323028564453
1403715886709058000,-0.0015139877796173096,0.017167842015624046,0.07634319365024567,9.062809944152832,0.4334397614002228,-3.655190944671631
1403715886714058000,-0.002197064459323883,0.020672587677836418,0.07420274615287781,9.046412467956543,0.35164400935173035,-3.646766424179077
1403715886719058000,-0.0021727457642555237,0.022775067016482353,0.07556243240833282,9.13621997833252,0.4577578604221344,-3.704653263092041
1403715886724058000,-0.0015202835202217102,0.02000429667532444,0.07699485868215561,9.062627792358398,0.38424792885780334,-3.679611921310425
1403715886729058000,-0.003594733774662018,0.02350333146750927,0.07694511860609055,9.1034574508667,0.351571649312973,-3.663267135620117
1403715886734058000,-0.0007840916514396667,0.01789133809506893,0.07839520275592804,9.103658676147461,0.4088444411754608,-3.6634562015533447
1403715886739058000,-0.0014958307147026062,0.022046001628041267,0.07839664816856384,9.087242126464844,0.3839833736419678,-3.646778106689453
1403715886744058000,-0.0022047385573387146,0.024199487641453743,0.07904118299484253,9.111637115478516,0.3680731952190399,-3.6387405395507812
1403715886749058000,0.0006152316927909851,0.02071296237409115,0.07978939265012741,9.046464920043945,0.41718894243240356,-3.638921022415161
1403715886754058000,-0.0014987587928771973,0.02418524958193302,0.0769387036561966,9.046433448791504,0.4250032305717468,-3.655294418334961
1403715886759058000,-0.0028927624225616455,0.022066114470362663,0.07762973010540009,9.030264854431152,0.44162511825561523,-3.679957628250122
1403715886764058000,-8.189678192138672e-05,0.022755341604351997,0.07770279049873352,9.030280113220215,0.43346837162971497,-3.6388943195343018
1403715886769058000,-0.002199910581111908,0.021372182294726372,0.07486827671527863,9.038299560546875,0.4002424478530884,-3.654996871948242
1403715886774058000,-0.00290689617395401,0.02279159240424633,0.07349418103694916,9.079060554504395,0.40893176198005676,-3.663292169570923
1403715886779058000,-0.003569193184375763,0.02348156087100506,0.07351607829332352,9.087200164794922,0.3925211727619171,-3.6223621368408203
1403715886784058000,-0.002212248742580414,0.02207750640809536,0.07484899461269379,9.08725643157959,0.4084973931312561,-3.6143312454223633
1403715886789058000,-0.004296720027923584,0.019999807700514793,0.07489195466041565,9.046436309814453,0.4170089662075043,-3.647083044052124
1403715886794058000,0.0013112500309944153,0.017845163121819496,0.07767251878976822,9.046361923217773,0.40868276357650757,-3.646984577178955
1403715886799058000,-0.0014882087707519531,0.019271375611424446,0.0769624188542366,9.070960998535156,0.3760806918144226,-3.64687442779541
1403715886804058000,-0.0015204474329948425,0.01857641153037548,0.07698926329612732,9.079222679138184,0.4417121410369873,-3.6470675468444824
1403715886809058000,-0.00286700576543808,0.021396880969405174,0.07558807730674744,9.079167366027832,0.4007301330566406,-3.6304636001586914
1403715886814058000,-0.0015250369906425476,0.020004158839583397,0.0755673423409462,9.087257385253906,0.40054839849472046,-3.630610227584839
1403715886819058000,-0.0028923898935317993,0.019272902980446815,0.07490024715662003,9.070908546447754,0.40081101655960083,-3.6306281089782715
1403715886824058000,-0.0007878169417381287,0.021407751366496086,0.07490572333335876,9.062692642211914,0.3517870306968689,-3.695929765701294
1403715886829058000,-0.004286453127861023,0.01928393729031086,0.07975093275308609,9.11186408996582,0.4495422840118408,-3.6719343662261963
1403715886834058000,-0.0050230249762535095,0.0192901361733675,0.07488138973712921,9.079150199890137,0.4087010324001312,-3.630592107772827
1403715886839058000,-0.0028727129101753235,0.024887794628739357,0.07626655697822571,9.062715530395508,0.3761446475982666,-3.6468617916107178
1403715886844058000,-0.00010795891284942627,0.020013989880681038,0.07906640321016312,9.062788009643555,0.39214324951171875,-3.638709783554077
1403715886849058000,-0.002876587212085724,0.01859084703028202,0.07627751678228378,9.054654121398926,0.40886998176574707,-3.67158842086792
1403715886854058000,-0.0035668015480041504,0.02205801196396351,0.07420021295547485,9.070956230163574,0.4661906659603119,-3.655552864074707
1403715886859058000,-0.0036065876483917236,0.022071903571486473,0.07559226453304291,9.071043968200684,0.4250301718711853,-3.6552984714508057
1403715886864058000,-0.0050178393721580505,0.02138870395720005,0.07344938814640045,9.087278366088867,0.3924253284931183,-3.622389078140259
1403715886869058000,-0.005644567310810089,0.017924239858984947,0.07771950960159302,9.070956230163574,0.3844936192035675,-3.663271903991699
1403715886874058000,-0.002182088792324066,0.01787741668522358,0.07698612660169601,9.062743186950684,0.3844631612300873,-3.663269281387329
1403715886879058000,-0.0036144256591796875,0.019939890131354332,0.07411830127239227,9.030109405517578,0.40060001611709595,-3.6387457847595215
1403715886884058000,-0.002200476825237274,0.017884498462080956,0.07771091908216476,9.08732795715332,0.45787161588668823,-3.630871057510376
1403715886889058000,-7.852166891098022e-05,0.020009027794003487,0.07697544991970062,9.054631233215332,0.4251275062561035,-3.6388096809387207
1403715886894058000,-0.0042947158217430115,0.021383849903941154,0.07485111057758331,9.062792778015137,0.3842739760875702,-3.663426399230957
1403715886899058000,-9.097903966903687e-05,0.01859084703028202,0.0728456974029541,9.062772750854492,0.40892109274864197,-3.6469497680664062
1403715886904058000,0.0006103366613388062,0.019986407831311226,0.07554227858781815,9.038280487060547,0.4332737922668457,-3.6469123363494873
1403715886909058000,0.0005660206079483032,0.015803320333361626,0.07626485824584961,9.095434188842773,0.42504236102104187,-3.647006034851074
1403715886914058000,-0.002167634665966034,0.01856585033237934,0.07634913921356201,9.087320327758789,0.4005715250968933,-3.655176877975464
1403715886919058000,0.0012981966137886047,0.018575778231024742,0.07622791826725006,9.038195610046387,0.38425618410110474,-3.6223480701446533
1403715886924058000,-0.002919621765613556,0.0172183308750391,0.07624855637550354,9.095441818237305,0.40084490180015564,-3.647000312805176
1403715886929058000,-0.003595501184463501,0.0178841482847929,0.07770698517560959,9.0709867477417,0.4332382380962372,-3.6634769439697266
1403715886934058000,0.0006327107548713684,0.019272474572062492,0.07557922601699829,9.038190841674805,0.36776500940322876,-3.646803855895996
1403715886939058000,-0.0008339956402778625,0.0193073321133852,0.0741933137178421,9.070938110351562,0.3843201994895935,-3.663315773010254
1403715886944058000,-0.0035737231373786926,0.017930148169398308,0.07630370557308197,9.03024673461914,0.35987287759780884,-3.6221892833709717
1403715886949058000,-0.004264421761035919,0.018625883385539055,0.07347893714904785,9.087264060974121,0.36816591024398804,-3.646817684173584
1403715886954058000,-0.005028285086154938,0.022778110578656197,0.07419567555189133,9.079185485839844,0.4170188307762146,-3.655238628387451
1403715886959058000,-0.004993759095668793,0.017887583002448082,0.07630767673254013,9.030138969421387,0.4087991714477539,-3.671628475189209
1403715886964058000,-0.0028430521488189697,0.020011501386761665,0.07764735072851181,9.046441078186035,0.400774210691452,-3.6798384189605713
1403715886969058000,-0.001496635377407074,0.023471930995583534,0.08046646416187286,9.071111679077148,0.44161832332611084,-3.671682596206665
1403715886974058000,-0.0022247135639190674,0.020680321380496025,0.07627802342176437,9.103618621826172,0.4087207317352295,-3.622391939163208
1403715886979058000,-0.0007901862263679504,0.016488561406731606,0.07554177194833755,9.087180137634277,0.4085264503955841,-3.6469786167144775
1403715886984058000,-0.004290170967578888,0.019283832982182503,0.07630431652069092,9.070900917053223,0.41703781485557556,-3.630723714828491
1403715886989058000,-0.003606542944908142,0.019973212853074074,0.07698284089565277,9.087223052978516,0.4004961848258972,-3.6306498050689697
1403715886994058000,-0.0035610422492027283,0.019952857866883278,0.07766236364841461,9.103645324707031,0.4414834678173065,-3.6637086868286133
1403715886999058000,-0.0022064968943595886,0.023505399003624916,0.07908323407173157,9.062774658203125,0.4333931803703308,-3.6716651916503906
1403715887004058000,-0.0042894259095191956,0.021402115002274513,0.07624532282352448,9.095413208007812,0.3759610056877136,-3.663235664367676
1403715887009058000,-0.0021887198090553284,0.018526969477534294,0.07556861639022827,9.128067970275879,0.4496769905090332,-3.6798312664031982
1403715887014058000,-0.0008040592074394226,0.022770429030060768,0.07420012354850769,9.111721992492676,0.4498295187950134,-3.63883638381958
1403715887019058000,0.0005834624171257019,0.022788161411881447,0.07695158571004868,9.087242126464844,0.42518681287765503,-3.6388473510742188
1403715887024058000,-0.0014618709683418274,0.01927977241575718,0.07839180529117584,9.079026222229004,0.4251977503299713,-3.6472198963165283
1403715887029058000,-0.0035829171538352966,0.022075744345784187,0.07558456808328629,9.046367645263672,0.40866509079933167,-3.6552441120147705
1403715887034058000,-0.005698390305042267,0.024182027205824852,0.0748683363199234,9.054667472839355,0.38436293601989746,-3.6798160076141357
1403715887039058000,-0.0035987496376037598,0.01785610057413578,0.07418796420097351,9.079205513000488,0.44988465309143066,-3.6717007160186768
1403715887044058000,0.002699337899684906,0.022079436108469963,0.0769691988825798,9.070878028869629,0.40044286847114563,-3.646747589111328
1403715887049058000,0.0020049065351486206,0.02347704954445362,0.07628720253705978,9.05449104309082,0.41681358218193054,-3.638720989227295
1403715887054058000,0.002001754939556122,0.01998773030936718,0.07907532155513763,9.038410186767578,0.4006587862968445,-3.59775972366333
1403715887059058000,-0.0008029192686080933,0.022101299837231636,0.08045687526464462,9.054634094238281,0.3761678636074066,-3.6714863777160645
1403715887064058000,-0.0022235289216041565,0.01860062964260578,0.07207820564508438,9.054472923278809,0.3926159739494324,-3.6798439025878906
1403715887069058000,-0.002173781394958496,0.019946249201893806,0.08045171946287155,9.054742813110352,0.4089098572731018,-3.622556686401367
1403715887074058000,-0.005654036998748779,0.02416330762207508,0.07558475434780121,9.1035795211792,0.4089287519454956,-3.679746627807617
1403715887079058000,-0.004991210997104645,0.01859915815293789,0.07625596225261688,9.095489501953125,0.46612510085105896,-3.638935089111328
1403715887084058000,-0.0036208704113960266,0.019994406029582024,0.07494532316923141,9.046462059020996,0.37626373767852783,-3.5894925594329834
1403715887089058000,-0.006384514272212982,0.01925586350262165,0.07415544986724854,9.08725643157959,0.41705358028411865,-3.6553940773010254
1403715887094058000,-0.000786416232585907,0.019984638318419456,0.07695335149765015,9.128039360046387,0.4333660304546356,-3.6552681922912598
1403715887099058000,-0.0007820054888725281,0.019983896985650063,0.07629790902137756,9.054583549499512,0.4331848621368408,-3.6226539611816406
1403715887104058000,-0.0022082626819610596,0.023511653766036034,0.07271744310855865,9.087288856506348,0.3924919068813324,-3.655252456665039
1403715887109058000,-0.003583155572414398,0.017883898690342903,0.07700790464878082,9.095534324645996,0.4251226782798767,-3.6223385334014893
1403715887114058000,-0.0015191063284873962,0.02205788530409336,0.07704643905162811,9.103490829467773,0.40879717469215393,-3.630511522293091
1403715887119058000,-0.004293300211429596,0.019311150535941124,0.07482804358005524,9.103589057922363,0.40876689553260803,-3.622588872909546
1403715887124058000,-0.004274182021617889,0.021369559690356255,0.07769010961055756,9.04660701751709,0.4170420467853546,-3.614252805709839
1403715887129058000,-0.0028858184814453125,0.0213919784873724,0.07694444060325623,9.03823184967041,0.4088900685310364,-3.663583517074585
1403715887134058000,-0.0015531033277511597,0.01580384559929371,0.07901476323604584,9.071110725402832,0.4578216075897217,-3.6555562019348145
1403715887139058000,-0.0007774308323860168,0.01856866665184498,0.07844317704439163,9.06293773651123,0.4332617521286011,-3.6388368606567383
1403715887144058000,-0.004242025315761566,0.02067393623292446,0.07625169306993484,9.030139923095703,0.38427039980888367,-3.646918535232544
1403715887149058000,-0.0029046162962913513,0.01929284818470478,0.07625874131917953,9.06278133392334,0.4088272750377655,-3.671534776687622
1403715887154058000,-0.0021966472268104553,0.02350311540067196,0.07560759782791138,9.04651927947998,0.44149550795555115,-3.6470870971679688
1403715887159058000,-0.0028821900486946106,0.023503268137574196,0.07763397693634033,9.08730411529541,0.40880346298217773,-3.6635777950286865
1403715887164058000,-0.0021672844886779785,0.018562423065304756,0.08118864893913269,9.095441818237305,0.44952964782714844,-3.680089235305786
1403715887169058000,-0.0028821155428886414,0.02134169079363346,0.07627184689044952,9.046363830566406,0.4333615005016327,-3.6470389366149902
1403715887174058000,-0.00011333823204040527,0.02209908328950405,0.07691972702741623,9.0709228515625,0.4005776047706604,-3.63879132270813
1403715887179058000,-0.0035902857780456543,0.01785687915980816,0.07910136878490448,9.04658031463623,0.42528873682022095,-3.663439989089966
1403715887184058000,-0.0008037909865379333,0.018591193482279778,0.07696813344955444,9.070926666259766,0.3924245834350586,-3.6305418014526367
1403715887189058000,-0.001482360064983368,0.01928175799548626,0.0713910460472107,9.038198471069336,0.4252462387084961,-3.663430690765381
1403715887194058000,-0.000813506543636322,0.01925378106534481,0.07700774073600769,9.079087257385254,0.3927266597747803,-3.679760456085205
1403715887199058000,-0.001472286880016327,0.022090381011366844,0.07695610076189041,9.046533584594727,0.3843459188938141,-3.638639211654663
1403715887204058000,-0.005689486861228943,0.02002359740436077,0.07769698649644852,9.103713035583496,0.38436365127563477,-3.655141830444336
1403715887209058000,-0.004286326467990875,0.01927541010081768,0.07766751945018768,9.095452308654785,0.42551127076148987,-3.6224489212036133
1403715887214058000,-0.0042882636189460754,0.01717078499495983,0.07899223268032074,9.046394348144531,0.4004770517349243,-3.647005558013916
1403715887219058000,-0.0021956637501716614,0.019261503592133522,0.07491539418697357,9.038241386413574,0.4169296622276306,-3.663543939590454
1403715887224058000,-0.006354190409183502,0.019289901480078697,0.08050236105918884,9.054880142211914,0.4252941906452179,-3.622582197189331
1403715887229058000,-0.0029021576046943665,0.02139485441148281,0.08112698793411255,9.087336540222168,0.40884682536125183,-3.671647787094116
1403715887234058000,-0.0036015361547470093,0.01790115050971508,0.07697008550167084,9.079086303710938,0.4005872905254364,-3.6388649940490723
1403715887239058000,-0.0036049485206604004,0.019272318109869957,0.07697136700153351,9.095501899719238,0.4250228703022003,-3.630622386932373
1403715887244058000,0.003428220748901367,0.023492569103837013,0.07971879839897156,9.119782447814941,0.4006257951259613,-3.6796960830688477
1403715887249058000,-0.002199791371822357,0.019272180274128914,0.07978750020265579,9.095407485961914,0.4415287971496582,-3.7045109272003174
1403715887254058000,-0.0022079870104789734,0.020700788125395775,0.07771967351436615,9.04651927947998,0.3924546539783478,-3.630648374557495
1403715887259058000,-0.002875678241252899,0.017899001017212868,0.07691393792629242,9.079073905944824,0.3759443461894989,-3.6469552516937256
1403715887264058000,-0.0036300793290138245,0.020654326304793358,0.07905148714780807,9.1035737991333,0.4089911878108978,-3.6470041275024414
1403715887269058000,-0.002181902527809143,0.02418515272438526,0.07354306429624557,9.070887565612793,0.3844568133354187,-3.638669013977051
1403715887274058000,-0.002168506383895874,0.022803088650107384,0.07625178247690201,9.079120635986328,0.408803254365921,-3.6553730964660645
1403715887279058000,-0.00012117624282836914,0.020708242431282997,0.07486838102340698,9.103514671325684,0.4252239763736725,-3.655155897140503
1403715887284058000,-0.0022197216749191284,0.019980812445282936,0.07420962303876877,9.070846557617188,0.3598449230194092,-3.6222193241119385
1403715887289058000,-0.0007710680365562439,0.01716378517448902,0.07769501209259033,9.079153060913086,0.441481351852417,-3.7044994831085205
1403715887294058000,-0.001477859914302826,0.021373270079493523,0.0776597410440445,9.071060180664062,0.4251716732978821,-3.6469831466674805
1403715887299058000,-0.0056931450963020325,0.022097377106547356,0.0797419622540474,9.070947647094727,0.4004371166229248,-3.6224117279052734
1403715887304058000,-0.0014714151620864868,0.0171749759465456,0.08046528697013855,9.07907485961914,0.449567973613739,-3.6882686614990234
1403715887309058000,0.0005728974938392639,0.017850471660494804,0.0797150731086731,9.079122543334961,0.44955316185951233,-3.704450845718384
1403715887314058000,-0.0015021637082099915,0.02276976965367794,0.07768069952726364,9.087233543395996,0.39220190048217773,-3.6225874423980713
1403715887319058000,0.005522817373275757,0.01787065528333187,0.07842322438955307,9.062637329101562,0.3925498127937317,-3.646949529647827
1403715887324058000,0.0012723132967948914,0.017917880788445473,0.07554426789283752,9.062773704528809,0.3678385317325592,-3.6138510704040527
1403715887329058000,-0.00013862550258636475,0.023525776341557503,0.07557286322116852,9.070908546447754,0.4088253080844879,-3.6550745964050293
1403715887334058000,-0.001460336148738861,0.022075196728110313,0.0769902914762497,9.070902824401855,0.4254116117954254,-3.6391305923461914
1403715887339058000,-0.0015051811933517456,0.026284826919436455,0.07343925535678864,9.046406745910645,0.40883669257164,-3.6140573024749756
1403715887344058000,-0.00011795014142990112,0.02282990701496601,0.0721125453710556,9.103537559509277,0.3926283121109009,-3.6468589305877686
1403715887349058000,-0.0035677626729011536,0.019952906295657158,0.07699696719646454,9.03835391998291,0.4416543245315552,-3.647127628326416
1403715887354058000,0.0012876763939857483,0.02275403030216694,0.08182594925165176,9.05470085144043,0.39233309030532837,-3.6059865951538086
1403715887359058000,-0.0008340552449226379,0.020698854699730873,0.08187361061573029,9.08740234375,0.40064212679862976,-3.647008180618286
1403715887364058000,-0.0014828220009803772,0.01790149323642254,0.07345449179410934,9.087227821350098,0.4414369463920593,-3.6225452423095703
1403715887369058000,-0.002857580780982971,0.021360745653510094,0.07553962618112564,9.038277626037598,0.40862101316452026,-3.6306867599487305
1403715887374058000,-0.003624759614467621,0.01996775157749653,0.07702862471342087,9.087357521057129,0.4169318675994873,-3.6390912532806396
1403715887379058000,-0.003590218722820282,0.02066170983016491,0.07558682560920715,9.095487594604492,0.46601638197898865,-3.647167921066284
1403715887384058000,0.0012921765446662903,0.0200094822794199,0.07626792788505554,9.070843696594238,0.3921999931335449,-3.630488872528076
1403715887389058000,0.0013012513518333435,0.017867589369416237,0.07556337118148804,9.070921897888184,0.4250504672527313,-3.679798126220703
1403715887394058000,-0.0022009089589118958,0.01786026917397976,0.07345110177993774,9.062851905822754,0.42527273297309875,-3.630664348602295
1403715887399058000,-0.003586404025554657,0.022113079205155373,0.07492054253816605,9.095377922058105,0.40876704454421997,-3.679746389389038
1403715887404058000,-0.0029203668236732483,0.02141193486750126,0.07768384367227554,9.06276798248291,0.39271220564842224,-3.6880152225494385
1403715887409058000,-0.0022059157490730286,0.019971275702118874,0.07555902004241943,9.062840461730957,0.40905237197875977,-3.646984577178955
1403715887414058000,-0.005631431937217712,0.019991660490632057,0.07702739536762238,9.070948600769043,0.3596060872077942,-3.6223766803741455
1403715887419058000,-9.889155626296997e-05,0.019975481554865837,0.0776776373386383,9.062695503234863,0.3927321135997772,-3.646843194961548
1403715887424058000,-0.003629229962825775,0.017187686637043953,0.07486304640769958,9.038369178771973,0.41721275448799133,-3.6388707160949707
1403715887429058000,-0.002897791564464569,0.02071026898920536,0.07699550688266754,9.095467567443848,0.4004083275794983,-3.647127866744995
1403715887434058000,-0.002848006784915924,0.022799750789999962,0.07413505762815475,9.103438377380371,0.40080729126930237,-3.646977186203003
1403715887439058000,-0.001520998775959015,0.017893662676215172,0.07487212866544724,9.087218284606934,0.41696697473526,-3.6386773586273193
1403715887444058000,-0.0014919713139533997,0.018582770600914955,0.07846147567033768,9.103694915771484,0.4086337089538574,-3.6306517124176025
1403715887449058000,-0.001481853425502777,0.019258717074990273,0.07972162216901779,9.062793731689453,0.44156166911125183,-3.630734920501709
1403715887454058000,-0.0022073090076446533,0.02136545069515705,0.07622909545898438,9.0545015335083,0.38410693407058716,-3.6550590991973877
1403715887459058000,-0.00430675595998764,0.02211897261440754,0.07768839597702026,9.087334632873535,0.3841761350631714,-3.6634013652801514
1403715887464058000,-0.0007800012826919556,0.019345233216881752,0.07973554730415344,9.071026802062988,0.39267635345458984,-3.638822317123413
1403715887469058000,-0.0022015944123268127,0.0220919381827116,0.0791039690375328,9.062810897827148,0.38425010442733765,-3.614208698272705
1403715887474058000,-0.003603413701057434,0.019957760348916054,0.07634686678647995,9.095463752746582,0.3923289477825165,-3.671475410461426
1403715887479058000,-0.004257954657077789,0.02067931927740574,0.0797094851732254,9.087329864501953,0.44169631600379944,-3.6635584831237793
1403715887484058000,-0.00221417099237442,0.01929091103374958,0.07763789594173431,9.079078674316406,0.40880879759788513,-3.6470444202423096
1403715887489058000,-0.0022009462118148804,0.01927056349813938,0.07488396763801575,9.087272644042969,0.42512479424476624,-3.647104501724243
1403715887494058000,-0.0035567507147789,0.019255297258496284,0.07415586709976196,9.054643630981445,0.47445619106292725,-3.6635518074035645
1403715887499058000,-0.002885855734348297,0.019985413178801537,0.07209797948598862,9.046404838562012,0.4086831212043762,-3.647022247314453
1403715887504058000,-0.002221502363681793,0.01928938739001751,0.07562220096588135,9.07910442352295,0.4332004189491272,-3.67991304397583
1403715887509058000,-0.002186708152294159,0.01996546797454357,0.07628531754016876,9.070944786071777,0.4170806109905243,-3.6470441818237305
1403715887514058000,-0.002864845097064972,0.019282134249806404,0.07903988659381866,9.070950508117676,0.37581562995910645,-3.646883010864258
1403715887519058000,-0.002203337848186493,0.01789134182035923,0.07835995405912399,9.087331771850586,0.4169251322746277,-3.6144137382507324
1403715887524058000,-0.0008130446076393127,0.015761638060212135,0.07763665914535522,9.070969581604004,0.46594882011413574,-3.6472012996673584
1403715887529058000,-0.002191491425037384,0.024177441373467445,0.0762782096862793,9.103435516357422,0.40052297711372375,-3.6879985332489014
1403715887534058000,-0.0021836981177330017,0.020703809335827827,0.07565203309059143,9.054457664489746,0.37622013688087463,-3.7123446464538574
1403715887539058000,-0.003577686846256256,0.019305257126688957,0.07698487490415573,9.054695129394531,0.4171908497810364,-3.6552562713623047
1403715887544058000,-0.00359431654214859,0.022791536524891853,0.0776568204164505,9.071030616760254,0.39249739050865173,-3.655019998550415
1403715887549058000,-0.0056706443428993225,0.022047320380806923,0.0776599645614624,9.07103157043457,0.4253925681114197,-3.655259847640991
1403715887554058000,-0.0008104220032691956,0.019273487851023674,0.0769387036561966,9.079062461853027,0.42521336674690247,-3.6306731700897217
1403715887559058000,-0.0028875023126602173,0.01861034519970417,0.07416333258152008,9.11169719696045,0.40880587697029114,-3.6389753818511963
1403715887564058000,-0.002193547785282135,0.015774698927998543,0.07768971472978592,9.111663818359375,0.4171643555164337,-3.6634984016418457
1403715887569058000,-0.0007820278406143188,0.021330805495381355,0.07978945225477219,9.05461311340332,0.4086899161338806,-3.6306354999542236
1403715887574058000,0.0019678547978401184,0.01928732730448246,0.07975676655769348,9.046512603759766,0.4166943430900574,-3.638796806335449
1403715887579058000,-0.0007871761918067932,0.020719440653920174,0.07625993341207504,9.103555679321289,0.4253048598766327,-3.6551337242126465
1403715887584058000,-0.002873040735721588,0.019268611446022987,0.07484280318021774,9.070893287658691,0.44140124320983887,-3.6388041973114014
1403715887589058000,-0.0029099881649017334,0.02208566479384899,0.07558871805667877,9.103605270385742,0.36783596873283386,-3.630549669265747
1403715887594058000,-0.004320979118347168,0.020688721910119057,0.07840855419635773,9.10362434387207,0.425456166267395,-3.679964542388916
1403715887599058000,-0.002178981900215149,0.021412650123238564,0.07907254993915558,9.06277084350586,0.3925119936466217,-3.6388542652130127
1403715887604058000,-0.001485683023929596,0.02070326916873455,0.07418655604124069,9.078993797302246,0.34337908029556274,-3.6713547706604004
1403715887609058000,0.0005896985530853271,0.017846589908003807,0.07556582987308502,9.038406372070312,0.4582177698612213,-3.6471238136291504
1403715887614058000,-9.644776582717896e-05,0.02138420008122921,0.0755515843629837,9.062813758850098,0.4415067434310913,-3.6060166358947754
1403715887619058000,-0.002193734049797058,0.020707322284579277,0.07557608932256699,9.05458927154541,0.3759775161743164,-3.6387550830841064
1403715887624058000,-0.0014936551451683044,0.0192603450268507,0.0811794251203537,9.079219818115234,0.4417354464530945,-3.6472561359405518
1403715887629058000,-0.002880476415157318,0.02349579520523548,0.08043826371431351,9.071015357971191,0.4412829577922821,-3.6308603286743164
1403715887634058000,-0.0007926598191261292,0.022109387442469597,0.07698746025562286,9.038158416748047,0.3351131081581116,-3.671370029449463
1403715887639058000,-0.00011091679334640503,0.019286921247839928,0.07630860060453415,9.103577613830566,0.4335940480232239,-3.6634364128112793
1403715887644058000,-0.0008144304156303406,0.02137073688209057,0.07692249864339828,9.079201698303223,0.4248093068599701,-3.630518674850464
1403715887649058000,-0.004978753626346588,0.01926695741713047,0.07557525485754013,9.128023147583008,0.39224371314048767,-3.6798532009124756
1403715887654058000,-0.0056936368346214294,0.01715882681310177,0.07562698423862457,9.070901870727539,0.4010246694087982,-3.6306586265563965
1403715887659058000,-0.004299253225326538,0.018599579110741615,0.07695532590150833,9.070963859558105,0.3840423822402954,-3.6224241256713867
1403715887664058000,-0.0028929486870765686,0.02209770865738392,0.07489125430583954,9.127974510192871,0.40881508588790894,-3.6635475158691406
1403715887669058000,-0.0035662204027175903,0.015086935833096504,0.07420093566179276,9.119884490966797,0.41726985573768616,-3.655197858810425
1403715887674058000,0.001287110149860382,0.01929900236427784,0.07762955129146576,9.08718490600586,0.35948237776756287,-3.6468276977539062
1403715887679058000,-0.0008156821131706238,0.020009750500321388,0.07628484070301056,9.087188720703125,0.3844204545021057,-3.6878037452697754
1403715887684058000,-0.0014973506331443787,0.01787503995001316,0.07563886791467667,9.095477104187012,0.4254828095436096,-3.6796460151672363
1403715887689058000,-0.0028702691197395325,0.02140914835035801,0.07699938863515854,9.046432495117188,0.3676545321941376,-3.6468472480773926
1403715887694058000,-0.00361449271440506,0.024208659306168556,0.07766370475292206,9.095453262329102,0.3843722641468048,-3.6552412509918213
1403715887699058000,-0.002891361713409424,0.021395182237029076,0.07626839727163315,9.06274700164795,0.4252108335494995,-3.6551897525787354
1403715887704058000,-0.0014961957931518555,0.021378235891461372,0.07485037297010422,9.06265926361084,0.40854865312576294,-3.6552860736846924
1403715887709058000,0.0005945786833763123,0.019282596185803413,0.07904057949781418,9.07923698425293,0.4497329294681549,-3.647291898727417
1403715887714058000,0.0005883648991584778,0.019275395199656487,0.07422506809234619,9.070917129516602,0.40882939100265503,-3.597714424133301
1403715887719058000,-0.004271291196346283,0.019283035770058632,0.0763043463230133,9.070789337158203,0.3675493896007538,-3.638655662536621
1403715887724058000,-0.0035950616002082825,0.016512388363480568,0.07973403483629227,9.062813758850098,0.4089692234992981,-3.647115707397461
1403715887729058000,-0.003590695559978485,0.02067434974014759,0.08042073249816895,9.0384521484375,0.417146235704422,-3.6388468742370605
1403715887734058000,-0.0042690858244895935,0.024879703298211098,0.0783805102109909,9.095458984375,0.3921469748020172,-3.663400173187256
1403715887739058000,-0.0028709694743156433,0.021387973800301552,0.07418595999479294,9.111655235290527,0.43350985646247864,-3.6797919273376465
1403715887744058000,-0.0015183910727500916,0.022799896076321602,0.07628127187490463,9.046420097351074,0.39259180426597595,-3.6387131214141846
1403715887749058000,-0.0015198662877082825,0.01928037591278553,0.07633447647094727,9.062812805175781,0.4085502326488495,-3.6552352905273438
1403715887754058000,-0.0007891431450843811,0.02205456607043743,0.07836169004440308,9.103669166564941,0.4252381920814514,-3.671616315841675
1403715887759058000,-0.0007829368114471436,0.02208508737385273,0.07692098617553711,9.070894241333008,0.40887728333473206,-3.622422933578491
1403715887764058000,-0.0022034719586372375,0.01721959002315998,0.0748802125453949,9.046436309814453,0.384021133184433,-3.6306710243225098
1403715887769058000,-0.0028909966349601746,0.015765735879540443,0.07837668061256409,9.079120635986328,0.3761191666126251,-3.6469507217407227
1403715887774058000,-0.00010700523853302002,0.015742944553494453,0.0797584056854248,9.03831672668457,0.4169694781303406,-3.6224355697631836
1403715887779058000,-0.00011239945888519287,0.021383145824074745,0.07906291633844376,9.046595573425293,0.4087914824485779,-3.606064796447754
1403715887784058000,-0.0007778778672218323,0.01651872880756855,0.07626351714134216,9.054729461669922,0.42507991194725037,-3.6305811405181885
1403715887789058000,-0.003572128713130951,0.020702386274933815,0.07903454452753067,9.046513557434082,0.4575650095939636,-3.6226346492767334
1403715887794058000,-0.0022264644503593445,0.022088104858994484,0.07837525010108948,9.046487808227539,0.43331819772720337,-3.647221803665161
1403715887799058000,-0.0035842284560203552,0.021349189803004265,0.0783705860376358,9.079336166381836,0.4825584292411804,-3.6719632148742676
1403715887804058000,-0.0028706416487693787,0.02140992321074009,0.07553255558013916,9.087309837341309,0.4331367611885071,-3.614320993423462
1403715887809058000,-0.0014833137392997742,0.02066248096525669,0.07694396376609802,9.095291137695312,0.4248998463153839,-3.647127628326416
1403715887814058000,-0.00151912122964859,0.019962841644883156,0.07770727574825287,9.103554725646973,0.43353205919265747,-3.638921022415161
1403715887819058000,-0.002889961004257202,0.01927400939166546,0.07769057899713516,9.070984840393066,0.4169723093509674,-3.6552369594573975
1403715887824058000,-0.003585807979106903,0.024908805266022682,0.0776522159576416,9.095396995544434,0.3842792510986328,-3.6471266746520996
1403715887829058000,-0.002894066274166107,0.017886178568005562,0.07694657146930695,9.111754417419434,0.4498569071292877,-3.6880850791931152
1403715887834058000,-0.0014955773949623108,0.02065255679190159,0.07278408110141754,9.04638385772705,0.3924139142036438,-3.671388626098633
1403715887839058000,-0.0028826966881752014,0.0241925697773695,0.07772094756364822,9.062806129455566,0.36809515953063965,-3.6632611751556396
1403715887844058000,-0.0008135437965393066,0.02279321663081646,0.07631158083677292,9.119991302490234,0.40106284618377686,-3.646885871887207
1403715887849058000,0.0005820542573928833,0.01789567805826664,0.07555299252271652,9.054571151733398,0.4004726707935333,-3.614025354385376
1403715887854058000,-0.0014957860112190247,0.01926746778190136,0.07279618084430695,9.062655448913574,0.3763059973716736,-3.671553134918213
1403715887859058000,-0.004270471632480621,0.018582576885819435,0.07625732570886612,9.062782287597656,0.3519040048122406,-3.6223390102386475
1403715887864058000,-0.0029043182730674744,0.01928822137415409,0.07698842138051987,9.021956443786621,0.3678176999092102,-3.605884552001953
1403715887869058000,-0.001512974500656128,0.020748386159539223,0.07702911645174026,9.046456336975098,0.32731664180755615,-3.654878616333008
1403715887874058000,0.0026943981647491455,0.02002052031457424,0.08043016493320465,9.079224586486816,0.4006519317626953,-3.6468279361724854
1403715887879058000,-0.000764213502407074,0.018567318096756935,0.08253553509712219,9.038310050964355,0.4166536033153534,-3.655219793319702
1403715887884058000,-0.00221358984708786,0.018620600923895836,0.0763106420636177,9.079068183898926,0.3188648521900177,-3.6630866527557373
1403715887889058000,-0.0043076202273368835,0.016509557142853737,0.07696469128131866,9.087454795837402,0.39259669184684753,-3.6387405395507812
1403715887894058000,-0.0022160038352012634,0.0178986806422472,0.07627511024475098,9.05459976196289,0.3760758638381958,-3.614149570465088
1403715887899058000,-0.0014743432402610779,0.01999490149319172,0.07908739894628525,9.095341682434082,0.3515472710132599,-3.638716459274292
1403715887904058000,0.000611819326877594,0.016513796523213387,0.07629173994064331,9.119876861572266,0.4171393811702728,-3.6388235092163086
1403715887909058000,-0.001502305269241333,0.0185988936573267,0.07484681904315948,9.0790376663208,0.41690024733543396,-3.6470682621002197
1403715887914058000,-0.003632090985774994,0.021388648077845573,0.07627592235803604,9.05461597442627,0.36787545680999756,-3.6551284790039062
1403715887919058000,-0.0056855157017707825,0.015792177990078926,0.07490318268537521,9.08736801147461,0.40084898471832275,-3.655146598815918
1403715887924058000,-0.0014935359358787537,0.01793196238577366,0.07835271954536438,9.054659843444824,0.3756820857524872,-3.622285842895508
1403715887929058000,-0.0007847771048545837,0.01932978816330433,0.07978653162717819,9.079136848449707,0.36773133277893066,-3.638676881790161
1403715887934058000,-0.0014882907271385193,0.01928679831326008,0.0769757404923439,9.030275344848633,0.41703328490257263,-3.6224441528320312
1403715887939058000,-0.005687937140464783,0.017895909026265144,0.07417085021734238,9.07099723815918,0.40833842754364014,-3.6225779056549072
1403715887944058000,-0.0029372945427894592,0.01791996695101261,0.0769793763756752,9.103572845458984,0.4087275266647339,-3.6389784812927246
1403715887949058000,-0.0021943822503089905,0.019272414967417717,0.0790518969297409,9.07094955444336,0.4007093906402588,-3.622418165206909
1403715887954058000,0.002008475363254547,0.022076668217778206,0.07626903802156448,9.095345497131348,0.41639718413352966,-3.622408628463745
1403715887959058000,-0.0014649555087089539,0.020733902230858803,0.07418132573366165,9.062703132629395,0.41697975993156433,-3.67147159576416
1403715887964058000,-0.0015380755066871643,0.017914479598402977,0.0748848095536232,9.07905101776123,0.3924676775932312,-3.6796138286590576
1403715887969058000,0.0005797669291496277,0.024162346497178078,0.07559935003519058,9.09549331665039,0.44925057888031006,-3.622555732727051
1403715887974058000,-0.0035874471068382263,0.021379301324486732,0.07696609944105148,9.062844276428223,0.4250533878803253,-3.6389048099517822
1403715887979058000,-7.366389036178589e-05,0.019289029762148857,0.07204832881689072,9.070778846740723,0.3924221694469452,-3.6550188064575195
1403715887984058000,-0.00010176748037338257,0.021391166374087334,0.07348945736885071,9.07094955444336,0.4332127571105957,-3.655257225036621
1403715887989058000,-0.005025096237659454,0.019250215962529182,0.07633530348539352,9.103669166564941,0.4087435305118561,-3.6553428173065186
1403715887994058000,-9.1552734375e-05,0.018543807789683342,0.07975611090660095,9.087259292602539,0.45793214440345764,-3.6389524936676025
1403715887999058000,-8.308887481689453e-05,0.02279030717909336,0.0790407732129097,9.070930480957031,0.4495885670185089,-3.6224939823150635
1403715888004058000,-0.0015001073479652405,0.02140306867659092,0.07693713903427124,9.095333099365234,0.3842066824436188,-3.646899461746216
1403715888009058000,-0.004262588918209076,0.017848243936896324,0.07763443887233734,9.079113006591797,0.4091903865337372,-3.647052049636841
1403715888014058000,-0.005009748041629791,0.015770679339766502,0.07492053508758545,9.04652214050293,0.4332696497440338,-3.6307358741760254
1403715888019058000,-0.0029311254620552063,0.021381104364991188,0.07772031426429749,9.079103469848633,0.39238712191581726,-3.6551780700683594
1403715888024058000,-0.004953101277351379,0.01996641792356968,0.07416441291570663,9.079080581665039,0.4173159897327423,-3.6633858680725098
1403715888029058000,-0.000758044421672821,0.021414192393422127,0.07764242589473724,9.079117774963379,0.3923953175544739,-3.6387553215026855
1403715888034058000,-0.0036243274807929993,0.02141725830733776,0.07908579707145691,9.079185485839844,0.3842763304710388,-3.679715633392334
1403715888039058000,-0.0022272542119026184,0.019953804090619087,0.07696086168289185,9.111776351928711,0.4664640426635742,-3.679906129837036
1403715888044058000,-0.002863571047782898,0.019241923466324806,0.0762704536318779,9.062702178955078,0.465840607881546,-3.67179012298584
1403715888049058000,-0.0028963014483451843,0.01857217587530613,0.07837535440921783,9.062816619873047,0.4005098342895508,-3.6635358333587646
1403715888054058000,-0.000766165554523468,0.020708048716187477,0.07486637681722641,9.07090950012207,0.38461074233055115,-3.630422353744507
1403715888059058000,0.0012865662574768066,0.022799165919423103,0.07422725856304169,9.054488182067871,0.38425391912460327,-3.6303882598876953
1403715888064058000,-0.0001241341233253479,0.020005779340863228,0.07699982076883316,9.070856094360352,0.3762422502040863,-3.638749837875366
1403715888069058000,-0.004290618002414703,0.020689884200692177,0.07483282685279846,9.06283187866211,0.41725480556488037,-3.6470468044281006
1403715888074058000,-0.0063618868589401245,0.024145321920514107,0.07629020512104034,9.087321281433105,0.43329358100891113,-3.663526773452759
1403715888079058000,-0.0029088854789733887,0.0213839840143919,0.07767726480960846,9.087244033813477,0.39247095584869385,-3.655165433883667
1403715888084058000,-0.0022013485431671143,0.022790098562836647,0.07833117246627808,9.10364818572998,0.43361228704452515,-3.655251979827881
1403715888089058000,-0.0035569071769714355,0.022814573720097542,0.07842232286930084,9.070954322814941,0.40068936347961426,-3.6305508613586426
1403715888094058000,-0.004278488457202911,0.020648719742894173,0.07626713812351227,9.062736511230469,0.42501717805862427,-3.655256509780884
1403715888099058000,0.0005656182765960693,0.019247470423579216,0.07622164487838745,9.046438217163086,0.4334561228752136,-3.6717257499694824
1403715888104058000,0.0005979463458061218,0.017898330464959145,0.07911214977502823,9.07915210723877,0.38423076272010803,-3.630671977996826
1403715888109058000,-0.0028594881296157837,0.020678633823990822,0.07905992120504379,9.111783027648926,0.3842771351337433,-3.6224682331085205
1403715888114058000,-9.174644947052002e-05,0.017174893990159035,0.07486094534397125,9.119791984558105,0.38440781831741333,-3.6468324661254883
1403715888119058000,-0.004335768520832062,0.01930955983698368,0.07561491429805756,9.062766075134277,0.3758309781551361,-3.622274160385132
1403715888124058000,-0.0022073909640312195,0.018608609214425087,0.07905159145593643,9.038352966308594,0.36784982681274414,-3.622321605682373
1403715888129058000,-7.276982069015503e-05,0.01719447784125805,0.07835980504751205,9.09544849395752,0.38449230790138245,-3.6387083530426025
1403715888134058000,0.00197003036737442,0.017887504771351814,0.07627949118614197,9.087254524230957,0.4576681852340698,-3.6389026641845703
1403715888139058000,-0.004277713596820831,0.022093312814831734,0.07624591886997223,9.054654121398926,0.4087958037853241,-3.647136688232422
1403715888144058000,-0.0022027790546417236,0.020015796646475792,0.07836940884590149,9.079144477844238,0.3843480348587036,-3.6551854610443115
1403715888149058000,-0.0029074251651763916,0.02209693007171154,0.07771890610456467,9.095463752746582,0.40870437026023865,-3.663334846496582
1403715888154058000,-0.004299692809581757,0.02212645672261715,0.07489375025033951,9.079018592834473,0.3435220420360565,-3.6795623302459717
1403715888159058000,-0.0028196126222610474,0.020682482048869133,0.076252281665802,9.09548568725586,0.4333931803703308,-3.6390209197998047
1403715888164058000,-0.004308983683586121,0.01926482655107975,0.07628028094768524,9.070958137512207,0.4412376880645752,-3.647153377532959
1403715888169058000,-0.0015509054064750671,0.020685801282525063,0.07767205685377121,9.11169719696045,0.4248811602592468,-3.647181987762451
1403715888174058000,-0.00356852263212204,0.020692678168416023,0.07838299870491028,9.103625297546387,0.3762061297893524,-3.6387534141540527
1403715888179058000,0.0006121918559074402,0.01788237877190113,0.07485099881887436,9.03820514678955,0.40867123007774353,-3.6387991905212402
1403715888184058000,-0.0021935924887657166,0.018594110384583473,0.07695929706096649,9.079002380371094,0.38412970304489136,-3.6551148891448975
1403715888189058000,-0.005689516663551331,0.020673813298344612,0.07909398525953293,9.087355613708496,0.41713112592697144,-3.6552438735961914
1403715888194058000,-0.0008024200797080994,0.02136523835361004,0.07697057723999023,9.06286334991455,0.4415036141872406,-3.6389095783233643
1403715888199058000,-0.004319705069065094,0.02350717969238758,0.07908178865909576,9.087387084960938,0.39238545298576355,-3.647006034851074
1403715888204058000,-0.003555901348590851,0.019983923062682152,0.08042709529399872,9.103602409362793,0.4745955765247345,-3.6636688709259033
1403715888209058000,-0.004939265549182892,0.017847692593932152,0.07550810277462006,9.079069137573242,0.5066958069801331,-3.6474573612213135
1403715888214058000,-0.002247817814350128,0.01923883520066738,0.07909724116325378,9.062864303588867,0.42487335205078125,-3.614419937133789
1403715888219058000,-0.001506522297859192,0.01718139462172985,0.07627551257610321,9.07905387878418,0.3923454284667969,-3.6469833850860596
1403715888224058000,-0.003550805151462555,0.020679624751210213,0.07623260468244553,9.070844650268555,0.4413369297981262,-3.671692132949829
1403715888229058000,-0.0014717057347297668,0.024192849174141884,0.07633983343839645,9.054611206054688,0.40884894132614136,-3.6469759941101074
1403715888234058000,-0.004320196807384491,0.02209615521132946,0.07625816017389297,9.087340354919434,0.3762042820453644,-3.6469175815582275
1403715888239058000,-0.0035887137055397034,0.018575111404061317,0.0790322870016098,9.06285285949707,0.44132092595100403,-3.647096633911133
1403715888244058000,-0.0035717934370040894,0.01927036978304386,0.07562945783138275,9.030121803283691,0.4006052613258362,-3.6796722412109375
1403715888249058000,-0.0036040842533111572,0.019269617274403572,0.07554128766059875,9.046500205993652,0.36841511726379395,-3.6796889305114746
1403715888254058000,-0.004261836409568787,0.019276710227131844,0.07489572465419769,9.046563148498535,0.4172069728374481,-3.647040367126465
1403715888259058000,-0.003596976399421692,0.02143651433289051,0.07702703773975372,9.030145645141602,0.3678344190120697,-3.6222169399261475
1403715888264058000,-0.00569789856672287,0.01788799650967121,0.0804443508386612,9.087394714355469,0.38467279076576233,-3.6306252479553223
1403715888269058000,-0.0035857483744621277,0.02202904410660267,0.07694315910339355,9.079172134399414,0.4908049702644348,-3.6228084564208984
1403715888274058000,0.0006211027503013611,0.018579969182610512,0.0762409120798111,9.087117195129395,0.4412226378917694,-3.655384063720703
1403715888279058000,-0.002195030450820923,0.01929520256817341,0.07697629928588867,9.087191581726074,0.37633323669433594,-3.6714961528778076
1403715888284058000,-0.002192847430706024,0.018599728122353554,0.07839125394821167,9.070977210998535,0.4004855155944824,-3.6469225883483887
1403715888289058000,0.0006023868918418884,0.019296029582619667,0.07560455799102783,9.079086303710938,0.39212384819984436,-3.655057191848755
1403715888294058000,-0.0008307173848152161,0.019296301528811455,0.07767866551876068,9.119911193847656,0.39265698194503784,-3.663266658782959
1403715888299058000,-0.002173192799091339,0.01717686466872692,0.078346848487854,9.070941925048828,0.41705775260925293,-3.679795742034912
1403715888304058000,-0.004951946437358856,0.020660297945141792,0.07766371965408325,9.062851905822754,0.42485034465789795,-3.6472532749176025
1403715888309058000,-0.00363815575838089,0.018579604104161263,0.07629633694887161,9.07914924621582,0.3682798147201538,-3.6469342708587646
1403715888314058000,-0.0029035285115242004,0.017195748165249825,0.07902971655130386,9.054682731628418,0.42536428570747375,-3.614413022994995
1403715888319058000,-7.481873035430908e-05,0.02142799086868763,0.0748814046382904,9.046441078186035,0.38424354791641235,-3.62227725982666
1403715888324058000,-0.0028728917241096497,0.019313888624310493,0.07702471315860748,9.087246894836426,0.3438240885734558,-3.6467957496643066
1403715888329058000,0.0019624605774879456,0.01931806467473507,0.07698686420917511,9.078948974609375,0.3761409819126129,-3.6549742221832275
1403715888334058000,-0.002881966531276703,0.026278609409928322,0.07694021612405777,9.079167366027832,0.45763927698135376,-3.647188186645508
1403715888339058000,-0.004296444356441498,0.02280517853796482,0.0769762322306633,9.04658031463623,0.40089449286460876,-3.630547523498535
1403715888344058000,-0.003563329577445984,0.02277105487883091,0.07625477015972137,9.079080581665039,0.3923671245574951,-3.6305994987487793
1403715888349058000,-0.00500863790512085,0.01930014230310917,0.07696710526943207,9.095437049865723,0.40007123351097107,-3.6306772232055664
1403715888354058000,-0.004999957978725433,0.0206915233284235,0.07982893288135529,9.079195976257324,0.3677998185157776,-3.6305928230285645
1403715888359058000,-0.004282891750335693,0.01995267905294895,0.07974276691675186,9.046542167663574,0.42536935210227966,-3.64721417427063
1403715888364058000,-0.003598421812057495,0.017888760194182396,0.07831680774688721,9.07105827331543,0.4574113190174103,-3.6555168628692627
1403715888369058000,-0.003594815731048584,0.01720241643488407,0.07560275495052338,9.070919036865234,0.3760035037994385,-3.6796836853027344
1403715888374058000,-8.165836334228516e-05,0.017143497243523598,0.07556921243667603,9.111711502075195,0.40083861351013184,-3.68790864944458
1403715888379058000,0.0020015165209770203,0.01786169596016407,0.07767088711261749,9.038403511047363,0.47395944595336914,-3.630727529525757
1403715888384058000,-0.0021933093667030334,0.01929127611219883,0.0777013897895813,9.05467414855957,0.4006485641002655,-3.622352361679077
1403715888389058000,-0.007049694657325745,0.019291454926133156,0.07763852179050446,9.103620529174805,0.4499318301677704,-3.680036783218384
1403715888394058000,-0.004307948052883148,0.0171892661601305,0.07694901525974274,9.046480178833008,0.4329304099082947,-3.6472673416137695
1403715888399058000,-0.0022277161478996277,0.02066849358379841,0.07767786830663681,9.070858001708984,0.37613603472709656,-3.663473129272461
1403715888404058000,-0.001467488706111908,0.020011575892567635,0.0797739326953888,9.128031730651855,0.392988920211792,-3.6715176105499268
1403715888409058000,-0.0014703944325447083,0.019989067688584328,0.07698314636945724,9.054561614990234,0.39212310314178467,-3.6467275619506836
1403715888414058000,-0.003619164228439331,0.019993679597973824,0.07906679809093475,9.005745887756348,0.34315213561058044,-3.614060878753662
1403715888419058000,-0.0029117539525032043,0.021407591179013252,0.07489300519227982,9.0383939743042,0.3764892816543579,-3.6386191844940186
1403715888424058000,-0.0007794946432113647,0.017916513606905937,0.07628439366817474,9.070843696594238,0.3924320340156555,-3.6550700664520264
1403715888429058000,-0.002870693802833557,0.024185189977288246,0.07628524303436279,9.103581428527832,0.42517074942588806,-3.663580894470215
1403715888434058000,-0.0007904693484306335,0.023507529869675636,0.07626013457775116,9.079185485839844,0.38471150398254395,-3.6633212566375732
1403715888439058000,0.0005984529852867126,0.019267955794930458,0.08044509589672089,9.030174255371094,0.4328833818435669,-3.6551570892333984
1403715888444058000,0.0005607232451438904,0.02069380320608616,0.07837650924921036,9.062780380249023,0.40057867765426636,-3.622279167175293
1403715888449058000,-0.0021786466240882874,0.022773204371333122,0.07556324452161789,9.087284088134766,0.39280813932418823,-3.638659954071045
1403715888454058000,-0.0035707801580429077,0.01925068162381649,0.07628245651721954,9.103565216064453,0.4495016038417816,-3.639059066772461
1403715888459058000,-0.001520700752735138,0.02417285554111004,0.0790453627705574,9.046469688415527,0.4574958086013794,-3.639124631881714
1403715888464058000,-0.0029178187251091003,0.018609842285513878,0.07347187399864197,9.046433448791504,0.3926246464252472,-3.647055149078369
1403715888469058000,-0.0021662190556526184,0.022051913663744926,0.07351605594158173,9.087369918823242,0.4496641457080841,-3.6470870971679688
1403715888474058000,-0.002175554633140564,0.018585411831736565,0.0755886361002922,9.05459976196289,0.37598034739494324,-3.6631920337677
1403715888479058000,0.0005663260817527771,0.016491955146193504,0.07488831877708435,9.13608169555664,0.36802908778190613,-3.6877400875091553
1403715888484058000,-0.0028922930359840393,0.0150743518024683,0.07421360909938812,9.136239051818848,0.40070003271102905,-3.6305062770843506
1403715888489058000,-0.0028879493474960327,0.020663173869252205,0.07484325021505356,9.030123710632324,0.4005320370197296,-3.6387782096862793
1403715888494058000,-0.00010004639625549316,0.017221039161086082,0.07557343691587448,9.038240432739258,0.3275686800479889,-3.6386144161224365
1403715888499058000,-0.0022096186876296997,0.017219090834259987,0.07844782620668411,9.079134941101074,0.3681740164756775,-3.646843194961548
1403715888504058000,-0.0014797523617744446,0.022814830765128136,0.07906781136989594,9.070799827575684,0.3840637803077698,-3.6388163566589355
1403715888509058000,-0.00011115521192550659,0.02279278077185154,0.08113689720630646,9.070995330810547,0.3599837124347687,-3.6714015007019043
1403715888514058000,0.0019491985440254211,0.023517576977610588,0.0790799930691719,9.103713989257812,0.38427653908729553,-3.64680814743042
1403715888519058000,0.0006135627627372742,0.024247953668236732,0.07832583785057068,9.062775611877441,0.4410921633243561,-3.630671739578247
1403715888524058000,0.004105269908905029,0.023482708260416985,0.07838265597820282,9.062677383422852,0.37613025307655334,-3.6304690837860107
1403715888529058000,-0.0021969154477119446,0.024157730862498283,0.07910016179084778,9.087289810180664,0.4331772029399872,-3.6634767055511475
1403715888534058000,-0.00012626498937606812,0.01789138652384281,0.07763823866844177,9.087237358093262,0.43286460638046265,-3.6553869247436523
1403715888539058000,-0.0028658509254455566,0.02138531394302845,0.0783436968922615,9.022037506103516,0.37599706649780273,-3.622426748275757
1403715888544058000,-0.0036167949438095093,0.017840774729847908,0.0790581926703453,9.062949180603027,0.4006574749946594,-3.6307027339935303
1403715888549058000,-0.0028762593865394592,0.019291160628199577,0.07906497269868851,9.095454216003418,0.37594398856163025,-3.6468396186828613
1403715888554058000,-0.002193562686443329,0.01999242790043354,0.07837143540382385,9.062649726867676,0.4251702129840851,-3.655301332473755
1403715888559058000,-0.0036050155758857727,0.018586942926049232,0.07836990058422089,9.111837387084961,0.41731271147727966,-3.688091278076172
1403715888564058000,-0.004974573850631714,0.016435785219073296,0.07485821843147278,9.0711669921875,0.4985009729862213,-3.647367238998413
1403715888569058000,-8.856505155563354e-05,0.01998049207031727,0.0735081359744072,9.0626859664917,0.37613654136657715,-3.6058237552642822
1403715888574058000,-0.0029146894812583923,0.018623998388648033,0.07002092897891998,9.08705997467041,0.34374648332595825,-3.6712896823883057
1403715888579058000,-0.004983596503734589,0.015789838507771492,0.07209191471338272,9.103506088256836,0.4250762462615967,-3.679814338684082
1403715888584058000,-0.004964254796504974,0.02067784033715725,0.07630173861980438,9.054582595825195,0.40869495272636414,-3.6388931274414062
1403715888589058000,-0.0015429630875587463,0.01720619760453701,0.07487279921770096,9.046476364135742,0.3763241171836853,-3.655069589614868
1403715888594058000,-0.0008046180009841919,0.016493307426571846,0.07417914271354675,9.087318420410156,0.3756925165653229,-3.6549232006073
1403715888599058000,-6.324797868728638e-05,0.024916240945458412,0.07699103653430939,9.087214469909668,0.43333709239959717,-3.663450241088867
1403715888604058000,-0.004289217293262482,0.02280091680586338,0.07976682484149933,9.079073905944824,0.376213937997818,-3.6633753776550293
1403715888609058000,-0.006419606506824493,0.02209954522550106,0.07908892631530762,9.087291717529297,0.3758524954319,-3.6632139682769775
1403715888614058000,-0.0021907761693000793,0.018603796139359474,0.07977061718702316,9.07913589477539,0.400349497795105,-3.6551880836486816
1403715888619058000,-0.004272468388080597,0.021369168534874916,0.07903896272182465,9.095439910888672,0.38457509875297546,-3.6470417976379395
1403715888624058000,-0.0028704404830932617,0.02204914204776287,0.07838903367519379,9.136123657226562,0.3844236731529236,-3.6632978916168213
1403715888629058000,-0.0035711154341697693,0.02069511078298092,0.0790681466460228,9.087220191955566,0.4413413107395172,-3.6389949321746826
1403715888634058000,-0.0022433921694755554,0.022114751860499382,0.0797237902879715,9.054581642150879,0.3762957751750946,-3.6305112838745117
1403715888639058000,-0.0015002712607383728,0.020666757598519325,0.07976200431585312,9.09550952911377,0.38433319330215454,-3.6714699268341064
1403715888644058000,-6.029754877090454e-05,0.01927153579890728,0.07557850331068039,9.062809944152832,0.4332112967967987,-3.6716156005859375
1403715888649058000,-0.0007838010787963867,0.02277052216231823,0.07485747337341309,9.054611206054688,0.45799726247787476,-3.6472275257110596
1403715888654058000,-0.0015285983681678772,0.01930987276136875,0.07421499490737915,9.079090118408203,0.3760868012905121,-3.6467864513397217
1403715888659058000,-0.0015013143420219421,0.019272157922387123,0.07627476006746292,9.054637908935547,0.43312710523605347,-3.6469993591308594
1403715888664058000,-0.00150231271982193,0.019268842414021492,0.07416306436061859,9.046515464782715,0.4088499844074249,-3.614250421524048
1403715888669058000,-0.004271641373634338,0.020693929865956306,0.07559292763471603,9.095474243164062,0.40067675709724426,-3.638864517211914
1403715888674058000,-0.007062412798404694,0.01716517098248005,0.0728108361363411,9.054462432861328,0.40076494216918945,-3.6470236778259277
1403715888679058000,-0.004311881959438324,0.019263403490185738,0.07697582244873047,9.062772750854492,0.43312469124794006,-3.6554014682769775
1403715888684058000,-0.002917774021625519,0.023507246747612953,0.07559027522802353,9.119942665100098,0.3844952881336212,-3.6714890003204346
1403715888689058000,-0.0014639869332313538,0.01860002614557743,0.07906082272529602,9.062776565551758,0.38407033681869507,-3.6713476181030273
1403715888694058000,-5.716085433959961e-05,0.019300414249300957,0.07907547056674957,9.01380729675293,0.39252570271492004,-3.646921396255493
1403715888699058000,0.0026733502745628357,0.019993482157588005,0.07835923135280609,9.071036338806152,0.4088641405105591,-3.6305930614471436
1403715888704058000,-0.0008190050721168518,0.02066616155207157,0.07836276292800903,9.046497344970703,0.4167170524597168,-3.622450351715088
1403715888709058000,-0.0014863312244415283,0.02138812281191349,0.07836697995662689,9.079108238220215,0.4331854581832886,-3.6636457443237305
1403715888714058000,-0.0035765841603279114,0.017908120527863503,0.07555082440376282,9.071050643920898,0.40083760023117065,-3.6471521854400635
1403715888719058000,-0.0022164732217788696,0.023473011329770088,0.0790819302201271,9.070871353149414,0.40071815252304077,-3.6633450984954834
1403715888724058000,-0.0028805360198020935,0.02415088750422001,0.08187026530504227,9.062807083129883,0.4330795109272003,-3.638920783996582
1403715888729058000,-0.0029030367732048035,0.01861012540757656,0.07484425604343414,9.03844928741455,0.4251381754875183,-3.630521297454834
1403715888734058000,0.0005851909518241882,0.018606310710310936,0.07837913930416107,9.095361709594727,0.37613287568092346,-3.679644823074341
1403715888739058000,-9.995698928833008e-05,0.018570324406027794,0.07625677436590195,9.087132453918457,0.38411110639572144,-3.6551380157470703
1403715888744058000,-0.0014676228165626526,0.02064078487455845,0.07625144720077515,9.046516418457031,0.4334585964679718,-3.6471738815307617
1403715888749058000,-9.49278473854065e-05,0.01650911755859852,0.07636004686355591,9.062850952148438,0.3844195008277893,-3.6387412548065186
1403715888754058000,-0.0008054673671722412,0.01720883511006832,0.07624486088752747,9.062836647033691,0.4413645267486572,-3.6552302837371826
1403715888759058000,-0.0014942511916160583,0.019957715645432472,0.07415331900119781,9.079009056091309,0.40084707736968994,-3.646984338760376
1403715888764058000,-0.0035849064588546753,0.019967323169112206,0.07075232267379761,9.10354995727539,0.3926674425601959,-3.6469156742095947
1403715888769058000,-0.0015221759676933289,0.02073240466415882,0.07413514703512192,9.128036499023438,0.44157809019088745,-3.6470327377319336
1403715888774058000,-0.0036059245467185974,0.019298521801829338,0.0769902765750885,9.03006362915039,0.4004923701286316,-3.6551551818847656
1403715888779058000,-0.00498335063457489,0.01997021771967411,0.07633796334266663,9.07099437713623,0.37629440426826477,-3.622450113296509
1403715888784058000,0.000605069100856781,0.023485591635107994,0.07972373068332672,9.095462799072266,0.41690126061439514,-3.622375011444092
1403715888789058000,-0.0022056177258491516,0.021412042900919914,0.0790342390537262,9.070916175842285,0.44949984550476074,-3.6226003170013428
1403715888794058000,-0.0007872655987739563,0.022799191996455193,0.07977144420146942,9.070965766906738,0.3842644989490509,-3.646947145462036
1403715888799058000,-8.635222911834717e-05,0.017170416191220284,0.07837235182523727,9.103620529174805,0.3597450256347656,-3.6633193492889404
1403715888804058000,-0.003619380295276642,0.01927356608211994,0.08044667541980743,9.046549797058105,0.40034064650535583,-3.6224753856658936
1403715888809058000,-0.004275672137737274,0.017898602411150932,0.07769076526165009,9.07101058959961,0.39262691140174866,-3.630598545074463
1403715888814058000,-0.0049751028418540955,0.021399160847067833,0.07489684224128723,9.079174041748047,0.39268431067466736,-3.6304943561553955
1403715888819058000,-0.0015276223421096802,0.01719832979142666,0.0748463124036789,9.07905387878418,0.4413118064403534,-3.6389365196228027
1403715888824058000,-0.0008024200797080994,0.019976014271378517,0.07485350966453552,9.030176162719727,0.4333632290363312,-3.6225812435150146
1403715888829058000,-0.0028664395213127136,0.017197975888848305,0.0762806385755539,9.022140502929688,0.3925665318965912,-3.630580186843872
1403715888834058000,-0.0036047473549842834,0.019260389730334282,0.0755634605884552,9.095507621765137,0.45780378580093384,-3.639049768447876
1403715888839058000,-0.0015223696827888489,0.01859920658171177,0.07836170494556427,9.054625511169434,0.42507609724998474,-3.6061573028564453
1403715888844058000,-0.0007784441113471985,0.02001582644879818,0.07630899548530579,9.062775611877441,0.35966062545776367,-3.6058599948883057
1403715888849058000,-0.002873450517654419,0.01720869354903698,0.07416419684886932,9.071033477783203,0.4168221950531006,-3.606009006500244
1403715888854058000,-0.001491941511631012,0.01929420419037342,0.07624946534633636,9.06283187866211,0.44953489303588867,-3.6225812435150146
1403715888859058000,-0.0015265420079231262,0.019295716658234596,0.07490190863609314,9.11978530883789,0.37627357244491577,-3.638829469680786
1403715888864058000,-0.002917051315307617,0.017890146002173424,0.07700420916080475,9.095444679260254,0.3924264907836914,-3.6551833152770996
1403715888869058000,-0.0007820501923561096,0.022094199433922768,0.07628721743822098,9.095383644104004,0.41672515869140625,-3.6223981380462646
1403715888874058000,-0.0014948174357414246,0.022820504382252693,0.07833724468946457,9.0546875,0.4008624255657196,-3.630499839782715
1403715888879058000,-0.003599919378757477,0.02069215662777424,0.07975790649652481,9.079272270202637,0.392585813999176,-3.638796329498291
1403715888884058000,-0.002194903790950775,0.015098387375473976,0.07765192538499832,9.071009635925293,0.41684314608573914,-3.647120714187622
1403715888889058000,-0.0015081912279129028,0.020652415230870247,0.07625401020050049,9.079065322875977,0.4252585768699646,-3.6635689735412598
1403715888894058000,-0.0007972940802574158,0.022092292085289955,0.07842414081096649,9.103537559509277,0.37609317898750305,-3.671520709991455
1403715888899058000,-0.0014607533812522888,0.02348574809730053,0.08256147801876068,9.095582962036133,0.4495755136013031,-3.6472272872924805
1403715888904058000,0.0012900158762931824,0.022114930674433708,0.07971308380365372,9.054715156555176,0.47420623898506165,-3.6144235134124756
1403715888909058000,-0.0008297786116600037,0.019261112436652184,0.07556018233299255,9.103440284729004,0.4004517197608948,-3.671447992324829
1403715888914058000,-0.004971139132976532,0.01713540218770504,0.07624323666095734,9.11166000366211,0.4412386417388916,-3.6554172039031982
1403715888919058000,-0.0035749897360801697,0.01856025867164135,0.076286680996418,9.07091236114502,0.4170787036418915,-3.6553704738616943
1403715888924058000,0.001262672245502472,0.019996801391243935,0.07841479033231735,9.079079627990723,0.4171188473701477,-3.67167329788208
1403715888929058000,-0.004284568130970001,0.019292058423161507,0.07628603279590607,9.119921684265137,0.38423237204551697,-3.6877784729003906
1403715888934058000,-0.003554731607437134,0.019955584779381752,0.07481370866298676,9.013781547546387,0.48238831758499146,-3.630913257598877
1403715888939058000,-0.0021987184882164,0.019280200824141502,0.07767653465270996,9.013911247253418,0.3926941454410553,-3.6387205123901367
1403715888944058000,-0.007806204259395599,0.02275603823363781,0.07628148049116135,9.071084976196289,0.4417290985584259,-3.671686887741089
1403715888949058000,-0.004245229065418243,0.01718773879110813,0.07555851340293884,9.046507835388184,0.4416128396987915,-3.606252908706665
1403715888954058000,-8.285045623779297e-05,0.022083448246121407,0.08049047738313675,9.046488761901855,0.40071624517440796,-3.638976812362671
1403715888959058000,-0.0029340162873268127,0.02071942202746868,0.07627440989017487,9.095332145690918,0.35987046360969543,-3.6795361042022705
1403715888964058000,-7.928162813186646e-05,0.017899708822369576,0.08046910166740417,9.095332145690918,0.3759607970714569,-3.630410671234131
1403715888969058000,-8.558481931686401e-05,0.020664790645241737,0.07908505201339722,9.079032897949219,0.4172534942626953,-3.622447967529297
1403715888974058000,-0.003644190728664398,0.01927216537296772,0.07759300619363785,9.087396621704102,0.39240771532058716,-3.6386361122131348
1403715888979058000,0.0006164535880088806,0.017882918938994408,0.07697603851556778,9.111656188964844,0.4085787236690521,-3.6469268798828125
1403715888984058000,-0.0028615444898605347,0.0185785461217165,0.07560015469789505,9.04638957977295,0.43345803022384644,-3.6309237480163574
1403715888989058000,-0.0015538781881332397,0.019314447417855263,0.07626448571681976,9.079215049743652,0.3844170868396759,-3.6387574672698975
1403715888994058000,-0.004272498190402985,0.021390588954091072,0.07492707669734955,9.111865043640137,0.4250490069389343,-3.6224544048309326
1403715888999058000,-0.005672350525856018,0.019288649782538414,0.07553354650735855,9.022007942199707,0.43332117795944214,-3.6225709915161133
1403715889004058000,0.0005685389041900635,0.021418670192360878,0.0769343227148056,9.070929527282715,0.37619686126708984,-3.655071496963501
1403715889009058000,-0.0014879778027534485,0.019980357959866524,0.07562720030546188,9.07918643951416,0.3924561142921448,-3.6714529991149902
1403715889014058000,-0.0028571337461471558,0.01997092179954052,0.07347212731838226,9.05462646484375,0.4415157437324524,-3.630826473236084
1403715889019058000,-0.002902515232563019,0.01928679831326008,0.07559551298618317,9.062792778015137,0.4171401858329773,-3.6470494270324707
1403715889024058000,-0.0022246763110160828,0.020017320290207863,0.07841730862855911,9.103604316711426,0.34330591559410095,-3.654909372329712
1403715889029058000,-0.0007922723889350891,0.020016493275761604,0.07486526668071747,9.087082862854004,0.37598079442977905,-3.6469290256500244
1403715889034058000,-0.0028687193989753723,0.01718498207628727,0.0769471526145935,9.038397789001465,0.40902045369148254,-3.5570061206817627
1403715889039058000,-0.0036011114716529846,0.020690659061074257,0.07766810804605484,9.111845016479492,0.3925992250442505,-3.630500555038452
1403715889044058000,-0.002932809293270111,0.02208883874118328,0.0776711106300354,9.103437423706055,0.4169293940067291,-3.6799230575561523
1403715889049058000,-0.0035937055945396423,0.018588261678814888,0.07491908967494965,9.030116081237793,0.3923504650592804,-3.647094964981079
1403715889054058000,-0.001478448510169983,0.022817054763436317,0.07766741514205933,9.103684425354004,0.368149995803833,-3.6632726192474365
1403715889059058000,-0.001490272581577301,0.01930336095392704,0.0769566148519516,9.087350845336914,0.4167623221874237,-3.630411386489868
1403715889064058000,-0.002893872559070587,0.01787792332470417,0.07769418507814407,9.070952415466309,0.40872520208358765,-3.5978314876556396
1403715889069058000,-0.0022128447890281677,0.0206871647387743,0.07905476540327072,9.095426559448242,0.3595561981201172,-3.6142005920410156
1403715889074058000,-0.0029042139649391174,0.016506345942616463,0.07484157383441925,9.095423698425293,0.4249326288700104,-3.647155284881592
1403715889079058000,-0.0021782293915748596,0.017181696370244026,0.07559588551521301,9.038201332092285,0.40867918729782104,-3.630756139755249
1403715889084058000,-0.002873159945011139,0.019976990297436714,0.07767149806022644,9.054807662963867,0.4415134787559509,-3.6063320636749268
1403715889089058000,-0.001516677439212799,0.022113962098956108,0.0762634128332138,9.087353706359863,0.41695261001586914,-3.6550443172454834
1403715889094058000,-0.0022145286202430725,0.017883388325572014,0.07978649437427521,9.087238311767578,0.4656091034412384,-3.663569211959839
1403715889099058000,-0.0014965608716011047,0.016486437991261482,0.07624839246273041,9.054701805114746,0.4252612888813019,-3.6470649242401123
1403715889104058000,-0.0028718113899230957,0.01927308924496174,0.07692645490169525,9.08730411529541,0.3925875425338745,-3.6796984672546387
1403715889109058000,-0.0028912946581840515,0.01925097219645977,0.07701310515403748,9.054667472839355,0.45769622921943665,-3.6308820247650146
1403715889114058000,-0.0014947578310966492,0.019315222278237343,0.075565867125988,9.03829574584961,0.4252412021160126,-3.6225903034210205
1403715889119058000,-0.004991777241230011,0.021398985758423805,0.07487782835960388,9.103537559509277,0.4006460905075073,-3.679840087890625
1403715889124058000,-0.0028923526406288147,0.015090817585587502,0.07773290574550629,9.1116943359375,0.37588900327682495,-3.679649829864502
1403715889129058000,-0.002182111144065857,0.019243841990828514,0.07763407379388809,9.079033851623535,0.4417437016963959,-3.655421257019043
1403715889134058000,-0.003597564995288849,0.019291752949357033,0.07696046680212021,9.079170227050781,0.38438495993614197,-3.6222739219665527
1403715889139058000,-0.00010084360837936401,0.01861654408276081,0.0776904970407486,9.119837760925293,0.3759021461009979,-3.6630637645721436
1403715889144058000,-0.0008017942309379578,0.019994134083390236,0.07553435862064362,9.062583923339844,0.41705599427223206,-3.6552741527557373
1403715889149058000,-0.0014995262026786804,0.022091710940003395,0.07909708470106125,9.030256271362305,0.40906786918640137,-3.6225128173828125
1403715889154058000,-0.0035773441195487976,0.021395167335867882,0.07561901211738586,9.144455909729004,0.408947229385376,-3.6715054512023926
1403715889159058000,-0.0015045180916786194,0.02277318574488163,0.08041878044605255,9.062750816345215,0.4167710244655609,-3.6470119953155518
1403715889164058000,-0.004304639995098114,0.019984332844614983,0.07559074461460114,9.062739372253418,0.40069302916526794,-3.6470987796783447
1403715889169058000,0.001301787793636322,0.021357381716370583,0.07833428680896759,9.071022033691406,0.4497273862361908,-3.6798694133758545
1403715889174058000,-0.0028631314635276794,0.020688822492957115,0.07486017048358917,9.038278579711914,0.41699472069740295,-3.630514621734619
1403715889179058000,-0.003617323935031891,0.024196511134505272,0.07977540791034698,8.98946475982666,0.4168870449066162,-3.5570123195648193
1403715889184058000,-0.003567136824131012,0.022078583016991615,0.07767780125141144,9.071139335632324,0.41698354482650757,-3.655266284942627
1403715889189058000,-0.0015248730778694153,0.0185950119048357,0.07765792310237885,9.128026008605957,0.40878164768218994,-3.6470651626586914
1403715889194058000,-0.0042800456285476685,0.018548475578427315,0.07346173375844955,9.054468154907227,0.4416857063770294,-3.5981545448303223
1403715889199058000,-0.0021744444966316223,0.016459235921502113,0.07418061792850494,9.062834739685059,0.3679716885089874,-3.6304938793182373
1403715889204058000,-0.004987567663192749,0.01788049377501011,0.07908540964126587,9.103694915771484,0.40888649225234985,-3.6549644470214844
1403715889209058000,-0.005025975406169891,0.019300909712910652,0.07837048172950745,9.022018432617188,0.4171191453933716,-3.606133222579956
1403715889214058000,-0.0014647245407104492,0.019286641851067543,0.07834272086620331,9.046629905700684,0.44165483117103577,-3.6063425540924072
1403715889219058000,0.0005935207009315491,0.015813270583748817,0.07488299161195755,9.095455169677734,0.3923206925392151,-3.6877682209014893
1403715889224058000,-0.0035917535424232483,0.019258206710219383,0.07486329972743988,9.087206840515137,0.4497092664241791,-3.6636886596679688
1403715889229058000,-0.003583073616027832,0.02068185992538929,0.07700154185295105,9.07097053527832,0.4252603352069855,-3.6718952655792236
1403715889234058000,-0.005003988742828369,0.021402010694146156,0.0756085142493248,9.103734016418457,0.3512904644012451,-3.646721601486206
1403715889239058000,-0.005015283823013306,0.014438850805163383,0.07486144453287125,9.07903003692627,0.39244407415390015,-3.6468210220336914
1403715889244058000,-0.0007454976439476013,0.017179688438773155,0.07839076966047287,9.054548263549805,0.41691187024116516,-3.663541316986084
1403715889249058000,-0.0014856383204460144,0.022058682516217232,0.07627800852060318,9.0546875,0.4007159471511841,-3.6715266704559326
1403715889254058000,-0.0015257522463798523,0.023490602150559425,0.07766912877559662,9.111726760864258,0.4086747467517853,-3.6880345344543457
1403715889259058000,0.0006136521697044373,0.01930915005505085,0.07975152879953384,9.030099868774414,0.490585058927536,-3.680182933807373
1403715889264058000,-0.0007954314351081848,0.019987551495432854,0.07762801647186279,9.038374900817871,0.4007374942302704,-3.64690899848938
1403715889269058000,-0.003573305904865265,0.02135668881237507,0.07841096818447113,9.06289005279541,0.3761518597602844,-3.64681339263916
1403715889274058000,-0.00495467334985733,0.01857748068869114,0.07770407944917679,9.005725860595703,0.3924947679042816,-3.5978641510009766
1403715889279058000,-0.004320107400417328,0.017229469493031502,0.07482610642910004,9.054631233215332,0.3843960762023926,-3.6059517860412598
1403715889284058000,-0.00014068931341171265,0.02071121148765087,0.07418781518936157,9.087261199951172,0.3764016628265381,-3.597754955291748
1403715889289058000,-6.853044033050537e-05,0.017857493832707405,0.07418300956487656,9.08704948425293,0.4088226556777954,-3.647087812423706
1403715889294058000,-0.0007775798439979553,0.020682809874415398,0.07277408242225647,9.0463228225708,0.43321895599365234,-3.696181297302246
1403715889299058000,-0.00221194326877594,0.020002657547593117,0.07774250954389572,9.087472915649414,0.44167402386665344,-3.66330623626709
1403715889304058000,-0.000826612114906311,0.01647745631635189,0.07417188584804535,9.103601455688477,0.41692331433296204,-3.6550166606903076
1403715889309058000,0.0006093457341194153,0.020644987002015114,0.08109043538570404,9.095450401306152,0.4494127333164215,-3.6225295066833496
1403715889314058000,-0.000773794949054718,0.022120552137494087,0.07769469171762466,9.095454216003418,0.4088764786720276,-3.6224091053009033
1403715889319058000,-0.003573603928089142,0.02070099301636219,0.07554537802934647,9.13614559173584,0.4250611364841461,-3.6800646781921387
1403715889324058000,-0.0008417218923568726,0.01715940423309803,0.07420995831489563,9.070808410644531,0.42521023750305176,-3.6391263008117676
1403715889329058000,-0.00013417750597000122,0.022044455632567406,0.0805153027176857,9.087273597717285,0.4087303876876831,-3.647078275680542
1403715889334058000,-0.004964612424373627,0.02207965962588787,0.07904080301523209,9.095512390136719,0.4005749523639679,-3.6551225185394287
1403715889339058000,-0.002853386104106903,0.022085541859269142,0.07835183292627335,9.079146385192871,0.4577755331993103,-3.6470565795898438
1403715889344058000,-0.002207748591899872,0.023500660434365273,0.0804174542427063,9.062837600708008,0.4498146176338196,-3.655407667160034
1403715889349058000,-0.0015326067805290222,0.02136128954589367,0.07762773334980011,9.071033477783203,0.40862807631492615,-3.6634116172790527
1403715889354058000,-0.000767342746257782,0.017177360132336617,0.07632637768983841,9.103513717651367,0.4088156521320343,-3.647063732147217
1403715889359058000,-0.0007805600762367249,0.01856555975973606,0.07837805151939392,9.079029083251953,0.43355557322502136,-3.6636409759521484
1403715889364058000,0.0005740225315093994,0.017178060486912727,0.0762505978345871,9.119853019714355,0.3842996060848236,-3.671567678451538
1403715889369058000,-0.002193935215473175,0.018562594428658485,0.07352713495492935,9.070862770080566,0.3924265503883362,-3.6468372344970703
1403715889374058000,-0.002190433442592621,0.017185403034090996,0.07278347760438919,9.062715530395508,0.42534735798835754,-3.630631446838379
1403715889379058000,-0.0022090673446655273,0.020710604265332222,0.07623191922903061,9.111737251281738,0.4171167314052582,-3.6306018829345703
1403715889384058000,-0.005679003894329071,0.018570413812994957,0.07630060613155365,9.119932174682617,0.47403934597969055,-3.647326946258545
1403715889389058000,-0.005669049918651581,0.023458169773221016,0.07626253366470337,9.070923805236816,0.46608734130859375,-3.6310136318206787
1403715889394058000,-0.0029165521264076233,0.021406730636954308,0.07414475083351135,9.062756538391113,0.4251263439655304,-3.6306827068328857
1403715889399058000,-0.004294946789741516,0.020711591467261314,0.07702060043811798,9.087345123291016,0.38417819142341614,-3.630476951599121
1403715889404058000,-0.0014640465378761292,0.019286667928099632,0.07768169045448303,9.038301467895508,0.4251258969306946,-3.6142544746398926
1403715889409058000,-0.004263915121555328,0.023441651836037636,0.0776006430387497,9.046638488769531,0.482559472322464,-3.590015172958374
1403715889414058000,-0.0022271648049354553,0.020008491352200508,0.07697828114032745,9.054632186889648,0.3516625463962555,-3.6140153408050537
1403715889419058000,-0.004291236400604248,0.015796063467860222,0.07419827580451965,9.10350227355957,0.40061724185943604,-3.6798744201660156
1403715889424058000,-0.0015011206269264221,0.019986042752861977,0.07977435737848282,9.079224586486816,0.4007604122161865,-3.6143290996551514
1403715889429058000,-0.0035764649510383606,0.020674066618084908,0.0818890929222107,9.054769515991211,0.38448843359947205,-3.622387409210205
1403715889434058000,-0.0029071271419525146,0.02140086330473423,0.0797288790345192,9.119882583618164,0.3843081593513489,-3.6468794345855713
1403715889439058000,-0.0028805211186408997,0.020734885707497597,0.08041685074567795,9.005721092224121,0.41691675782203674,-3.622403860092163
1403715889444058000,-0.0015304386615753174,0.01648423634469509,0.08184997737407684,9.05477237701416,0.3761177062988281,-3.655327796936035
1403715889449058000,-0.002866499125957489,0.01854877360165119,0.07767024636268616,9.095593452453613,0.4416775405406952,-3.671807050704956
1403715889454058000,-0.0021769478917121887,0.019267035648226738,0.07631504535675049,9.070902824401855,0.449741393327713,-3.6553761959075928
1403715889459058000,-0.0021969005465507507,0.023511404171586037,0.07904670387506485,9.070940971374512,0.40862399339675903,-3.638993740081787
1403715889464058000,-0.0015136227011680603,0.024216922000050545,0.07764248549938202,9.10366153717041,0.3597225248813629,-3.6385698318481445
1403715889469058000,-0.0035644397139549255,0.02140565775334835,0.07771535962820053,9.087212562561035,0.4086190164089203,-3.646979570388794
1403715889474058000,-0.002888910472393036,0.018582472577691078,0.07416445016860962,9.054539680480957,0.4006745517253876,-3.6224870681762695
1403715889479058000,-0.0022143349051475525,0.022777890786528587,0.07694581151008606,9.136244773864746,0.3516319692134857,-3.646862506866455
1403715889484058000,-0.0015091076493263245,0.020683230832219124,0.07771266251802444,9.087145805358887,0.40853893756866455,-3.630683422088623
1403715889489058000,-0.004973210394382477,0.018578166142106056,0.07764576375484467,9.087328910827637,0.44155824184417725,-3.6226797103881836
1403715889494058000,-0.0022029653191566467,0.02281379885971546,0.07627900689840317,9.062822341918945,0.3682244122028351,-3.6631414890289307
1403715889499058000,-0.004289977252483368,0.024180954322218895,0.07631504535675049,9.087250709533691,0.40887758135795593,-3.671517848968506
1403715889504058000,-0.0029018446803092957,0.016465535387396812,0.07974278926849365,9.038395881652832,0.3924905061721802,-3.6224610805511475
1403715889509058000,0.0006195977330207825,0.019286220893263817,0.0804380550980568,9.062946319580078,0.41692280769348145,-3.5979199409484863
1403715889514058000,-0.001511693000793457,0.021397175267338753,0.07767689228057861,9.09543514251709,0.37619033455848694,-3.679603099822998
1403715889519058000,-0.0007956400513648987,0.017888838425278664,0.07835015654563904,9.087159156799316,0.40045347809791565,-3.6471290588378906
1403715889524058000,-0.0007880851626396179,0.022101791575551033,0.07766128331422806,9.038307189941406,0.4496566951274872,-3.6063294410705566
1403715889529058000,-0.0015222206711769104,0.02353052981197834,0.07768765836954117,9.103606224060059,0.37589266896247864,-3.63857364654541
1403715889534058000,-0.0014872997999191284,0.021345803514122963,0.08115304261445999,9.062738418579102,0.43284693360328674,-3.6551804542541504
1403715889539058000,-0.00217544287443161,0.021351521834731102,0.08040134608745575,9.046554565429688,0.4580271244049072,-3.639206647872925
1403715889544058000,-0.00012137740850448608,0.01720520295202732,0.07904709875583649,9.071033477783203,0.38413524627685547,-3.671543598175049
1403715889549058000,-0.0029003843665122986,0.018558787181973457,0.07700714468955994,9.062775611877441,0.4249442517757416,-3.6879756450653076
1403715889554058000,-0.003570951521396637,0.019253311678767204,0.07696341723203659,9.079144477844238,0.4416300654411316,-3.6471855640411377
1403715889559058000,-0.0007975324988365173,0.021408086642622948,0.07557812333106995,9.095474243164062,0.4251649081707001,-3.6470985412597656
1403715889564058000,-0.0022124871611595154,0.01790519990026951,0.07419538497924805,9.09534740447998,0.3925016224384308,-3.630516767501831
1403715889569058000,-0.0014750882983207703,0.019954225048422813,0.07484691590070724,9.087150573730469,0.44165512919425964,-3.6307642459869385
1403715889574058000,-0.0014917030930519104,0.023455044254660606,0.07768616080284119,9.070901870727539,0.39235061407089233,-3.622429609298706
1403715889579058000,-0.0022260919213294983,0.019992755725979805,0.07420213520526886,9.136119842529297,0.39257222414016724,-3.671494960784912
1403715889584058000,-0.0014956220984458923,0.017229432240128517,0.07694786041975021,9.079032897949219,0.40882813930511475,-3.6552376747131348
1403715889589058000,-0.0007908716797828674,0.019272586330771446,0.0769539624452591,9.06284236907959,0.44957345724105835,-3.5815930366516113
1403715889594058000,-0.0008094832301139832,0.02136942930519581,0.07697706669569016,9.07101058959961,0.40063542127609253,-3.6303865909576416
1403715889599058000,0.0019818171858787537,0.020699864253401756,0.07698780298233032,9.087275505065918,0.4495455026626587,-3.622497320175171
1403715889604058000,0.003387756645679474,0.01791338063776493,0.07556469738483429,9.07089614868164,0.4252719283103943,-3.5979561805725098
1403715889609058000,-0.0022002384066581726,0.02206510119140148,0.07973461598157883,9.079192161560059,0.41692739725112915,-3.622617721557617
1403715889614058000,-0.002194814383983612,0.019955268129706383,0.07907363027334213,9.095410346984863,0.4250616431236267,-3.6798532009124756
1403715889619058000,-0.0042837634682655334,0.0234884861856699,0.07831522077322006,9.07101821899414,0.4906386435031891,-3.6392366886138916
1403715889624058000,-0.0043120309710502625,0.02070978470146656,0.07766127586364746,9.071090698242188,0.44963324069976807,-3.6226119995117188
1403715889629058000,-0.0021651163697242737,0.023465605452656746,0.07629715651273727,9.079100608825684,0.41687336564064026,-3.6223082542419434
1403715889634058000,-0.0021871402859687805,0.01785447634756565,0.07554134726524353,9.09537410736084,0.4659629166126251,-3.598076343536377
1403715889639058000,0.0012716278433799744,0.019971156492829323,0.07698611915111542,9.070905685424805,0.4089212417602539,-3.647181272506714
1403715889644058000,-0.004289351403713226,0.017890339717268944,0.07697656750679016,9.087259292602539,0.3598971962928772,-3.6552040576934814
1403715889649058000,-0.004280678927898407,0.01994631253182888,0.07974550873041153,9.07924747467041,0.44963040947914124,-3.663637399673462
1403715889654058000,-0.0007905811071395874,0.02208174578845501,0.07906810939311981,9.03831958770752,0.45820799469947815,-3.647199869155884
1403715889659058000,-0.00499560683965683,0.01793084852397442,0.0790623277425766,9.071063041687012,0.3516538739204407,-3.654865264892578
1403715889664058000,-0.004262469708919525,0.0206891018897295,0.0797768160700798,9.11184024810791,0.3924919068813324,-3.6551692485809326
1403715889669058000,-0.005688920617103577,0.020651059225201607,0.07277346402406693,9.054584503173828,0.4581606984138489,-3.6472978591918945
1403715889674058000,-0.0008411779999732971,0.022761860862374306,0.07557549327611923,9.046422958374023,0.41704925894737244,-3.6552798748016357
1403715889679058000,-0.001479916274547577,0.02072853036224842,0.07842633128166199,9.079061508178711,0.36795708537101746,-3.6715171337127686
1403715889684058000,-0.00286218523979187,0.018600190058350563,0.07906047999858856,9.030134201049805,0.35965579748153687,-3.655144214630127
1403715889689058000,-9.51811671257019e-05,0.022784894332289696,0.07975222170352936,9.054671287536621,0.35998043417930603,-3.6303722858428955
1403715889694058000,0.001961253583431244,0.021369384601712227,0.08045483380556107,9.046488761901855,0.39256447553634644,-3.7204625606536865
1403715889699058000,-0.0014521926641464233,0.024192551150918007,0.07901479303836823,8.981228828430176,0.4823072552680969,-3.688251256942749
1403715889704058000,-0.00911586731672287,0.017086578533053398,0.08532875776290894,9.063268661499023,0.7112597823143005,-3.705787181854248
1403715889709058000,-0.02171364426612854,0.014957869425415993,0.08880464732646942,9.120417594909668,0.6213428974151611,-3.7546849250793457
1403715889714058000,-0.02871847152709961,0.022692007943987846,0.08737573027610779,9.030352592468262,0.39215582609176636,-3.622903347015381
1403715889719058000,-0.012014411389827728,0.0060761310160160065,0.0945139229297638,9.201434135437012,-0.09793390333652496,-3.6619081497192383
1403715889724058000,0.015846647322177887,0.044045135378837585,0.06935730576515198,9.04521656036377,-0.6614938378334045,-3.37996244430542
1403715889729058000,0.06753822416067123,0.009121466428041458,0.057478249073028564,9.22414779663086,-0.24422791600227356,-3.6104848384857178
1403715889734058000,0.08441875129938126,0.014435434713959694,0.05049259588122368,9.013216018676758,0.6711916923522949,-3.6548006534576416
1403715889739058000,0.049619562923908234,0.03855390101671219,0.03601833060383797,8.841819763183594,1.6531426906585693,-3.642699718475342
1403715889744058000,-0.019429944455623627,-0.0017146430909633636,0.06890421360731125,9.042959213256836,2.227243185043335,-3.909013271331787
1403715889749058000,-0.09842265397310257,0.003907099366188049,0.079274982213974,8.87373161315918,2.0219461917877197,-3.640338897705078
1403715889754058000,-0.138373464345932,0.014865623787045479,0.11235586553812027,9.325759887695312,0.38310229778289795,-3.821152687072754
1403715889759058000,-0.11388784646987915,0.029834406450390816,0.09317978471517563,8.893693923950195,-0.9171993732452393,-3.4384758472442627
1403715889764058000,-0.03300356864929199,0.0012600384652614594,0.1174878403544426,9.055388450622559,-1.047244906425476,-3.379455327987671
1403715889769058000,0.033984601497650146,0.019058773294091225,0.09247532486915588,9.387760162353516,-0.9149981737136841,-3.5517630577087402
1403715889774058000,0.07867156714200974,0.05532193183898926,0.06331010162830353,9.093002319335938,-0.4152880311012268,-3.322737216949463
1403715889779058000,0.09762939065694809,-0.010789807885885239,0.06512416899204254,9.24248218536377,0.5970844030380249,-3.654865264892578
1403715889784058000,0.08299127966165543,0.0271888617426157,0.07747788727283478,9.545878410339355,1.1294198036193848,-3.8929531574249268
1403715889789058000,0.02738337218761444,0.056316256523132324,0.06393697112798691,8.443857192993164,1.4576539993286133,-3.6985373497009277
1403715889794058000,-0.015940576791763306,0.008299464359879494,0.1010490283370018,9.202718734741211,1.4896433353424072,-3.7902204990386963
1403715889799058000,-0.05753409117460251,0.03383030742406845,0.09122300148010254,9.03213119506836,0.9316896200180054,-3.7475943565368652
1403715889804058000,-0.07864488661289215,0.018425816670060158,0.09638760983943939,9.127667427062988,0.7035500407218933,-3.740098237991333
1403715889809058000,-0.07972833514213562,0.017591627314686775,0.08436764031648636,8.90829086303711,0.17087899148464203,-3.501742362976074
1403715889814058000,-0.046987272799015045,0.03179820626974106,0.08672367036342621,9.439064979553223,-0.5347936749458313,-3.5465290546417236
1403715889819058000,0.002734757959842682,0.016240829601883888,0.06886572390794754,8.546374320983887,-0.5497716665267944,-3.3809449672698975
1403715889824058000,0.03988531976938248,0.029499268159270287,0.05426421016454697,9.951446533203125,-0.32955989241600037,-3.783884286880493
1403715889829058000,0.0658782348036766,0.05150805413722992,0.05927649512887001,8.613109588623047,0.1940852701663971,-3.5207176208496094
1403715889834058000,0.07270119339227676,0.0341499000787735,0.053109072148799896,8.834508895874023,0.8108648657798767,-3.4988012313842773
1403715889839058000,0.046800531446933746,0.02197638712823391,0.07697470486164093,9.350933074951172,1.1880474090576172,-3.8366222381591797
1403715889844058000,-0.002871468663215637,0.04217710345983505,0.0617760494351387,8.778080940246582,1.3289927244186401,-3.6252028942108154
1403715889849058000,-0.04082903265953064,-0.0007254816591739655,0.09698885679244995,8.900389671325684,0.9788767695426941,-3.659978151321411
1403715889854058000,-0.06183858960866928,0.02531340904533863,0.09027031809091568,9.007171630859375,0.6320658326148987,-3.53495717048645
1403715889859058000,-0.058984965085983276,0.007605025544762611,0.10685877501964569,9.062653541564941,0.10679326206445694,-3.6386287212371826
1403715889864058000,-0.04068528115749359,0.013515403494238853,0.09176212549209595,9.307562828063965,-0.12413354218006134,-3.4992499351501465
1403715889869058000,-0.00990084558725357,0.030446982011198997,0.08687209337949753,9.152618408203125,-0.3231787383556366,-3.5134384632110596
1403715889874058000,0.027204282581806183,0.02107917331159115,0.07083757221698761,8.93000602722168,-0.36569952964782715,-3.479426383972168
1403715889879058000,0.05111668258905411,0.021712804213166237,0.06533689051866531,9.534815788269043,-0.002778027905151248,-3.8164548873901367
1403715889884058000,0.05892691761255264,0.05432051420211792,0.06428781896829605,8.966043472290039,0.6923415660858154,-3.515929937362671
1403715889889058000,0.04138316214084625,0.02780984528362751,0.08090126514434814,8.941607475280762,0.8895153403282166,-3.647963762283325
1403715889894058000,0.014590956270694733,0.03109140880405903,0.07592546939849854,8.908978462219238,1.033836841583252,-3.5918827056884766
1403715889899058000,-0.025503598153591156,0.005152195692062378,0.08214381337165833,8.916855812072754,0.9795077443122864,-3.5755298137664795
1403715889904058000,-0.04383194446563721,0.005023332312703133,0.0714663565158844,9.251216888427734,0.4135783314704895,-3.7387757301330566
1403715889909058000,-0.028362669050693512,0.023287469521164894,0.06598790735006332,9.340502738952637,0.08544931560754776,-3.7364661693573
1403715889914058000,-0.011434577405452728,0.010388283059000969,0.08418429642915726,8.898402214050293,0.18733876943588257,-3.5811359882354736
1403715889919058000,-0.006974510848522186,0.03393375873565674,0.09103208035230637,9.413619041442871,0.6257937550544739,-3.7463083267211914
1403715889924058000,-0.020687110722064972,0.0386912003159523,0.09418284893035889,8.932961463928223,0.9280423521995544,-3.534788131713867
1403715889929058000,-0.043811164796352386,0.020611317828297615,0.09354910254478455,8.83504581451416,0.6071614623069763,-3.452373743057251
1403715889934058000,-0.04526127129793167,0.017943406477570534,0.0789305567741394,9.006304740905762,-0.019874798133969307,-3.572570562362671
1403715889939058000,-0.004233069717884064,0.013345209881663322,0.0666133239865303,9.249381065368652,-0.9630389213562012,-3.632783889770508
1403715889944058000,0.06610012799501419,0.016131559386849403,0.06475228816270828,9.240674018859863,-0.854653537273407,-3.6253116130828857
1403715889949058000,0.12054917961359024,0.03693599998950958,0.05880333110690117,9.34769058227539,0.3075546622276306,-3.7921876907348633
1403715889954058000,0.09982723742723465,0.03965830057859421,0.07788942754268646,8.59752082824707,1.6830698251724243,-3.5107338428497314
1403715889959058000,0.013921715319156647,0.016451144590973854,0.07721152156591415,9.107322692871094,2.304624319076538,-3.9161794185638428
1403715889964058000,-0.06998039782047272,0.02626952715218067,0.07684436440467834,8.899155616760254,1.8751004934310913,-3.582144021987915
1403715889969058000,-0.11536969989538193,-0.011140948161482811,0.09288495033979416,8.852300643920898,0.8152756094932556,-3.642867088317871
1403715889974058000,-0.10749948769807816,0.0128879863768816,0.07853469252586365,9.21091365814209,-0.31433749198913574,-3.696061611175537
1403715889979058000,-0.04738473892211914,0.011904673650860786,0.09603805840015411,9.30782699584961,-0.9540148377418518,-3.519238233566284
1403715889984058000,0.004899531602859497,0.01176937110722065,0.09485253691673279,9.159699440002441,-0.5843325853347778,-3.545287609100342
1403715889989058000,0.046584226191043854,0.039704978466033936,0.07057841867208481,9.094603538513184,-0.17233528196811676,-3.4630696773529053
1403715889994058000,0.06690073758363724,0.02097233198583126,0.08520793914794922,9.103364944458008,0.17288707196712494,-3.406583070755005
1403715889999058000,0.057255275547504425,0.0038925670087337494,0.07123201340436935,8.916077613830566,0.7554465532302856,-3.8107616901397705
1403715890004058000,0.03770153969526291,0.015812819823622704,0.05913489684462547,8.999320983886719,0.7638274431228638,-3.5738110542297363
1403715890009058000,0.01875748485326767,0.008136479184031487,0.09042690694332123,9.276190757751465,0.9919436573982239,-3.795661211013794
1403715890014058000,-0.019116811454296112,0.017699098214507103,0.08443667739629745,8.964788436889648,1.222386121749878,-3.7404041290283203
1403715890019058000,-0.0485227033495903,0.026813575997948647,0.0989469438791275,9.145099639892578,0.9579373002052307,-3.6005115509033203
1403715890024058000,-0.07071155309677124,0.0142312441021204,0.10293034464120865,8.966005325317383,0.6695552468299866,-3.6500494480133057
1403715890029058000,-0.06799659132957458,0.003576807677745819,0.08078953623771667,9.022348403930664,-0.059458065778017044,-3.417736530303955
1403715890034058000,-0.03085429221391678,0.0194381270557642,0.09526064246892929,9.24191665649414,-0.5280004143714905,-3.5380778312683105
1403715890039058000,0.014123313128948212,0.016769329085946083,0.071249820291996,9.053146362304688,-0.3718137741088867,-3.5869598388671875
1403715890044058000,0.048335351049900055,0.020320801064372063,0.06913478672504425,9.404268264770508,-0.019348355010151863,-3.7513587474823
1403715890049058000,0.06438244134187698,0.04272131621837616,0.06737840175628662,8.891074180603027,0.4970380365848541,-3.5468943119049072
1403715890054058000,0.051701195538043976,0.023442966863512993,0.06137237325310707,9.031342506408691,1.0486081838607788,-3.761866331100464
1403715890059058000,0.01379287987947464,0.03381726145744324,0.06171197444200516,8.844051361083984,0.9844294786453247,-3.5337207317352295
1403715890064058000,-0.013423867523670197,0.01277243159711361,0.08253708481788635,8.762298583984375,1.0924274921417236,-3.6422576904296875
1403715890069058000,-0.04560185223817825,0.0028846673667430878,0.07818365842103958,9.006561279296875,0.7570375800132751,-3.715951919555664
1403715890074058000,-0.05200286954641342,0.012198885902762413,0.08883491158485413,9.128517150878906,0.4016267657279968,-3.664360761642456
1403715890079058000,-0.04774577170610428,0.011602306738495827,0.08359424769878387,9.168665885925293,0.19661571085453033,-3.623286485671997
1403715890084058000,-0.02614579349756241,0.024329857900738716,0.08453701436519623,9.404816627502441,-0.1398845911026001,-3.6533141136169434
1403715890089058000,0.0020098015666007996,0.029869655147194862,0.085528165102005,8.915168762207031,-0.19161953032016754,-3.4390738010406494
1403715890094058000,0.023871399462223053,0.02507738210260868,0.0771222934126854,9.257744789123535,-0.18412739038467407,-3.562316656112671
1403715890099058000,0.047730378806591034,0.015188811346888542,0.08236876130104065,8.931981086730957,0.16734261810779572,-3.604552984237671
1403715890104058000,0.05112703889608383,0.022104980424046516,0.08257867395877838,8.94107723236084,0.7746214866638184,-3.672398567199707
1403715890109058000,0.027996726334095,0.01363411732017994,0.08715062588453293,9.088476181030273,1.1130520105361938,-3.690791606903076
1403715890114058000,-0.01898563653230667,0.017604252323508263,0.08499354124069214,9.153474807739258,1.19745671749115,-3.845839262008667
1403715890119058000,-0.05550090968608856,0.01700885407626629,0.09496316313743591,9.030824661254883,0.9782501459121704,-3.650019407272339
1403715890124058000,-0.06814121454954147,0.016359934583306313,0.09221594035625458,9.088594436645508,0.20726613700389862,-3.4505741596221924
1403715890129058000,-0.035997383296489716,0.011599790304899216,0.08969533443450928,9.022242546081543,-0.636494517326355,-3.454867362976074
1403715890134058000,0.025576218962669373,0.000680137425661087,0.07443935424089432,9.248501777648926,-0.8756000995635986,-3.48616361618042
1403715890139058000,0.0753418430685997,0.020291635766625404,0.06238493695855141,9.322147369384766,-0.2232826054096222,-3.750854730606079
1403715890144058000,0.08664868026971817,0.02994788996875286,0.03783596307039261,9.17605209350586,0.7494034767150879,-3.6467630863189697
1403715890149058000,0.051947496831417084,0.03163938969373703,0.05998983979225159,9.331219673156738,1.7478066682815552,-3.9278786182403564
1403715890154058000,-0.022106565535068512,0.047633096575737,0.058177508413791656,8.359185218811035,2.1525657176971436,-3.5830798149108887
1403715890159058000,-0.09486427903175354,0.019519256427884102,0.07595734298229218,9.048230171203613,1.366307258605957,-3.692598581314087
1403715890164058000,-0.12423424422740936,0.005805719643831253,0.10499776899814606,8.6497163772583,-0.047959040850400925,-3.5246307849884033
1403715890169058000,-0.08000656962394714,0.0032207928597927094,0.09574484825134277,8.901016235351562,-0.9709634780883789,-3.298797130584717
1403715890174058000,0.0035507306456565857,-0.006107717752456665,0.09809305518865585,9.568304061889648,-1.3457095623016357,-3.5674712657928467
1403715890179058000,0.06951000541448593,0.04621309041976929,0.06468440592288971,9.345734596252441,-0.6259124875068665,-3.649973154067993
1403715890184058000,0.09551288932561874,0.022374944761395454,0.05732553452253342,8.99595832824707,0.4178330898284912,-3.6044654846191406
1403715890189058000,0.07888370007276535,0.03472025692462921,0.05814788490533829,9.048032760620117,1.1184173822402954,-3.532382011413574
1403715890194058000,0.033579036593437195,0.037957459688186646,0.06704495847225189,8.998801231384277,1.2327755689620972,-3.7703895568847656
1403715890199058000,-0.0068063884973526,0.014085279777646065,0.08130831271409988,8.745838165283203,1.2246341705322266,-3.740086078643799
1403715890204058000,-0.04308391362428665,0.012653587386012077,0.09823594242334366,8.975525856018066,1.2663339376449585,-3.6034390926361084
1403715890209058000,-0.08245915919542313,0.013573193922638893,0.09271921217441559,8.892892837524414,0.6951596736907959,-3.6338143348693848
1403715890214058000,-0.07864996790885925,-0.00022812187671661377,0.08750418573617935,9.503559112548828,-0.06505099684000015,-3.9012322425842285
1403715890219058000,-0.04170987010002136,0.020651092752814293,0.0822390466928482,9.307707786560059,-0.43303465843200684,-3.415881872177124
1403715890224058000,-0.0010063424706459045,0.042584486305713654,0.06947867572307587,9.265571594238281,-0.5459845662117004,-3.5776469707489014
1403715890229058000,0.03158048540353775,0.015303196385502815,0.06394705921411514,8.91429615020752,-0.19677801430225372,-3.471191167831421
1403715890234058000,0.044129371643066406,0.03750891983509064,0.06581562012434006,8.972854614257812,0.4398457109928131,-3.5059170722961426
1403715890239058000,0.04807085543870926,0.011944277212023735,0.08226004242897034,8.704789161682129,0.5130129456520081,-3.524385929107666
1403715890244058000,0.03206484764814377,0.01225009374320507,0.06570199131965637,9.357559204101562,0.7843314409255981,-3.8192508220672607
1403715890249058000,0.005690358579158783,-0.003165634348988533,0.08019629120826721,8.908735275268555,1.048606276512146,-3.723036527633667
1403715890254058000,-0.019651472568511963,0.01631944067776203,0.07050440460443497,8.94177532196045,0.8120219111442566,-3.5342962741851807
1403715890259058000,-0.03390904515981674,-0.0005125440657138824,0.08755244314670563,9.382344245910645,0.5992605686187744,-3.746742010116577
1403715890264058000,-0.04017055779695511,0.014244219288229942,0.09592597931623459,8.932086944580078,0.3930327296257019,-3.5820446014404297
1403715890269058000,-0.03382235765457153,0.009575754404067993,0.09428524225950241,9.160004615783691,0.08143827319145203,-3.5330779552459717
1403715890274058000,-0.011237315833568573,0.0046274736523628235,0.09924335777759552,8.785168647766113,0.006949998438358307,-3.318016767501831
1403715890279058000,0.009757660329341888,0.0126198660582304,0.0736084133386612,9.298391342163086,-0.10167066007852554,-3.7513391971588135
1403715890284058000,0.02582654356956482,0.007825464010238647,0.05957750231027603,9.39621353149414,-0.04570694640278816,-3.710843563079834
1403715890289058000,0.04062595218420029,0.0270960945636034,0.06042315438389778,9.022000312805176,0.5047149062156677,-3.621467351913452
1403715890294058000,0.03644926846027374,0.03268443048000336,0.07006675750017166,9.030285835266113,0.513860285282135,-3.7364039421081543
1403715890299058000,0.01963668316602707,0.021981457248330116,0.07384243607521057,8.884308815002441,0.8765848278999329,-3.6066982746124268
1403715890304058000,-0.009900197386741638,0.01284111849963665,0.08295334130525589,8.91751766204834,0.9856824278831482,-3.527064085006714
1403715890309058000,-0.03187549114227295,0.019807344302535057,0.0767139345407486,9.161474227905273,0.6495261788368225,-3.7304909229278564
1403715890314058000,-0.03604140877723694,0.01023724302649498,0.0811832994222641,8.78515625,0.14255064725875854,-3.556918144226074
1403715890319058000,-0.021275263279676437,0.002646530047059059,0.05704750120639801,9.298211097717285,-0.06310373544692993,-3.6049156188964844
1403715890324058000,0.00830250233411789,0.016668902710080147,0.06595856696367264,9.119552612304688,0.22702491283416748,-3.6949424743652344
1403715890329058000,0.014705374836921692,0.01842671073973179,0.06670225411653519,9.234129905700684,0.6083519458770752,-3.630481004714966
1403715890334058000,-0.007513590157032013,0.03020569123327732,0.07760173827409744,9.21769905090332,0.9361168742179871,-3.71460223197937
1403715890339058000,-0.04726390540599823,0.03586733341217041,0.09122086316347122,8.818743705749512,1.1580536365509033,-3.6996705532073975
1403715890344058000,-0.06904368847608566,0.022061912342905998,0.10110507905483246,8.94192886352539,0.47326135635375977,-3.3865396976470947
1403715890349058000,-0.04686666280031204,0.025723328813910484,0.11182639002799988,9.219300270080566,-0.6202087998390198,-3.627671003341675
1403715890354058000,0.009475447237491608,0.03220544755458832,0.08832461386919022,8.988388061523438,-0.9444952607154846,-3.461167573928833
1403715890359058000,0.07841924577951431,-0.005410034209489822,0.07652417570352554,9.011523246765137,-0.97697514295578,-3.3286540508270264
1403715890364058000,0.12525591254234314,0.04049620032310486,0.06941059231758118,9.347907066345215,0.0787937119603157,-3.5128707885742188
1403715890369058000,0.09843536466360092,0.009114289656281471,0.0561944842338562,8.807923316955566,1.9506261348724365,-3.8718974590301514
1403715890374058000,0.016944028437137604,0.014254266396164894,0.05962197855114937,9.343277931213379,2.4883694648742676,-3.974151372909546
1403715890379058000,-0.07657107710838318,0.016733868047595024,0.08889492601156235,8.353672981262207,1.8478782176971436,-3.48545503616333
1403715890384058000,-0.12361545115709305,0.00017905794084072113,0.10545749217271805,9.162216186523438,0.4304112195968628,-3.665661096572876
1403715890389058000,-0.0930151417851448,0.011068275198340416,0.1036180853843689,9.310011863708496,-0.9376001358032227,-3.48667049407959
1403715890394058000,-0.030136100947856903,0.005556726828217506,0.07220636308193207,8.964658737182617,-0.9993900656700134,-3.355586528778076
1403715890399058000,0.03548751771450043,0.007815007120370865,0.05122148245573044,9.444141387939453,-0.7598581910133362,-3.643730640411377
1403715890404058000,0.08634807914495468,0.03559804707765579,0.052190039306879044,9.297164916992188,-0.22027504444122314,-3.5935702323913574
1403715890409058000,0.08843804150819778,0.013180376961827278,0.03728192299604416,8.744075775146484,0.5748051404953003,-3.5720579624176025
1403715890414058000,0.07192545384168625,0.02845706231892109,0.05435885488986969,9.09804916381836,1.1712253093719482,-3.680431604385376
1403715890419058000,0.03374285250902176,0.01219196431338787,0.09057970345020294,8.682024955749512,1.3921507596969604,-3.7716166973114014
1403715890424058000,-0.02093067765235901,0.0015652813017368317,0.07780569791793823,8.924043655395508,1.383984923362732,-3.740948438644409
1403715890429058000,-0.06027580052614212,-0.0027487333863973618,0.08782738447189331,9.154424667358398,1.0218082666397095,-3.6183221340179443
1403715890434058000,-0.08630507439374924,0.008671198040246964,0.08270134031772614,9.259456634521484,0.5316709876060486,-3.8457353115081787
1403715890439058000,-0.0771745815873146,0.0010590869933366776,0.08748838305473328,9.029760360717773,-0.17910169064998627,-3.5981996059417725
1403715890444058000,-0.04207548499107361,0.0234809760004282,0.08579879999160767,9.413917541503906,-0.3785436153411865,-3.6372640132904053
1403715890449058000,-0.005504056811332703,0.02303295023739338,0.08345833420753479,8.922720909118652,-0.31378981471061707,-3.594538927078247
1403715890454058000,0.03701167553663254,0.026502029970288277,0.08933932334184647,9.029105186462402,-0.31361496448516846,-3.4546966552734375
1403715890459058000,0.06495938450098038,0.027978157624602318,0.08542732894420624,9.176534652709961,-0.018007786944508553,-3.6278090476989746
1403715890464058000,0.061514027416706085,0.023827804252505302,0.04807543382048607,9.037930488586426,0.5552898049354553,-3.694601535797119
1403715890469058000,0.04956621676683426,0.013684907928109169,0.052375007420778275,9.055743217468262,0.8605148196220398,-3.704801321029663
1403715890474058000,0.024349622428417206,0.025443466380238533,0.06041388586163521,9.259561538696289,1.181473970413208,-3.7229647636413574
1403715890479058000,-0.016320519149303436,0.03015429712831974,0.07323089241981506,8.908008575439453,1.3032126426696777,-3.756633758544922
1403715890484058000,-0.0575355663895607,0.025240259245038033,0.08865219354629517,9.079657554626465,1.00091552734375,-3.6503114700317383
1403715890489058000,-0.07841939479112625,0.020516706630587578,0.1039782240986824,8.786211967468262,0.41117697954177856,-3.5263009071350098
1403715890494058000,-0.06387612223625183,0.009459087625145912,0.09278546273708344,8.981537818908691,-0.22319994866847992,-3.391942262649536
1403715890499058000,-0.026744648814201355,0.01165391318500042,0.07381477952003479,9.371964454650879,-0.4935963749885559,-3.635709524154663
1403715890504058000,0.015474177896976471,0.018169188871979713,0.06480424851179123,9.102084159851074,-0.46068644523620605,-3.717578411102295
1403715890509058000,0.050452329218387604,0.019539574161171913,0.06817205250263214,8.96375560760498,-0.1594466269016266,-3.5129036903381348
1403715890514058000,0.062380991876125336,0.02505321241915226,0.06737839430570602,9.406078338623047,0.6188938021659851,-3.867225170135498
1403715890519058000,0.03027237206697464,0.031754255294799805,0.07640918344259262,8.738029479980469,1.185066819190979,-3.6078176498413086
1403715890524058000,-0.004204869270324707,0.019023524597287178,0.08336950093507767,8.966192245483398,1.1723591089248657,-3.674474000930786
1403715890529058000,-0.027551747858524323,0.02629641629755497,0.08244910836219788,9.12096118927002,0.33321988582611084,-3.4506800174713135
1403715890534058000,-0.020106039941310883,0.00406949408352375,0.07563924044370651,8.841788291931152,-0.1583738476037979,-3.464388608932495
1403715890539058000,0.005099751055240631,0.00822167657315731,0.06814208626747131,9.445384979248047,-0.10268689692020416,-3.728156328201294
1403715890544058000,0.026988528668880463,0.005308937281370163,0.06673325598239899,8.94836139678955,0.5805895924568176,-3.573632001876831
1403715890549058000,0.009732596576213837,0.013309942558407784,0.07279089838266373,9.290254592895508,1.2063426971435547,-3.8870604038238525
1403715890554058000,-0.03334968537092209,0.02372482605278492,0.07936811447143555,9.274948120117188,1.425315022468567,-3.7001607418060303
1403715890559058000,-0.07583323121070862,0.016161898151040077,0.09052716195583344,8.836075782775879,1.0571441650390625,-3.6177520751953125
1403715890564058000,-0.08152402192354202,0.026325156912207603,0.08599033951759338,9.186078071594238,0.021469533443450928,-3.589937686920166
1403715890569058000,-0.03971574455499649,0.012557050213217735,0.08336898684501648,8.859357833862305,-0.901016891002655,-3.363355875015259
1403715890574058000,0.019501246511936188,0.008404498919844627,0.07516907155513763,8.906399726867676,-0.7259750962257385,-3.4049806594848633
1403715890579058000,0.059048257768154144,0.012691309675574303,0.053471639752388,9.363675117492676,-0.17447136342525482,-3.5784761905670166
1403715890584058000,0.0715385153889656,0.015149315819144249,0.058063048869371414,9.038342475891113,0.7166991829872131,-3.72847056388855
1403715890589058000,0.05132857710123062,0.024781079962849617,0.059237636625766754,8.867249488830566,1.1239532232284546,-3.7140164375305176
1403715890594058000,0.015182070434093475,0.021088266745209694,0.05074990168213844,9.2598876953125,1.4089314937591553,-3.8042166233062744
1403715890599058000,-0.04112647473812103,0.01627158932387829,0.08104617893695831,8.957588195800781,1.1527934074401855,-3.722822666168213
1403715890604058000,-0.0579373836517334,0.03170940279960632,0.0832633227109909,8.891552925109863,0.4546024799346924,-3.541896343231201
1403715890609058000,-0.0524916872382164,0.003952378407120705,0.08741267025470734,8.933416366577148,0.15111465752124786,-3.4591503143310547
1403715890614058000,-0.04133330285549164,0.008191846311092377,0.06958712637424469,9.021292686462402,0.06246083602309227,-3.671288013458252
1403715890619058000,-0.013226762413978577,0.012403206899762154,0.06932838261127472,9.38824462890625,-0.181646466255188,-3.7856574058532715
1403715890624058000,0.014651313424110413,0.019342998042702675,0.06456277519464493,8.972384452819824,-0.18930329382419586,-3.677586317062378
1403715890629058000,0.0306253582239151,0.03548598289489746,0.04862320423126221,9.15973949432373,0.16441161930561066,-3.702087640762329
1403715890634058000,0.03704565018415451,0.036273688077926636,0.06915395706892014,9.161012649536133,0.5579110980033875,-3.727142572402954
1403715890639058000,0.02938728779554367,0.037536315619945526,0.08596686273813248,8.802092552185059,0.6318438649177551,-3.6301801204681396
1403715890644058000,0.01731172949075699,0.0345747172832489,0.08103135973215103,8.762174606323242,0.6890469789505005,-3.4760046005249023
1403715890649058000,-0.007175348699092865,0.00949442945420742,0.0829462856054306,8.868358612060547,0.8611236214637756,-3.4854540824890137
1403715890654058000,-0.02403993159532547,0.010114507749676704,0.08319959044456482,9.315301895141602,0.5511312484741211,-3.7634034156799316
1403715890659058000,-0.02684202790260315,0.021207479760050774,0.08329495787620544,9.136375427246094,0.3437158763408661,-3.6728429794311523
1403715890664058000,-0.023216724395751953,0.019885899499058723,0.07645140588283539,9.152791023254395,0.3334411084651947,-3.5900654792785645
1403715890669058000,-0.021649770438671112,0.033257029950618744,0.08398023247718811,9.40500259399414,0.25931450724601746,-3.605302572250366
1403715890674058000,-0.010508634150028229,0.03683807700872421,0.0874408483505249,9.053873062133789,0.18588334321975708,-3.6698524951934814
1403715890679058000,0.010391108691692352,0.0353943333029747,0.08057723939418793,8.89944076538086,0.022004446014761925,-3.4817471504211426
1403715890684058000,0.02231007069349289,0.02993801422417164,0.06639654189348221,9.062921524047852,0.17748822271823883,-3.53938364982605
1403715890689058000,0.027306847274303436,0.011844554916024208,0.058759503066539764,9.062373161315918,0.44938960671424866,-3.671403646469116
1403715890694058000,0.027937397360801697,0.010161789134144783,0.06103472039103508,9.005712509155273,0.63857501745224,-3.6722168922424316
1403715890699058000,0.007528044283390045,0.014824049547314644,0.058755021542310715,9.08864688873291,0.8839985728263855,-3.6979568004608154
1403715890704058000,-0.02325853705406189,0.00929458998143673,0.06986702978610992,9.185541152954102,0.8860725164413452,-3.681276798248291
1403715890709058000,-0.0372471883893013,0.016943661496043205,0.07969117164611816,9.021876335144043,0.7632105946540833,-3.705505132675171
1403715890714058000,-0.03453420102596283,0.027675220742821693,0.08177711069583893,9.20226764678955,0.1655154675245285,-3.5073721408843994
1403715890719058000,-0.01560046523809433,0.02013355679810047,0.07288478314876556,9.053874015808105,-0.24604426324367523,-3.4727392196655273
1403715890724058000,0.010413803160190582,0.013913551345467567,0.05692000687122345,9.150769233703613,-0.026793910190463066,-3.5963525772094727
1403715890729058000,0.02511923760175705,0.023011351004242897,0.06805509328842163,8.956183433532715,0.3657207787036896,-3.564545154571533
1403715890734058000,0.011956118047237396,0.011403895914554596,0.06440092623233795,9.022375106811523,1.035456657409668,-3.8292758464813232
1403715890739058000,-0.02147848904132843,0.01828225515782833,0.07598762959241867,8.982536315917969,1.1423957347869873,-3.6746954917907715
1403715890744058000,-0.04819491505622864,0.020585937425494194,0.09916476905345917,9.153555870056152,0.7606610655784607,-3.8777480125427246
1403715890749058000,-0.04971151053905487,0.03612862527370453,0.10542933642864227,8.868011474609375,-0.17769251763820648,-3.219027519226074
1403715890754058000,-0.009452365338802338,-0.001397138461470604,0.08325938135385513,9.209855079650879,-1.0853116512298584,-3.444023370742798
1403715890759058000,0.07295841723680496,0.04065548628568649,0.07369932532310486,9.313210487365723,-0.5849934220314026,-3.691904306411743
1403715890764058000,0.09955195337533951,0.010499220341444016,0.06506488472223282,8.694364547729492,0.5418089032173157,-3.2935001850128174
1403715890769058000,0.06422605365514755,0.021066786721348763,0.057425543665885925,9.47068977355957,1.4314095973968506,-4.0014262199401855
1403715890774058000,0.0050630345940589905,0.021005315706133842,0.06386836618185043,8.644892692565918,2.06221604347229,-3.5653798580169678
1403715890779058000,-0.059612080454826355,-0.00438521895557642,0.06668537110090256,9.234419822692871,1.5108368396759033,-3.839040994644165
1403715890784058000,-0.08443562686443329,0.05747777223587036,0.09432746469974518,9.333597183227539,0.5214480757713318,-3.7553012371063232
1403715890789058000,-0.07864084094762802,0.008126825094223022,0.06803715229034424,8.99004077911377,-0.19046905636787415,-3.6037635803222656
1403715890794058000,-0.031526610255241394,0.036269739270210266,0.080509252846241,9.053970336914062,-0.5413042306900024,-3.431647539138794
1403715890799058000,0.005266241729259491,0.0453721284866333,0.07026711851358414,8.931428909301758,-0.040332917124032974,-3.325570583343506
1403715890804058000,0.02696821838617325,0.00539311021566391,0.06883817911148071,9.429160118103027,0.13351817429065704,-3.850900173187256
1403715890809058000,0.0355636402964592,0.03895861655473709,0.07698684930801392,8.825443267822266,0.41801294684410095,-3.5074214935302734
1403715890814058000,0.02924739569425583,0.02416878379881382,0.06151436269283295,9.055627822875977,0.6146200299263,-3.785903215408325
1403715890819058000,0.02309264987707138,0.020792217925190926,0.07046027481555939,9.071364402770996,0.5497454404830933,-3.678041696548462
1403715890824058000,0.014617092907428741,0.039922259747982025,0.08249787986278534,9.07156753540039,0.924389660358429,-3.7621030807495117
1403715890829058000,-0.009274087846279144,0.027672136202454567,0.078917495906353,9.07983112335205,0.8184295892715454,-3.641279935836792
1403715890834058000,-0.030191905796527863,0.01904912479221821,0.09366835653781891,8.997986793518066,0.7767212986946106,-3.5672616958618164
1403715890839058000,-0.04762914776802063,0.043397121131420135,0.09586206823587418,8.867264747619629,0.6709005236625671,-3.5517172813415527
1403715890844058000,-0.04003977030515671,0.00482264906167984,0.10397280752658844,9.022270202636719,0.04810208082199097,-3.5819365978240967
