#timestamp [ns],w_RS_S_x [rad s^-1],w_RS_S_y [rad s^-1],w_RS_S_z [rad s^-1],a_RS_S_x [m s^-2],a_RS_S_y [m s^-2],a_RS_S_z [m s^-2]
1403715886544058000,-0.0020943951023931952,0.01884955592153876,0.07609635538695278,9.062979041666667,0.4494714583333333,-3.6529771249999996
1403715886549058000,-0.003490658503988659,0.021642082724729686,0.07609635538695278,9.062979041666667,0.416782625,-3.6366327083333334
1403715886554058000,-0.0027925268031909274,0.01884955592153876,0.0767944870877505,9.062979041666667,0.367749375,-3.6611493333333334
1403715886559058000,0.0006981317007977319,0.016057029118347832,0.07958701389094143,9.054806833333332,0.4004382083333333,-3.6202882916666663
1403715886564058000,-0.0013962634015954637,0.01884955592153876,0.07749261878854824,9.062979041666667,0.367749375,-3.6121160833333334
1403715886569058000,-0.0006981317007977319,0.013962634015954637,0.07749261878854824,9.095667875,0.40861041666666664,-3.6284604999999996
1403715886574058000,-0.0020943951023931952,0.013962634015954637,0.07749261878854824,9.079323458333333,0.392266,-3.6121160833333334
1403715886579058000,-0.0020943951023931952,0.0153588974175501,0.07609635538695278,9.062979041666667,0.40861041666666664,-3.6202882916666663
1403715886584058000,-0.0020943951023931952,0.012566370614359173,0.07819075048934597,9.054806833333332,0.40861041666666664,-3.6529771249999996
1403715886589058000,-0.0006981317007977319,0.01815142422074103,0.07819075048934597,9.046634625,0.392266,-3.6448049166666663
1403715886594058000,-0.0020943951023931952,0.01815142422074103,0.07609635538695278,9.112012291666666,0.4739880833333333,-3.693838166666666
1403715886599058000,-0.003490658503988659,0.01815142422074103,0.07749261878854824,9.062979041666667,0.416782625,-3.6448049166666663
1403715886604058000,-0.006283185307179587,0.020943951023931952,0.07749261878854824,9.07115125,0.392266,-3.6039438749999997
1403715886609058000,-0.004886921905584123,0.016755160819145562,0.07330382858376185,9.144701125,0.40861041666666664,-3.6284604999999996
1403715886614058000,-0.0041887902047863905,0.01884955592153876,0.07120943348136866,9.103840083333333,0.4494714583333333,-3.6448049166666663
1403715886619058000,-0.004886921905584123,0.02024581932313422,0.07749261878854824,9.103840083333333,0.40861041666666664,-3.6611493333333334
1403715886624058000,-0.0020943951023931952,0.01884955592153876,0.07539822368615504,9.112012291666666,0.40861041666666664,-3.6448049166666663
1403715886629058000,-0.0020943951023931952,0.016057029118347832,0.07539822368615504,9.062979041666667,0.3840937916666667,-3.6529771249999996
1403715886634058000,-0.0013962634015954637,0.016755160819145562,0.07400196028455958,9.079323458333333,0.3759215833333333,-3.6856659583333333
1403715886639058000,0.0,0.01815142422074103,0.07888888219014369,9.030290208333332,0.40861041666666664,-3.6611493333333334
1403715886644058000,-0.0020943951023931952,0.02024581932313422,0.07819075048934597,9.022118,0.43312704166666666,-3.6284604999999996
1403715886649058000,-0.003490658503988659,0.019547687622336492,0.08098327729253688,9.087495666666666,0.43312704166666666,-3.6448049166666663
1403715886654058000,-0.0013962634015954637,0.020943951023931952,0.08098327729253688,9.087495666666666,0.416782625,-3.6284604999999996
1403715886659058000,0.0006981317007977319,0.02234021442552742,0.08028514559173915,9.054806833333332,0.3840937916666667,-3.6448049166666663
1403715886664058000,-0.0041887902047863905,0.02024581932313422,0.07749261878854824,9.087495666666666,0.3840937916666667,-3.6693215416666662
1403715886669058000,-0.0020943951023931952,0.020943951023931952,0.07958701389094143,9.095667875,0.392266,-3.6202882916666663
1403715886674058000,-0.0020943951023931952,0.02024581932313422,0.07609635538695278,9.1201845,0.3840937916666667,-3.6366327083333334
1403715886679058000,-0.004886921905584123,0.016057029118347832,0.07819075048934597,9.087495666666666,0.392266,-3.6202882916666663
1403715886684058000,-0.003490658503988659,0.019547687622336492,0.07819075048934597,9.038462416666666,0.3840937916666667,-3.6202882916666663
1403715886689058000,-0.002849273383617401,0.020145166665315628,0.0761650949716568,9.073565483093262,0.417315274477005,-3.6625356674194336
1403715886694058000,-0.0007210299372673035,0.019454702734947205,0.07756365090608597,9.065245628356934,0.42550382018089294,-3.654637336730957
1403715886699058000,-0.002894766628742218,0.0229368694126606,0.0726892501115799,9.073599815368652,0.360083669424057,-3.6300013065338135
1403715886704058000,-0.0014557987451553345,0.020820610225200653,0.07407712936401367,9.098021507263184,0.441377729177475,-3.6544368267059326
1403715886709058000,-0.0007429644465446472,0.016615144908428192,0.0762275904417038,9.073386192321777,0.4338577389717102,-3.6545701026916504
1403715886714058000,-0.0014734268188476562,0.020119741559028625,0.07411150634288788,9.057229995727539,0.35196587443351746,-3.6464340686798096
1403715886719058000,-0.0014535300433635712,0.022250548005104065,0.07545579224824905,9.146759986877441,0.4572910964488983,-3.7037746906280518
1403715886724058000,-0.0007652081549167633,0.019475627690553665,0.07689174264669418,9.073269844055176,0.3848855793476105,-3.679551839828491
1403715886729058000,-0.0028717592358589172,0.022909965366125107,0.07687655836343765,9.114197731018066,0.35180577635765076,-3.663024425506592
1403715886734058000,-6.283074617385864e-05,0.017296895384788513,0.07826502621173859,9.114136695861816,0.40841999650001526,-3.663029909133911
1403715886739058000,-0.0007673352956771851,0.021494925022125244,0.0783044844865799,9.09766674041748,0.38491153717041016,-3.646416425704956
1403715886744058000,-0.0014572925865650177,0.023608647286891937,0.07901278138160706,9.122247695922852,0.36826756596565247,-3.63832426071167
1403715886749058000,0.0013357661664485931,0.020158294588327408,0.07966644316911697,9.05702018737793,0.416791707277298,-3.6381523609161377
1403715886754058000,-0.0007784739136695862,0.02365598827600479,0.07683619111776352,9.057232856750488,0.42574840784072876,-3.654330015182495
1403715886759058000,-0.0021796561777591705,0.02150331437587738,0.0775676742196083,9.040998458862305,0.44183769822120667,-3.679062843322754
1403715886764058000,0.0006297752261161804,0.02218613028526306,0.0775958001613617,9.040975570678711,0.4333222806453705,-3.6384036540985107
1403715886769058000,-0.001475989818572998,0.02082911878824234,0.07476861774921417,9.049314498901367,0.40080079436302185,-3.654215097427368
1403715886774058000,-0.0021697618067264557,0.022241059690713882,0.07336746901273727,9.089993476867676,0.4088710844516754,-3.6628031730651855
1403715886779058000,-0.0028901509940624237,0.022947203367948532,0.07340869307518005,9.097991943359375,0.39263060688972473,-3.6218554973602295
1403715886784058000,-0.001447036862373352,0.021497108042240143,0.07481155544519424,9.097872734069824,0.40890926122665405,-3.613386392593384
1403715886789058000,-0.003570917993783951,0.01940413936972618,0.0747997984290123,9.057121276855469,0.41707149147987366,-3.64607834815979
1403715886794058000,0.0020555034279823303,0.01732296124100685,0.07760287821292877,9.057169914245605,0.4090003967285156,-3.6464133262634277
1403715886799058000,-0.0007683858275413513,0.018727533519268036,0.07691521942615509,9.081670761108398,0.37634268403053284,-3.646474838256836
1403715886804058000,-0.0007615089416503906,0.01804029569029808,0.07684190571308136,9.089674949645996,0.44156715273857117,-3.6464333534240723
1403715886809058000,-0.0021988190710544586,0.02086208015680313,0.07545643299818039,9.089810371398926,0.4012293219566345,-3.6299357414245605
1403715886814058000,-0.0007546544075012207,0.019446827471256256,0.07549883425235748,9.09789752960205,0.40078747272491455,-3.6299052238464355
1403715886819058000,-0.002165690064430237,0.018711842596530914,0.07481435686349869,9.081499099731445,0.40073564648628235,-3.6298985481262207
1403715886824058000,-6.801635026931763e-05,0.020818177610635757,0.07478723675012589,9.07343578338623,0.35207483172416687,-3.69527006149292
1403715886829058000,-0.0035713985562324524,0.018730007112026215,0.07968679070472717,9.122218132019043,0.4497792422771454,-3.6715312004089355
1403715886834058000,-0.004282541573047638,0.01875569298863411,0.07478608191013336,9.0896577835083,0.40930891036987305,-3.6300463676452637
1403715886839058000,-0.002159334719181061,0.024352964013814926,0.07614313066005707,9.073471069335938,0.376302033662796,-3.646275758743286
1403715886844058000,0.0006745532155036926,0.019430402666330338,0.07900471985340118,9.073526382446289,0.39230629801750183,-3.6382577419281006
1403715886849058000,-0.002161078155040741,0.018000323325395584,0.07619638741016388,9.06529426574707,0.4093326926231384,-3.6707537174224854
1403715886854058000,-0.0028797388076782227,0.021502170711755753,0.07404962182044983,9.081618309020996,0.4664582312107086,-3.654869318008423
1403715886859058000,-0.002864934504032135,0.021549254655838013,0.07549981027841568,9.081685066223145,0.42526155710220337,-3.654484987258911
1403715886864058000,-0.004264034330844879,0.020841099321842194,0.07341460138559341,9.097993850708008,0.3924299478530884,-3.6220285892486572
1403715886869058000,-0.004975765943527222,0.0173247791826725,0.0775802955031395,9.081549644470215,0.3843720555305481,-3.6624836921691895
1403715886874058000,-0.0014385581016540527,0.017333559691905975,0.07689924538135529,9.073427200317383,0.384685754776001,-3.6630144119262695
1403715886879058000,-0.0028571225702762604,0.01943042501807213,0.07410372048616409,9.04098892211914,0.4008961319923401,-3.6381866931915283
1403715886884058000,-0.001461997628211975,0.01731013134121895,0.07756514102220535,9.097909927368164,0.4578525125980377,-3.6299595832824707
1403715886889058000,0.0006351321935653687,0.019474145025014877,0.07685991376638412,9.06528377532959,0.4255373179912567,-3.6379411220550537
1403715886894058000,-0.0035720206797122955,0.020880717784166336,0.07478723675012589,9.073563575744629,0.38448968529701233,-3.662754774093628
1403715886899058000,0.0006503090262413025,0.018003243952989578,0.07270128279924393,9.073620796203613,0.4088599681854248,-3.646634578704834
1403715886904058000,0.0013274438679218292,0.019396208226680756,0.07549617439508438,9.04899787902832,0.43378159403800964,-3.6461684703826904
1403715886909058000,0.0013422891497612,0.015237677842378616,0.07618511468172073,9.10603141784668,0.4254818856716156,-3.646427631378174
1403715886914058000,-0.0015157312154769897,0.018059812486171722,0.07616175711154938,9.0978364944458,0.4005720019340515,-3.654567241668701
1403715886919058000,0.0020076557993888855,0.018050767481327057,0.07620172202587128,9.048972129821777,0.38440924882888794,-3.621962070465088
1403715886924058000,-0.0021885335445404053,0.01663253828883171,0.07620515674352646,9.106180191040039,0.40099018812179565,-3.646162986755371
1403715886929058000,-0.0028894804418087006,0.01734309270977974,0.07754501700401306,9.081439018249512,0.4336899220943451,-3.6627774238586426
1403715886934058000,0.001332547515630722,0.018735207617282867,0.07547350972890854,9.04895305633545,0.36825260519981384,-3.6465158462524414
1403715886939058000,-4.9211084842681885e-05,0.018735837191343307,0.07411257922649384,9.081818580627441,0.38420888781547546,-3.662853717803955
1403715886944058000,-0.002910129725933075,0.017354384064674377,0.07623587548732758,9.040942192077637,0.36023440957069397,-3.622011184692383
1403715886949058000,-0.0036127492785453796,0.018053047358989716,0.07337355613708496,9.0980224609375,0.3685087263584137,-3.6461431980133057
1403715886954058000,-0.004237759858369827,0.022255677729845047,0.07405341416597366,9.089798927307129,0.4172298014163971,-3.6547279357910156
1403715886959058000,-0.004249695688486099,0.017343666404485703,0.0762261152267456,9.040796279907227,0.4092142581939697,-3.670910596847534
1403715886964058000,-0.0021524205803871155,0.019418690353631973,0.07761792838573456,9.05727767944336,0.400910347700119,-3.6794145107269287
1403715886969058000,-0.0007206909358501434,0.022940006107091904,0.08036884665489197,9.08155632019043,0.44153717160224915,-3.6711041927337646
1403715886974058000,-0.0014497265219688416,0.020123794674873352,0.07615864276885986,9.114090919494629,0.4092591106891632,-3.622032403945923
1403715886979058000,-7.703900337219238e-05,0.015892047435045242,0.0754518210887909,9.097810745239258,0.4088056683540344,-3.6461541652679443
1403715886984058000,-0.003587808459997177,0.018718324601650238,0.07619230449199677,9.081563949584961,0.41690102219581604,-3.63014817237854
1403715886989058000,-0.0028531700372695923,0.019458577036857605,0.07689769566059113,9.097846984863281,0.40085920691490173,-3.629793167114258
1403715886994058000,-0.0028556063771247864,0.01942526176571846,0.07760866731405258,9.113941192626953,0.441506952047348,-3.662710666656494
1403715886999058000,-0.0014463216066360474,0.02293037623167038,0.07900559902191162,9.073263168334961,0.4334317743778229,-3.670992374420166
1403715887004058000,-0.003581404685974121,0.02086261287331581,0.07615123689174652,9.106141090393066,0.37630414962768555,-3.6629526615142822
1403715887009058000,-0.0014507174491882324,0.017986342310905457,0.07539217174053192,9.13849925994873,0.4494766592979431,-3.6792211532592773
1403715887014058000,-3.2708048820495605e-05,0.022158391773700714,0.07405897229909897,9.122089385986328,0.4501975178718567,-3.63826584815979
1403715887019058000,0.001363169401884079,0.02225373312830925,0.07694060355424881,9.097759246826172,0.4254887104034424,-3.637845277786255
1403715887024058000,-0.0007773786783218384,0.01876622438430786,0.07834494858980179,9.089679718017578,0.4249502420425415,-3.646303415298462
1403715887029058000,-0.0028927847743034363,0.021514147520065308,0.07546878606081009,9.057153701782227,0.40912020206451416,-3.6543288230895996
1403715887034058000,-0.004985593259334564,0.023626647889614105,0.0747409239411354,9.065472602844238,0.38479453325271606,-3.679152250289917
1403715887039058000,-0.002856992185115814,0.01731405407190323,0.07404475659132004,9.089905738830566,0.4497302174568176,-3.671262502670288
1403715887044058000,0.003485586494207382,0.02148747816681862,0.07688599824905396,9.081683158874512,0.4011003077030182,-3.646479845046997
1403715887049058000,0.0027486905455589294,0.022956468164920807,0.07622978091239929,9.065380096435547,0.41708001494407654,-3.6381380558013916
1403715887054058000,0.002702612429857254,0.019446495920419693,0.07903488725423813,9.049111366271973,0.4008673131465912,-3.5971603393554688
1403715887059058000,-0.00012077391147613525,0.021489188075065613,0.08039519190788269,9.065388679504395,0.376615971326828,-3.670344352722168
1403715887064058000,-0.0014897435903549194,0.018033284693956375,0.07188592106103897,9.065455436706543,0.39278444647789,-3.679556369781494
1403715887069058000,-0.0014782026410102844,0.01944097876548767,0.0803418904542923,9.0653657913208,0.4090813994407654,-3.622013568878174
1403715887074058000,-0.004976905882358551,0.023620452731847763,0.07555924355983734,9.114316940307617,0.40930140018463135,-3.678903818130493
1403715887079058000,-0.004258826375007629,0.01803223043680191,0.0761803537607193,9.105855941772461,0.46619847416877747,-3.6385903358459473
1403715887084058000,-0.002882678061723709,0.019451763480901718,0.07480823993682861,9.057080268859863,0.3766595721244812,-3.5887932777404785
1403715887089058000,-0.005672462284564972,0.018710900098085403,0.07407243549823761,9.097960472106934,0.4169621765613556,-3.6541945934295654
1403715887094058000,9.201467037200928e-07,0.01939256861805916,0.07685945928096771,9.138473510742188,0.43357178568840027,-3.654719591140747
1403715887099058000,-2.2649765014648438e-05,0.01945071667432785,0.07618053257465363,9.065032005310059,0.43375441431999207,-3.6216843128204346
1403715887104058000,-0.0014359094202518463,0.022961262613534927,0.07269269973039627,9.098055839538574,0.39248913526535034,-3.6545467376708984
1403715887109058000,-0.0028884410858154297,0.017339419573545456,0.07692619413137436,9.106005668640137,0.4249887764453888,-3.621904134750366
1403715887114058000,-0.0007491670548915863,0.021476835012435913,0.07688167691230774,9.113953590393066,0.40931710600852966,-3.629591703414917
1403715887119058000,-0.003564886748790741,0.018699675798416138,0.07475167512893677,9.114117622375488,0.4090519845485687,-3.6219258308410645
1403715887124058000,-0.0035929009318351746,0.02085307613015175,0.07762012630701065,9.057147026062012,0.417064905166626,-3.613208532333374
1403715887129058000,-0.0021715983748435974,0.020864270627498627,0.07691782712936401,9.049121856689453,0.4091101586818695,-3.662344455718994
1403715887134058000,-0.0007358193397521973,0.015212751924991608,0.0789441168308258,9.081603050231934,0.45814716815948486,-3.6548197269439697
1403715887139058000,-6.525963544845581e-05,0.018008075654506683,0.0782506912946701,9.073416709899902,0.4337072968482971,-3.6380984783172607
1403715887144058000,-0.0036120936274528503,0.020140156149864197,0.07619284838438034,9.041061401367188,0.3845466673374176,-3.6463510990142822
1403715887149058000,-0.0021486058831214905,0.01875784620642662,0.07619207352399826,9.073699951171875,0.4087578356266022,-3.67095685005188
1403715887154058000,-0.0014454573392868042,0.0229630284011364,0.075454480946064,9.05722713470459,0.4419761300086975,-3.6464693546295166
1403715887159058000,-0.0021574273705482483,0.022936441004276276,0.07758388668298721,9.097879409790039,0.40931418538093567,-3.6627795696258545
1403715887164058000,-0.001457463949918747,0.017989609390497208,0.08112815767526627,9.105889320373535,0.4494987726211548,-3.6794166564941406
1403715887169058000,-0.0021715164184570312,0.020785309374332428,0.07617297023534775,9.057087898254395,0.4336536228656769,-3.6465866565704346
1403715887174058000,0.0006500035524368286,0.02153730019927025,0.07682082802057266,9.08165454864502,0.4010521471500397,-3.6382815837860107
1403715887179058000,-0.002899251878261566,0.01737673580646515,0.07897678017616272,9.057065963745117,0.42520028352737427,-3.6626949310302734
1403715887184058000,-5.874037742614746e-05,0.018011849373579025,0.07689549028873444,9.081588745117188,0.3928307294845581,-3.630235433578491
1403715887189058000,-0.0007671639323234558,0.018727634102106094,0.07127003371715546,9.049140930175781,0.42543745040893555,-3.662548780441284
1403715887194058000,-5.6512653827667236e-05,0.018737979233264923,0.0769130289554596,9.089821815490723,0.3927430808544159,-3.679474115371704
1403715887199058000,-0.0007959231734275818,0.021524552255868912,0.07693677395582199,9.057188987731934,0.3846021890640259,-3.6383912563323975
1403715887204058000,-0.005000442266464233,0.0194484144449234,0.07754853367805481,9.114133834838867,0.384581059217453,-3.654536724090576
1403715887209058000,-0.003557022660970688,0.018745314329862595,0.07756823301315308,9.105896949768066,0.42553624510765076,-3.6219775676727295
1403715887214058000,-0.0035710223019123077,0.016606763005256653,0.07903209328651428,9.056968688964844,0.40120401978492737,-3.6459596157073975
1403715887219058000,-0.0014377832412719727,0.01872463896870613,0.0747504010796547,9.04910945892334,0.41713353991508484,-3.6628849506378174
1403715887224058000,-0.005686856806278229,0.01877778023481369,0.08034352213144302,9.065329551696777,0.42547014355659485,-3.6218714714050293
1403715887229058000,-0.0021350905299186707,0.020854659378528595,0.08115669339895248,9.09777545928955,0.40920504927635193,-3.670607328414917
1403715887234058000,-0.002852160483598709,0.017325270920991898,0.07691130042076111,9.089723587036133,0.40081265568733215,-3.6386444568634033
1403715887239058000,-0.002845894545316696,0.01869400590658188,0.07680806517601013,9.106014251708984,0.4251932203769684,-3.6297829151153564
1403715887244058000,0.004200547933578491,0.022900700569152832,0.07964468747377396,9.130309104919434,0.4009237289428711,-3.679088592529297
1403715887249058000,-0.0014622509479522705,0.018743809312582016,0.07968275994062424,9.105655670166016,0.44151571393013,-3.7038955688476562
1403715887254058000,-0.0014947541058063507,0.020148582756519318,0.07758505642414093,9.057043075561523,0.39274564385414124,-3.6303539276123047
1403715887259058000,-0.0022236406803131104,0.01733246073126793,0.07690060138702393,9.089859008789062,0.37623167037963867,-3.646118640899658
1403715887264058000,-0.002850569784641266,0.020102325826883316,0.07900272309780121,9.114118576049805,0.4089059829711914,-3.6464433670043945
1403715887269058000,-0.0014558136463165283,0.023628078401088715,0.07332777976989746,9.081612586975098,0.38482335209846497,-3.638062000274658
1403715887274058000,-0.001473933458328247,0.02224798873066902,0.07615053653717041,9.089847564697266,0.40901774168014526,-3.6547060012817383
1403715887279058000,0.0006647780537605286,0.020131941884756088,0.07486414164304733,9.11420726776123,0.4253046214580536,-3.654658079147339
1403715887284058000,-0.0014936849474906921,0.019386768341064453,0.07411069422960281,9.081501007080078,0.36031538248062134,-3.6218440532684326
1403715887289058000,-6.465986371040344e-05,0.016582559794187546,0.07753121107816696,9.089639663696289,0.441463828086853,-3.7034263610839844
1403715887294058000,-0.0007562562823295593,0.020841307938098907,0.07759668678045273,9.081692695617676,0.42564529180526733,-3.646899938583374
1403715887299058000,-0.004980102181434631,0.021587003022432327,0.07971742004156113,9.08158016204834,0.40094929933547974,-3.6214654445648193
1403715887304058000,-0.0007491409778594971,0.01664859801530838,0.08035793155431747,9.089653015136719,0.4494326412677765,-3.687107801437378
1403715887309058000,0.001366201788187027,0.01728127896785736,0.07962820678949356,9.089680671691895,0.45001745223999023,-3.7038378715515137
1403715887314058000,-0.0007662773132324219,0.022185765206813812,0.07757476717233658,9.097909927368164,0.39281025528907776,-3.6222805976867676
1403715887319058000,0.006238333880901337,0.017346546053886414,0.07826545089483261,9.073378562927246,0.39205411076545715,-3.6461405754089355
1403715887324058000,0.0019981861114501953,0.017353132367134094,0.07549115270376205,9.073558807373047,0.36817216873168945,-3.6137170791625977
1403715887329058000,0.0006172209978103638,0.02296023815870285,0.07548121362924576,9.081696510314941,0.40912437438964844,-3.6540725231170654
1403715887334058000,-0.0008187219500541687,0.021543461829423904,0.0768899917602539,9.081594467163086,0.4254174828529358,-3.638598918914795
1403715887339058000,-0.0007720217108726501,0.025690894573926926,0.07338297367095947,9.057315826416016,0.409108966588974,-3.6133739948272705
1403715887344058000,0.0006531402468681335,0.022207818925380707,0.07195276767015457,9.114388465881348,0.3926687240600586,-3.64616060256958
1403715887349058000,-0.0029185935854911804,0.019440822303295135,0.0769045427441597,9.048906326293945,0.4417664408683777,-3.6463146209716797
1403715887354058000,0.0020433515310287476,0.02217535302042961,0.08186458796262741,9.065319061279297,0.3930777907371521,-3.6053314208984375
1403715887359058000,-6.0521066188812256e-05,0.020085178315639496,0.08180545270442963,9.097944259643555,0.4006109833717346,-3.645993232727051
1403715887364058000,-0.000765681266784668,0.01735534891486168,0.07330919802188873,9.097784996032715,0.4415847957134247,-3.6218910217285156
1403715887369058000,-0.002192176878452301,0.02085239067673683,0.07543241232633591,9.04902172088623,0.4093872606754303,-3.6295337677001953
1403715887374058000,-0.0028448402881622314,0.01940777897834778,0.07688967883586884,9.098024368286133,0.41704994440078735,-3.638292074203491
1403715887379058000,-0.0028406716883182526,0.02010113000869751,0.07547687739133835,9.105926513671875,0.4659698009490967,-3.646214723587036
1403715887384058000,0.002053461968898773,0.01942012831568718,0.07625247538089752,9.081442832946777,0.39298295974731445,-3.6300621032714844
1403715887389058000,0.0020528286695480347,0.017353594303131104,0.07551982998847961,9.081626892089844,0.42498937249183655,-3.6790263652801514
1403715887394058000,-0.0014971718192100525,0.017348356544971466,0.07328645884990692,9.073542594909668,0.42534491419792175,-3.630335807800293
1403715887399058000,-0.002896614372730255,0.02152743935585022,0.07468440383672714,9.10600471496582,0.4092753529548645,-3.67877197265625
1403715887404058000,-0.002158183604478836,0.020870830863714218,0.0776568204164505,9.07337760925293,0.39254030585289,-3.6878302097320557
1403715887409058000,-0.0014391988515853882,0.019451308995485306,0.07559694349765778,9.073522567749023,0.40891751646995544,-3.6465909481048584
1403715887414058000,-0.004998393356800079,0.019402198493480682,0.07689206302165985,9.081713676452637,0.3603786528110504,-3.621922016143799
1403715887419058000,0.0006586126983165741,0.019403114914894104,0.07753773033618927,9.073378562927246,0.3925766348838806,-3.646263837814331
1403715887424058000,-0.0028819218277931213,0.01663672924041748,0.07475899904966354,9.049070358276367,0.41742628812789917,-3.6382596492767334
1403715887429058000,-0.0021654516458511353,0.020142585039138794,0.07687874138355255,9.106175422668457,0.4011945426464081,-3.6465072631835938
1403715887434058000,-0.002165190875530243,0.022274628281593323,0.07411105185747147,9.114142417907715,0.4008226692676544,-3.6466236114501953
1403715887439058000,-0.0007211975753307343,0.01732659712433815,0.07479545474052429,9.097739219665527,0.4172135591506958,-3.638158082962036
1403715887444058000,-0.0007442981004714966,0.017962876707315445,0.07829368859529495,9.114115715026855,0.4093014597892761,-3.6299901008605957
1403715887449058000,-0.0007883645594120026,0.018714018166065216,0.0796838328242302,9.073240280151367,0.4415760934352875,-3.629753351211548
1403715887454058000,-0.001477852463722229,0.02086801826953888,0.0761757418513298,9.065296173095703,0.3845297396183014,-3.6542696952819824
1403715887459058000,-0.003577582538127899,0.021551545709371567,0.0775606632232666,9.09800910949707,0.3843039274215698,-3.662825345993042
1403715887464058000,-5.764514207839966e-05,0.018736522644758224,0.07969243824481964,9.081549644470215,0.39259782433509827,-3.63826060295105
1403715887469058000,-0.0014726817607879639,0.02151961252093315,0.07900510728359222,9.073494911193848,0.38465672731399536,-3.6135032176971436
1403715887474058000,-0.002863306552171707,0.01938912644982338,0.07617073506116867,9.10612964630127,0.3926043212413788,-3.6706900596618652
1403715887479058000,-0.003576330840587616,0.020101014524698257,0.07969759404659271,9.097698211669922,0.44158074259757996,-3.6630661487579346
1403715887484058000,-0.0014475248754024506,0.01876438409090042,0.07758739590644836,9.089616775512695,0.409341961145401,-3.646446466445923
1403715887489058000,-0.0014442913234233856,0.018746230751276016,0.07469825446605682,9.09791088104248,0.425243616104126,-3.646432876586914
1403715887494058000,-0.0028720349073410034,0.018716730177402496,0.07405675202608109,9.065268516540527,0.47432446479797363,-3.662508726119995
1403715887499058000,-0.002165861427783966,0.01942381262779236,0.072044737637043,9.057302474975586,0.4093233048915863,-3.6464617252349854
1403715887504058000,-0.0014435425400733948,0.01874614879488945,0.07549119740724564,9.089842796325684,0.4331376254558563,-3.679109573364258
1403715887509058000,-0.0014632344245910645,0.019447382539510727,0.07619188725948334,9.081613540649414,0.41702309250831604,-3.646685838699341
1403715887514058000,-0.00218336284160614,0.018729038536548615,0.07902663201093674,9.081604957580566,0.3764633536338806,-3.6462621688842773
1403715887519058000,-0.0014575496315956116,0.01731516793370247,0.07829976826906204,9.09788703918457,0.4168618321418762,-3.613842487335205
1403715887524058000,-5.231425166130066e-05,0.015227794647216797,0.07750489562749863,9.081425666809082,0.4662437438964844,-3.6459226608276367
1403715887529058000,-0.0014681890606880188,0.023648105561733246,0.07613985985517502,9.114152908325195,0.4012148380279541,-3.687490940093994
1403715887534058000,-0.0014784187078475952,0.02018100395798683,0.075504370033741,9.065271377563477,0.3760094940662384,-3.712235450744629
1403715887539058000,-0.0028795599937438965,0.018724877387285233,0.07692413032054901,9.065338134765625,0.4171874523162842,-3.655022144317627
1403715887544058000,-0.002864152193069458,0.022210434079170227,0.07761488854885101,9.081713676452637,0.3933119475841522,-3.654308319091797
1403715887549058000,-0.0049784258008003235,0.021525103598833084,0.07756516337394714,9.081523895263672,0.425356388092041,-3.654595375061035
1403715887554058000,-3.119558095932007e-05,0.01870684325695038,0.07684046030044556,9.089733123779297,0.4252879023551941,-3.6300203800201416
1403715887559058000,-0.002150658518075943,0.018016446381807327,0.07404587417840958,9.122363090515137,0.40927404165267944,-3.6381683349609375
1403715887564058000,-0.001455593854188919,0.01525045931339264,0.07758373767137527,9.122084617614746,0.4171968996524811,-3.6628105640411377
1403715887569058000,-6.99460506439209e-05,0.020825285464525223,0.07975055277347565,9.065104484558105,0.40906843543052673,-3.6301112174987793
1403715887574058000,0.0027606412768363953,0.018709439784288406,0.07971223443746567,9.057145118713379,0.4171765148639679,-3.6379854679107666
1403715887579058000,-6.670504808425903e-05,0.02014545351266861,0.07614612579345703,9.114245414733887,0.42526835203170776,-3.654542922973633
1403715887584058000,-0.002210557460784912,0.01875416934490204,0.07471827417612076,9.081486701965332,0.4417783319950104,-3.6380558013916016
1403715887589058000,-0.002180393785238266,0.0214899443089962,0.07546816766262054,9.114317893981934,0.3682810366153717,-3.6299257278442383
1403715887594058000,-0.0035625100135803223,0.02011607214808464,0.07830948382616043,9.114175796508789,0.42503681778907776,-3.6788594722747803
1403715887599058000,-0.001466125249862671,0.02085062861442566,0.07905788719654083,9.073263168334961,0.3929428160190582,-3.6383557319641113
1403715887604058000,-0.000764600932598114,0.020162425935268402,0.07409964501857758,9.089807510375977,0.34379851818084717,-3.6707615852355957
1403715887609058000,0.0013620518147945404,0.017315760254859924,0.07539921253919601,9.048999786376953,0.45769497752189636,-3.646648406982422
1403715887614058000,0.0006242170929908752,0.020785368978977203,0.0754380077123642,9.073575019836426,0.4422629475593567,-3.60516619682312
1403715887619058000,-0.0014989152550697327,0.02014041319489479,0.07550978660583496,9.065511703491211,0.3765832483768463,-3.6379520893096924
1403715887624058000,-0.0007544644176959991,0.018740810453891754,0.0811663344502449,9.089710235595703,0.4410604238510132,-3.646484136581421
1403715887629058000,-0.002157561480998993,0.022921375930309296,0.0804399698972702,9.08157730102539,0.44214531779289246,-3.629877805709839
1403715887634058000,-6.640702486038208e-05,0.02153506875038147,0.07681293785572052,9.049064636230469,0.3358187675476074,-3.670893907546997
1403715887639058000,0.0006376206874847412,0.018702879548072815,0.0760674700140953,9.11421012878418,0.4327017664909363,-3.663126230239868
1403715887644058000,-7.456541061401367e-05,0.020805764943361282,0.076884925365448,9.08965015411377,0.4257346987724304,-3.6298866271972656
1403715887649058000,-0.0042999982833862305,0.018741603940725327,0.07554049789905548,9.138517379760742,0.3930259048938751,-3.6790990829467773
1403715887654058000,-0.0049908459186553955,0.016641516238451004,0.07552061975002289,9.081549644470215,0.40037381649017334,-3.6304051876068115
1403715887659058000,-0.003546055406332016,0.018018219619989395,0.07691624015569687,9.081549644470215,0.3846239447593689,-3.621443748474121
1403715887664058000,-0.0021084919571876526,0.021545175462961197,0.07475408911705017,9.1386079788208,0.40929073095321655,-3.662771224975586
1403715887669058000,-0.002850104123353958,0.014544952660799026,0.07400684058666229,9.130220413208008,0.4171788990497589,-3.654775619506836
1403715887674058000,0.002062767744064331,0.018691033124923706,0.07760994136333466,9.097753524780273,0.36008089780807495,-3.6465461254119873
1403715887679058000,-5.852803587913513e-05,0.019450638443231583,0.07625669240951538,9.097955703735352,0.3842847943305969,-3.687418222427368
1403715887684058000,-0.0007705613970756531,0.017360668629407883,0.07546879351139069,9.10593032836914,0.42552852630615234,-3.679337501525879
1403715887689058000,-0.0021975934505462646,0.020837340503931046,0.0768788754940033,9.057097434997559,0.36860254406929016,-3.6464157104492188
1403715887694058000,-0.0028511062264442444,0.02365066483616829,0.07759642601013184,9.10618782043457,0.38411858677864075,-3.6545748710632324
1403715887699058000,-0.0021593719720840454,0.020852088928222656,0.07616172730922699,9.073538780212402,0.4252741038799286,-3.6544294357299805
1403715887704058000,-0.0007777586579322815,0.02077832818031311,0.07476043701171875,9.073531150817871,0.4095083475112915,-3.654520273208618
1403715887709058000,0.0013513639569282532,0.018684715032577515,0.07900790870189667,9.089774131774902,0.449639230966568,-3.64652943611145
1403715887714058000,0.0013239644467830658,0.01874157413840294,0.07409689575433731,9.081659317016602,0.4088737666606903,-3.5972249507904053
1403715887719058000,-0.0036194249987602234,0.018734559416770935,0.07614725083112717,9.081656455993652,0.3680912256240845,-3.6377570629119873
1403715887724058000,-0.0028824731707572937,0.01593129336833954,0.07972991466522217,9.073482513427734,0.40873804688453674,-3.646486759185791
1403715887729058000,-0.00285470113158226,0.02015720307826996,0.08042848110198975,9.049047470092773,0.41735419631004333,-3.6379799842834473
1403715887734058000,-0.003541249781847,0.02433054894208908,0.07824183255434036,9.106157302856445,0.39269086718559265,-3.6627156734466553
1403715887739058000,-0.0021488405764102936,0.020812824368476868,0.07401788234710693,9.122273445129395,0.4331133961677551,-3.6792125701904297
1403715887744058000,-0.0007586553692817688,0.022225849330425262,0.07619538903236389,9.057077407836914,0.3929079473018646,-3.6382670402526855
1403715887749058000,-0.0007582232356071472,0.018725953996181488,0.07620631903409958,9.073567390441895,0.40905675292015076,-3.6543643474578857
1403715887754058000,-5.463138222694397e-05,0.021503984928131104,0.07828444242477417,9.114151954650879,0.425242155790329,-3.670988082885742
1403715887759058000,-5.909428000450134e-05,0.02152584120631218,0.07693441212177277,9.081399917602539,0.40914732217788696,-3.621917963027954
1403715887764058000,-0.0014750845730304718,0.016653791069984436,0.07477118074893951,9.057229995727539,0.38446682691574097,-3.629855155944824
1403715887769058000,-0.0021899566054344177,0.015231918543577194,0.07822214066982269,9.08991527557373,0.3761824667453766,-3.646461248397827
1403715887774058000,0.0006206296384334564,0.015191182494163513,0.07969101518392563,9.04889965057373,0.41731029748916626,-3.6217892169952393
1403715887779058000,0.0006277300417423248,0.020819436758756638,0.07904190570116043,9.057188034057617,0.40918397903442383,-3.6053473949432373
1403715887784058000,-9.274855256080627e-05,0.01598622277379036,0.07620424777269363,9.065470695495605,0.42523831129074097,-3.6297333240509033
1403715887789058000,-0.0029087141156196594,0.020165741443634033,0.07895433902740479,9.057160377502441,0.45798417925834656,-3.621605396270752
1403715887794058000,-0.0014628246426582336,0.02154586836695671,0.07824581861495972,9.05721378326416,0.43374186754226685,-3.646064519882202
1403715887799058000,-0.0028512999415397644,0.020794518291950226,0.0782427117228508,9.089759826660156,0.48237860202789307,-3.670931339263916
1403715887804058000,-0.002155087888240814,0.02080155909061432,0.07550782710313797,9.097850799560547,0.4335387051105499,-3.613727331161499
1403715887809058000,-0.0007440485060214996,0.020149674266576767,0.07689735293388367,9.105894088745117,0.4251212775707245,-3.6459758281707764
1403715887814058000,-0.000744212418794632,0.019437119364738464,0.0775529146194458,9.114049911499023,0.43327346444129944,-3.6383471488952637
1403715887819058000,-0.0021788179874420166,0.01869288831949234,0.07755441218614578,9.081430435180664,0.4172848165035248,-3.654311180114746
1403715887824058000,-0.0028728097677230835,0.0243072509765625,0.07761971652507782,9.105978965759277,0.38447898626327515,-3.6467058658599854
1403715887829058000,-0.002130277454853058,0.017350759357213974,0.07688896358013153,9.122130393981934,0.4496288299560547,-3.687279462814331
1403715887834058000,-0.0007431134581565857,0.020117249339818954,0.07263143360614777,9.057076454162598,0.39320501685142517,-3.6713268756866455
1403715887839058000,-0.0021741315722465515,0.02361248806118965,0.07757195085287094,9.073570251464844,0.36822593212127686,-3.6629648208618164
1403715887844058000,-4.933774471282959e-05,0.02223050221800804,0.07623846083879471,9.130537033081055,0.4007822275161743,-3.646653413772583
1403715887849058000,0.001334216445684433,0.017324298620224,0.07550393790006638,9.065107345581055,0.4014256000518799,-3.613497495651245
1403715887854058000,-0.0007857084274291992,0.01872258633375168,0.07266261428594589,9.07360553741455,0.37671658396720886,-3.6707355976104736
1403715887859058000,-0.0036141835153102875,0.018047917634248734,0.07618620246648788,9.073684692382812,0.35175132751464844,-3.622351884841919
1403715887864058000,-0.0021848976612091064,0.01873088628053665,0.07692062109708786,9.032732009887695,0.3683960735797882,-3.605103015899658
1403715887869058000,-0.0007515028119087219,0.020148150622844696,0.07690925151109695,9.057412147521973,0.32772505283355713,-3.654468536376953
1403715887874058000,0.0034641698002815247,0.019466884434223175,0.08041716367006302,9.089881896972656,0.4007830321788788,-3.646599769592285
1403715887879058000,-0.00010420382022857666,0.0180189348757267,0.08251288533210754,9.048910140991211,0.4174003303050995,-3.654458999633789
1403715887884058000,-0.0015007294714450836,0.017976537346839905,0.07610961049795151,9.089941024780273,0.3193674683570862,-3.6630520820617676
1403715887889058000,-0.0036007948219776154,0.01594243198633194,0.07681477069854736,9.09788703918457,0.39218682050704956,-3.6382603645324707
1403715887894058000,-0.0014672726392745972,0.017386537045240402,0.0762503370642662,9.065204620361328,0.376671701669693,-3.6134071350097656
1403715887899058000,-0.0007455721497535706,0.01945291832089424,0.07904008775949478,9.106075286865234,0.35198846459388733,-3.63808274269104
1403715887904058000,0.001363079994916916,0.01592286303639412,0.07616733759641647,9.13036823272705,0.4165302813053131,-3.6383016109466553
1403715887909058000,-0.0007849037647247314,0.018018580973148346,0.07475818693637848,9.089531898498535,0.41726911067962646,-3.646303176879883
1403715887914058000,-0.002911008894443512,0.02083757519721985,0.07619515061378479,9.06533432006836,0.3682452440261841,-3.6547224521636963
1403715887919058000,-0.004994258284568787,0.015248537063598633,0.07475287467241287,9.097952842712402,0.4002423882484436,-3.6546287536621094
1403715887924058000,-0.0007329806685447693,0.01733321323990822,0.07829900830984116,9.065195083618164,0.3763371706008911,-3.621842622756958
1403715887929058000,-2.7120113372802734e-05,0.01874682679772377,0.07979001104831696,9.089738845825195,0.36803603172302246,-3.6380043029785156
1403715887934058000,-0.0007779747247695923,0.018760252743959427,0.07689797878265381,9.040994644165039,0.41678622364997864,-3.621736764907837
1403715887939058000,-0.005024939775466919,0.017326325178146362,0.07400484383106232,9.081771850585938,0.4091368615627289,-3.6215291023254395
1403715887944058000,-0.0021588727831840515,0.01731489598751068,0.07684826850891113,9.114175796508789,0.4089148938655853,-3.638169527053833
1403715887949058000,-0.0014441348612308502,0.01874697208404541,0.07904613763093948,9.081443786621094,0.4005199372768402,-3.6218361854553223
1403715887954058000,0.0027839727699756622,0.021512866020202637,0.0762101411819458,9.106101036071777,0.4171021580696106,-3.6216790676116943
1403715887959058000,-0.0007782429456710815,0.02013738825917244,0.07405631989240646,9.073479652404785,0.4171815812587738,-3.6707096099853516
1403715887964058000,-0.0007838532328605652,0.017356492578983307,0.0747627317905426,9.089699745178223,0.39251184463500977,-3.67935848236084
1403715887969058000,0.001333441585302353,0.023604758083820343,0.07544456422328949,9.106053352355957,0.4495810866355896,-3.62197208404541
1403715887974058000,-0.0028996914625167847,0.020809374749660492,0.0768861398100853,9.073397636413574,0.4254920482635498,-3.637744903564453
1403715887979058000,0.0006449446082115173,0.018723685294389725,0.07203426957130432,9.08175277709961,0.39257389307022095,-3.6545419692993164
1403715887984058000,0.0006403550505638123,0.02083830162882805,0.07339409738779068,9.081686973571777,0.43315553665161133,-3.6545350551605225
1403715887989058000,-0.004288453608751297,0.018733449280261993,0.07616665214300156,9.114118576049805,0.40921878814697266,-3.654764413833618
1403715887994058000,0.0006277486681938171,0.017987944185733795,0.07966280728578568,9.09770679473877,0.45795848965644836,-3.638284206390381
1403715887999058000,0.0006455108523368835,0.022204682230949402,0.07901985198259354,9.08150863647461,0.4497709572315216,-3.6216633319854736
1403715888004058000,-0.0007421299815177917,0.020869769155979156,0.07689708471298218,9.106093406677246,0.38453006744384766,-3.64628529548645
1403715888009058000,-0.0036075860261917114,0.01733323559165001,0.07753665745258331,9.089612007141113,0.4087526202201843,-3.6464695930480957
1403715888014058000,-0.0042884461581707,0.015182238072156906,0.07472693175077438,9.05712890625,0.4337488114833832,-3.629856586456299
1403715888019058000,-0.0021293237805366516,0.020834267139434814,0.07759770005941391,9.08993148803711,0.3930199444293976,-3.6544106006622314
1403715888024058000,-0.004267808049917221,0.019491448998451233,0.07416296005249023,9.089762687683105,0.41687706112861633,-3.6628313064575195
1403715888029058000,-3.56622040271759e-05,0.020840033888816833,0.07760439068078995,9.089694023132324,0.39278918504714966,-3.63830304145813
1403715888034058000,-0.00285513699054718,0.020845331251621246,0.07895868271589279,9.089767456054688,0.38481250405311584,-3.6790337562561035
1403715888039058000,-0.0014361292123794556,0.019401278346776962,0.07680992037057877,9.122220993041992,0.4661944806575775,-3.679429769515991
1403715888044058000,-0.0021780580282211304,0.018675990402698517,0.0761585533618927,9.073256492614746,0.4665842354297638,-3.670905828475952
1403715888049058000,-0.0021509453654289246,0.01803049072623253,0.07832471281290054,9.073413848876953,0.4009256660938263,-3.662994623184204
1403715888054058000,-4.214048385620117e-05,0.020192209631204605,0.07479508221149445,9.081750869750977,0.38409245014190674,-3.6301212310791016
1403715888059058000,0.00203578919172287,0.022259380668401718,0.07406558096408844,9.065384864807129,0.38469162583351135,-3.6297447681427
1403715888064058000,0.0006123967468738556,0.01939699798822403,0.07691887021064758,9.08171272277832,0.37663933634757996,-3.638237953186035
1403715888069058000,-0.00362357497215271,0.02010446786880493,0.07481001317501068,9.073559761047363,0.41702792048454285,-3.646361827850342
1403715888074058000,-0.005692519247531891,0.023625314235687256,0.07614757865667343,9.097885131835938,0.43361398577690125,-3.662785768508911
1403715888079058000,-0.002134382724761963,0.020828809589147568,0.07758492231369019,9.097826957702637,0.39291757345199585,-3.6547977924346924
1403715888084058000,-0.0014212056994438171,0.022219017148017883,0.07830493897199631,9.114033699035645,0.4333905577659607,-3.654534339904785
1403715888089058000,-0.002870023250579834,0.022234685719013214,0.07828456163406372,9.081520080566406,0.40113386511802673,-3.629939556121826
1403715888094058000,-0.0035770684480667114,0.02011992037296295,0.0761491060256958,9.073419570922852,0.42541319131851196,-3.6541991233825684
1403715888099058000,0.0013743750751018524,0.018688391894102097,0.07617491483688354,9.0571870803833,0.43344634771347046,-3.670886278152466
1403715888104058000,0.001352354884147644,0.017303135246038437,0.07901059091091156,9.089792251586914,0.3845987319946289,-3.630213975906372
1403715888109058000,-0.0021840259432792664,0.020150937139987946,0.07899068295955658,9.12230396270752,0.38430067896842957,-3.621750593185425
1403715888114058000,0.0006435811519622803,0.01663834974169731,0.07476512342691422,9.130396842956543,0.3844294548034668,-3.646338701248169
1403715888119058000,-0.003594323992729187,0.01872280240058899,0.07548145204782486,9.073379516601562,0.37657904624938965,-3.621920585632324
1403715888124058000,-0.0014920830726623535,0.018051687628030777,0.07900398224592209,9.049010276794434,0.3681025505065918,-3.6216604709625244
1403715888129058000,0.0006227493286132812,0.016626771539449692,0.0782909095287323,9.106075286865234,0.38447999954223633,-3.638132095336914
1403715888134058000,0.0027769729495048523,0.01731526106595993,0.07616828382015228,9.097745895385742,0.45825931429862976,-3.6380105018615723
1403715888139058000,-0.0036114007234573364,0.021568484604358673,0.07621019333600998,9.065373420715332,0.4094333052635193,-3.64626145362854
1403715888144058000,-0.0015002042055130005,0.019470948725938797,0.07828422635793686,9.089962005615234,0.3842605650424957,-3.654656410217285
1403715888149058000,-0.0021485090255737305,0.021516326814889908,0.07753771543502808,9.105996131896973,0.4087938368320465,-3.6626670360565186
1403715888154058000,-0.0035462602972984314,0.021521124988794327,0.07478751987218857,9.0896577835083,0.34402522444725037,-3.679201364517212
1403715888159058000,-0.0021589770913124084,0.020111430436372757,0.07623185962438583,9.10601806640625,0.43326303362846375,-3.6385107040405273
1403715888164058000,-0.0035656988620758057,0.018710147589445114,0.07618850469589233,9.08157730102539,0.44171255826950073,-3.6460750102996826
1403715888169058000,-0.000720340758562088,0.020113162696361542,0.07752649486064911,9.122244834899902,0.42539095878601074,-3.6465489864349365
1403715888174058000,-0.002884708344936371,0.02015073597431183,0.07830722630023956,9.114075660705566,0.3760056495666504,-3.6382932662963867
1403715888179058000,0.0013571307063102722,0.01732693240046501,0.07481178641319275,9.048943519592285,0.4088101089000702,-3.6381497383117676
1403715888184058000,-0.0014606639742851257,0.0180036798119545,0.07686446607112885,9.089920997619629,0.38482338190078735,-3.654548406600952
1403715888189058000,-0.004984527826309204,0.020138036459684372,0.0789722204208374,9.097837448120117,0.4169992208480835,-3.654630184173584
1403715888194058000,-5.813315510749817e-05,0.020840924233198166,0.07688569277524948,9.073328971862793,0.4415738582611084,-3.6381964683532715
1403715888199058000,-0.003565531224012375,0.022932998836040497,0.07901652157306671,9.098044395446777,0.39281338453292847,-3.6462693214416504
1403715888204058000,-0.002843201160430908,0.019429165869951248,0.08038207143545151,9.114052772521973,0.4741583466529846,-3.662644147872925
1403715888209058000,-0.004289783537387848,0.017305545508861542,0.07541031390428543,9.089512825012207,0.5072580575942993,-3.6462690830230713
1403715888214058000,-0.0014344528317451477,0.01868925243616104,0.07894211262464523,9.073397636413574,0.4255416989326477,-3.6135177612304688
1403715888219058000,-0.0007475093007087708,0.01663941517472267,0.07621776312589645,9.08981704711914,0.39198482036590576,-3.6460862159729004
1403715888224058000,-0.002875395119190216,0.020177792757749557,0.0761927142739296,9.081572532653809,0.4415305256843567,-3.670889377593994
1403715888229058000,-0.0007479041814804077,0.02366448938846588,0.07618317753076553,9.065385818481445,0.4095830023288727,-3.646493911743164
1403715888234058000,-0.0035684481263160706,0.02152014523744583,0.07618474215269089,9.098063468933105,0.3761068284511566,-3.6464576721191406
1403715888239058000,-0.002868250012397766,0.017976630479097366,0.07899795472621918,9.073349952697754,0.44128623604774475,-3.6463212966918945
1403715888244058000,-0.0028851814568042755,0.01870730146765709,0.07547415792942047,9.040895462036133,0.4014778137207031,-3.6789276599884033
1403715888249058000,-0.0028555020689964294,0.018769551068544388,0.07546006143093109,9.05738353729248,0.36841881275177,-3.6795473098754883
1403715888254058000,-0.003575064241886139,0.01877671107649803,0.07481127232313156,9.057275772094727,0.4170709252357483,-3.6465704441070557
1403715888259058000,-0.002885185182094574,0.020863346755504608,0.07691088318824768,9.04098892211914,0.3687801659107208,-3.621748208999634
1403715888264058000,-0.00496983528137207,0.017336439341306686,0.0804232805967331,9.098015785217285,0.3846656382083893,-3.6299872398376465
1403715888269058000,-0.0028313472867012024,0.021478775888681412,0.07688687741756439,9.089637756347656,0.4907118082046509,-3.6217520236968994
1403715888274058000,0.0013808570802211761,0.01798708364367485,0.07612795382738113,9.097734451293945,0.4423442482948303,-3.654437303543091
1403715888279058000,-0.0014613047242164612,0.018747426569461823,0.07685154676437378,9.0978364944458,0.37613382935523987,-3.6712822914123535
1403715888284058000,-0.0014839768409729004,0.01807164028286934,0.07827809453010559,9.081430435180664,0.40029188990592957,-3.646538019180298
1403715888289058000,0.0013304390013217926,0.018737055361270905,0.07550721615552902,9.089707374572754,0.3930940628051758,-3.6544086933135986
1403715888294058000,-5.16548752784729e-05,0.018718253821134567,0.07761543244123459,9.130401611328125,0.3927558660507202,-3.662858247756958
1403715888299058000,-0.001492828130722046,0.01662582904100418,0.07829155027866364,9.081372261047363,0.4167952239513397,-3.6791138648986816
1403715888304058000,-0.004313468933105469,0.020138610154390335,0.07753195613622665,9.073430061340332,0.4254663288593292,-3.6465885639190674
1403715888309058000,-0.0028613097965717316,0.01804916188120842,0.07614888995885849,9.08983039855957,0.3683735132217407,-3.646266460418701
1403715888314058000,-0.002168741077184677,0.01662033051252365,0.07903081923723221,9.06513786315918,0.4251357614994049,-3.6136491298675537
1403715888319058000,0.000637102872133255,0.020842373371124268,0.07482179254293442,9.057297706604004,0.3848205506801605,-3.621493101119995
1403715888324058000,-0.0021722689270973206,0.018758181482553482,0.07685842365026474,9.098118782043457,0.343671977519989,-3.6465249061584473
1403715888329058000,0.002769477665424347,0.01872185990214348,0.07689401507377625,9.089720726013184,0.3760492205619812,-3.6547393798828125
1403715888334058000,-0.0021814554929733276,0.02571960538625717,0.07689612358808517,9.089679718017578,0.45834577083587646,-3.6463699340820312
1403715888339058000,-0.003591693937778473,0.022253714501857758,0.07688010483980179,9.057220458984375,0.4013764560222626,-3.6298911571502686
1403715888344058000,-0.002867303788661957,0.022204995155334473,0.07617147266864777,9.089813232421875,0.3921871483325958,-3.6298162937164307
1403715888349058000,-0.004252977669239044,0.018678709864616394,0.07689741998910904,9.105995178222656,0.40071722865104675,-3.6298274993896484
1403715888354058000,-0.0042673274874687195,0.02011435106396675,0.0797174796462059,9.089675903320312,0.3685498535633087,-3.629857063293457
1403715888359058000,-0.0035800598561763763,0.019442010670900345,0.0796896293759346,9.057167053222656,0.4252099096775055,-3.6461994647979736
1403715888364058000,-0.0028338879346847534,0.01732238382101059,0.07826797664165497,9.081612586975098,0.45794036984443665,-3.654513359069824
1403715888369058000,-0.002850692719221115,0.016660504043102264,0.07545337080955505,9.081560134887695,0.37649574875831604,-3.679222345352173
1403715888374058000,0.0006720609962940216,0.016626443713903427,0.07543550431728363,9.122262954711914,0.40029799938201904,-3.6877779960632324
1403715888379058000,0.0027656778693199158,0.017299361526966095,0.07758867740631104,9.048934936523438,0.4743756353855133,-3.6301558017730713
1403715888384058000,-0.001494191586971283,0.01875390112400055,0.07763606309890747,9.0654296875,0.40130913257598877,-3.621497869491577
1403715888389058000,-0.006421968340873718,0.01878470927476883,0.07759295403957367,9.114157676696777,0.4492243230342865,-3.6789588928222656
1403715888394058000,-0.003578074276447296,0.01665623113512993,0.07686184346675873,9.0569486618042,0.43341609835624695,-3.6466591358184814
1403715888399058000,-0.0014316290616989136,0.020117279142141342,0.07754142582416534,9.081720352172852,0.3766302466392517,-3.662785768508911
1403715888404058000,-0.0007424354553222656,0.019421841949224472,0.07967454195022583,9.138677597045898,0.3922940790653229,-3.67138934135437
1403715888409058000,-0.0007889010012149811,0.019453421235084534,0.0769202709197998,9.06505012512207,0.39267948269844055,-3.6464197635650635
1403715888414058000,-0.002904791384935379,0.019452176988124847,0.07903656363487244,9.016489028930664,0.34395772218704224,-3.6136763095855713
1403715888419058000,-0.0021747127175331116,0.02083372324705124,0.0747806653380394,9.0493803024292,0.3761370778083801,-3.6379268169403076
1403715888424058000,-5.506351590156555e-05,0.017313547432422638,0.07612711191177368,9.081656455993652,0.39302703738212585,-3.6545073986053467
1403715888429058000,-0.002135850489139557,0.023606352508068085,0.07618510723114014,9.11415958404541,0.4257744550704956,-3.662860155105591
1403715888434058000,-4.37125563621521e-05,0.022956792265176773,0.07621528953313828,9.089805603027344,0.3846013844013214,-3.663018226623535
1403715888439058000,0.001318506896495819,0.018729977309703827,0.08040861785411835,9.040779113769531,0.4333704710006714,-3.654540777206421
1403715888444058000,0.0013148114085197449,0.020078793168067932,0.07828199863433838,9.073458671569824,0.4011494517326355,-3.6217846870422363
1403715888449058000,-0.0015020370483398438,0.022212300449609756,0.07542474567890167,9.09785270690918,0.39264148473739624,-3.6378979682922363
1403715888454058000,-0.002881452441215515,0.01873384416103363,0.07615705579519272,9.1140775680542,0.4496062397956848,-3.6381685733795166
1403715888459058000,-0.0007419809699058533,0.02362196147441864,0.07901029288768768,9.05715560913086,0.4580933153629303,-3.6379401683807373
1403715888464058000,-0.0021811984479427338,0.018056821078062057,0.07340478152036667,9.057320594787598,0.39262911677360535,-3.6463730335235596
1403715888469058000,-0.0014656633138656616,0.021511666476726532,0.07335658371448517,9.097906112670898,0.4492337107658386,-3.6463420391082764
1403715888474058000,-0.0014758817851543427,0.01799783855676651,0.07551471143960953,9.065192222595215,0.37656477093696594,-3.662653923034668
1403715888479058000,0.0013721100986003876,0.015913724899291992,0.07477215677499771,9.146844863891602,0.36797651648521423,-3.687690258026123
1403715888484058000,-0.002182871103286743,0.014561891555786133,0.07404699176549911,9.146690368652344,0.4005616009235382,-3.6304705142974854
1403715888489058000,-0.002188079059123993,0.020161129534244537,0.0748274177312851,9.040628433227539,0.4011582136154175,-3.637741804122925
1403715888494058000,0.000643216073513031,0.01666460931301117,0.07555503398180008,9.049223899841309,0.32752472162246704,-3.638309955596924
1403715888499058000,-0.0014640018343925476,0.016637731343507767,0.07827279716730118,9.089826583862305,0.36783888936042786,-3.6463210582733154
1403715888504058000,-0.0007812865078449249,0.022233977913856506,0.07897451519966125,9.081477165222168,0.38499996066093445,-3.638336181640625
1403715888509058000,0.0006261095404624939,0.022245880216360092,0.08112863451242447,9.081722259521484,0.360392302274704,-3.670992851257324
1403715888514058000,0.0027728229761123657,0.02290792390704155,0.0789743959903717,9.114330291748047,0.38427847623825073,-3.6468138694763184
1403715888519058000,0.0013175904750823975,0.023615166544914246,0.07819885015487671,9.073250770568848,0.44176822900772095,-3.6297993659973145
1403715888524058000,0.0048246830701828,0.022929660975933075,0.07826636731624603,9.073368072509766,0.37676528096199036,-3.6298723220825195
1403715888529058000,-0.0014934465289115906,0.023582622408866882,0.07900548726320267,9.097916603088379,0.4330722689628601,-3.662458896636963
1403715888534058000,0.0006239935755729675,0.0172647126019001,0.07758402824401855,9.097820281982422,0.4334556460380554,-3.6546592712402344
1403715888539058000,-0.002226848155260086,0.020835712552070618,0.07829119265079498,9.032758712768555,0.37637391686439514,-3.6217451095581055
1403715888544058000,-0.0028789639472961426,0.01734735444188118,0.07898107171058655,9.073650360107422,0.40024080872535706,-3.629777431488037
1403715888549058000,-0.002164281904697418,0.01869838312268257,0.07897116988897324,9.10609245300293,0.3761821985244751,-3.6462907791137695
1403715888554058000,-0.0014604628086090088,0.019434034824371338,0.07826826721429825,9.073243141174316,0.42532265186309814,-3.654583692550659
1403715888559058000,-0.0028457865118980408,0.01804845780134201,0.07829223573207855,9.122344017028809,0.4170113503932953,-3.6875040531158447
1403715888564058000,-0.004270210862159729,0.01592765375971794,0.0747678130865097,9.081476211547852,0.4987446665763855,-3.6466376781463623
1403715888569058000,0.0006718561053276062,0.01942272111773491,0.07336537539958954,9.073415756225586,0.3765335977077484,-3.6052937507629395
1403715888574058000,-0.002148449420928955,0.018079329282045364,0.0698857456445694,9.09807014465332,0.343218058347702,-3.670672655105591
1403715888579058000,-0.004268962889909744,0.015268035233020782,0.07200582325458527,9.114152908325195,0.4252132773399353,-3.679450750350952
1403715888584058000,-0.004286888986825943,0.020142074674367905,0.07625274360179901,9.065262794494629,0.4096650779247284,-3.63832950592041
1403715888589058000,-0.0007341429591178894,0.01665511727333069,0.07480944693088531,9.057294845581055,0.3762436509132385,-3.6546051502227783
1403715888594058000,-4.814937710762024e-05,0.01592394709587097,0.07405756413936615,9.098024368286133,0.3757947087287903,-3.6547324657440186
1403715888599058000,0.0006364285945892334,0.02432388812303543,0.0768626257777214,9.09776782989502,0.43385177850723267,-3.662682056427002
1403715888604058000,-0.003592800348997116,0.02227811887860298,0.07970231771469116,9.089694023132324,0.3768633008003235,-3.663036584854126
1403715888609058000,-0.005685992538928986,0.021529462188482285,0.07900402694940567,9.097960472106934,0.3760369122028351,-3.662890911102295
1403715888614058000,-0.0014519430696964264,0.017969869077205658,0.0797034353017807,9.089622497558594,0.40069547295570374,-3.6545939445495605
1403715888619058000,-0.0035504549741744995,0.02080456167459488,0.07899803668260574,9.105912208557129,0.3849203288555145,-3.646425485610962
1403715888624058000,-0.00212874636054039,0.02153121680021286,0.07821816205978394,9.146675109863281,0.384493350982666,-3.6628236770629883
1403715888629058000,-0.002875596284866333,0.020120006054639816,0.07892405986785889,9.097663879394531,0.44147738814353943,-3.6382811069488525
1403715888634058000,-0.001460738480091095,0.021554850041866302,0.07973441481590271,9.065268516540527,0.37658485770225525,-3.6298208236694336
1403715888639058000,-0.000752083957195282,0.02011614292860031,0.07972564548254013,9.10607624053955,0.3841780424118042,-3.670802354812622
1403715888644058000,0.0006530508399009705,0.018658969551324844,0.07542406767606735,9.073339462280273,0.43338972330093384,-3.6710119247436523
1403715888649058000,-5.062669515609741e-05,0.02221127599477768,0.07471510767936707,9.065360069274902,0.45831701159477234,-3.6463475227355957
1403715888654058000,-0.0007856003940105438,0.018787391483783722,0.0741061344742775,9.090032577514648,0.3762575089931488,-3.646360158920288
1403715888659058000,-0.0007963627576828003,0.018750403076410294,0.07622050493955612,9.065314292907715,0.4328407347202301,-3.6461997032165527
1403715888664058000,-0.000792134553194046,0.018710199743509293,0.0741264745593071,9.057289123535156,0.409297913312912,-3.6134703159332275
1403715888669058000,-0.0035846829414367676,0.020118437707424164,0.07550181448459625,9.106221199035645,0.4009205400943756,-3.6379234790802
1403715888674058000,-0.006407700479030609,0.0166577510535717,0.07267595082521439,9.065339088439941,0.40054357051849365,-3.646385908126831
1403715888679058000,-0.003550015389919281,0.018735487014055252,0.07685322314500809,9.073486328125,0.4334357976913452,-3.6544904708862305
1403715888684058000,-0.0021169446408748627,0.022953156381845474,0.07550936937332153,9.130621910095215,0.3847826421260834,-3.671168804168701
1403715888689058000,-0.000738874077796936,0.018044184893369675,0.07902929931879044,9.073216438293457,0.38427630066871643,-3.6711323261260986
1403715888694058000,0.0006343722343444824,0.018706947565078735,0.07901815325021744,9.024555206298828,0.39270704984664917,-3.6464273929595947
1403715888699058000,0.003464106470346451,0.01942342519760132,0.07823282480239868,9.081832885742188,0.409193217754364,-3.6299240589141846
1403715888704058000,-9.128451347351074e-05,0.020146403461694717,0.07823456823825836,9.057096481323242,0.41729050874710083,-3.6215832233428955
1403715888709058000,-0.0007948428392410278,0.020819682627916336,0.07827134430408478,9.08970832824707,0.4334726333618164,-3.662546396255493
1403715888714058000,-0.0028980597853660583,0.017336532473564148,0.07549187541007996,9.081751823425293,0.4010097086429596,-3.646740674972534
1403715888719058000,-0.0014551542699337006,0.02294396236538887,0.07899860292673111,9.08153247833252,0.40072616934776306,-3.662731885910034
1403715888724058000,-0.0021829530596733093,0.023609690368175507,0.08181342482566833,9.073307991027832,0.43349477648735046,-3.638378858566284
1403715888729058000,-0.0021965354681015015,0.018002446740865707,0.07475095987319946,9.049012184143066,0.42551085352897644,-3.629729747772217
1403715888734058000,0.0013621523976325989,0.018021918833255768,0.07822765409946442,9.106100082397461,0.3761748969554901,-3.6790988445281982
1403715888739058000,0.0006428062915802002,0.018035579472780228,0.076200932264328,9.09786605834961,0.38417068123817444,-3.6549623012542725
1403715888744058000,-0.0007791556417942047,0.020129621028900146,0.07618099451065063,9.057085037231445,0.43367651104927063,-3.646205425262451
1403715888749058000,0.0006258003413677216,0.015936952084302902,0.07620464265346527,9.073599815368652,0.384833961725235,-3.638277769088745
1403715888754058000,-5.5577605962753296e-05,0.016652792692184448,0.07620846480131149,9.073362350463867,0.44133687019348145,-3.6543924808502197
1403715888759058000,-0.0007781535387039185,0.019453123211860657,0.07408533990383148,9.089705467224121,0.40095219016075134,-3.6465513706207275
1403715888764058000,-0.0029052644968032837,0.019409634172916412,0.07051779329776764,9.114319801330566,0.39284852147102356,-3.646517038345337
1403715888769058000,-0.0007458813488483429,0.020115256309509277,0.07406431436538696,9.138530731201172,0.4415971338748932,-3.646453857421875
1403715888774058000,-0.002881772816181183,0.018789425492286682,0.07699152827262878,9.040688514709473,0.40111473202705383,-3.6543853282928467
1403715888779058000,-0.004290156066417694,0.01944313943386078,0.07622604817152023,9.081683158874512,0.37625059485435486,-3.6220204830169678
1403715888784058000,0.0013809576630592346,0.022882521152496338,0.07966289669275284,9.105989456176758,0.416851282119751,-3.621511220932007
1403715888789058000,-0.001441560685634613,0.020818226039409637,0.078974649310112,9.08137035369873,0.4502432644367218,-3.621554136276245
1403715888794058000,-5.552172660827637e-05,0.022245556116104126,0.07963525503873825,9.08169937133789,0.38467690348625183,-3.646176338195801
1403715888799058000,0.0006219819188117981,0.016609616577625275,0.07825414836406708,9.114276885986328,0.3594990074634552,-3.6629674434661865
1403715888804058000,-0.002879258245229721,0.018677644431591034,0.08042977750301361,9.0569429397583,0.4008186161518097,-3.6218769550323486
1403715888809058000,-0.003590323030948639,0.017324060201644897,0.0776241198182106,9.081611633300781,0.3932237923145294,-3.6296844482421875
1403715888814058000,-0.004288464784622192,0.020865343511104584,0.07473117113113403,9.089902877807617,0.3926883935928345,-3.62995982170105
1403715888819058000,-0.0007225349545478821,0.01666676625609398,0.07473529130220413,9.089683532714844,0.4414721429347992,-3.637998342514038
1403715888824058000,-5.757063627243042e-05,0.01942228525876999,0.074808269739151,9.040942192077637,0.4338570535182953,-3.621748447418213
1403715888829058000,-0.0022068247199058533,0.01661982387304306,0.07621610164642334,9.032951354980469,0.3927980661392212,-3.6297638416290283
1403715888834058000,-0.0028703585267066956,0.018715839833021164,0.07549486309289932,9.106164932250977,0.4577077329158783,-3.6381146907806396
1403715888839058000,-0.0007489509880542755,0.018060028553009033,0.07831177115440369,9.065173149108887,0.42557305097579956,-3.6053781509399414
1403715888844058000,-5.5167824029922485e-05,0.019468221813440323,0.07619094848632812,9.073577880859375,0.35989463329315186,-3.60530948638916
1403715888849058000,-0.0021839961409568787,0.016640402376651764,0.07403413951396942,9.081786155700684,0.41666507720947266,-3.6052803993225098
1403715888854058000,-0.0007683336734771729,0.018698666244745255,0.07619301229715347,9.073330879211426,0.45017626881599426,-3.621394395828247
1403715888859058000,-0.0007656216621398926,0.018721260130405426,0.07483965903520584,9.130468368530273,0.3766367435455322,-3.6382710933685303
1403715888864058000,-0.0021826252341270447,0.017344776540994644,0.07688944786787033,9.105903625488281,0.3920767307281494,-3.654672384262085
1403715888869058000,-6.397068500518799e-05,0.021534133702516556,0.07617869973182678,9.10593032836914,0.41727954149246216,-3.621950626373291
1403715888874058000,-0.0007568672299385071,0.02224458009004593,0.07828027755022049,9.065264701843262,0.4013904631137848,-3.6296470165252686
1403715888879058000,-0.002869345247745514,0.020118527114391327,0.07968121021986008,9.089653015136719,0.3925776183605194,-3.638172149658203
1403715888884058000,-0.001485295593738556,0.014490645378828049,0.077550008893013,9.081518173217773,0.4170801341533661,-3.6462786197662354
1403715888889058000,-0.0007494986057281494,0.020111657679080963,0.07616422325372696,9.089736938476562,0.42568495869636536,-3.662829875946045
1403715888894058000,-3.441423177719116e-05,0.02156021073460579,0.0783097892999649,9.114238739013672,0.37644901871681213,-3.671246290206909
1403715888899058000,-0.0007648244500160217,0.022935550659894943,0.08249720185995102,9.105825424194336,0.44953709840774536,-3.6466057300567627
1403715888904058000,0.0020477138459682465,0.021523352712392807,0.07966507971286774,9.065086364746094,0.4745701253414154,-3.613506317138672
1403715888909058000,-6.615743041038513e-05,0.018699761480093002,0.07542918622493744,9.114229202270508,0.401014506816864,-3.670712947845459
1403715888914058000,-0.004300795495510101,0.016555484384298325,0.07614673674106598,9.122178077697754,0.4411521852016449,-3.6549675464630127
1403715888919058000,-0.0028813332319259644,0.01800459250807762,0.07617497444152832,9.081472396850586,0.4172942340373993,-3.6544697284698486
1403715888924058000,0.0020901113748550415,0.019500955939292908,0.07828721404075623,9.08981704711914,0.4172874391078949,-3.6710832118988037
1403715888929058000,-0.003570646047592163,0.0188017338514328,0.07624460011720657,9.1304931640625,0.3842536509037018,-3.6874804496765137
1403715888934058000,-0.002906300127506256,0.01941649615764618,0.07479295879602432,9.024349212646484,0.4823877215385437,-3.630147933959961
1403715888939058000,-0.001475594937801361,0.018692519515752792,0.07754629105329514,9.024803161621094,0.3932081162929535,-3.637842893600464
1403715888944058000,-0.007054470479488373,0.022224895656108856,0.07613087445497513,9.081921577453613,0.4414561986923218,-3.670858860015869
1403715888949058000,-0.003566369414329529,0.016653738915920258,0.07550743222236633,9.057113647460938,0.4418182075023651,-3.6055808067321777
1403715888954058000,0.0006760284304618835,0.02155178412795067,0.08047519624233246,9.057243347167969,0.40116357803344727,-3.6378002166748047
1403715888959058000,-0.002117939293384552,0.02015816420316696,0.07619322836399078,9.106294631958008,0.3599074184894562,-3.6794049739837646
1403715888964058000,0.0006215721368789673,0.01729513704776764,0.08031795173883438,9.10583782196045,0.3761718273162842,-3.6303579807281494
1403715888969058000,0.0006107613444328308,0.020093154162168503,0.0789763331413269,9.089488983154297,0.41763240098953247,-3.6216773986816406
1403715888974058000,-0.002863653004169464,0.018737711012363434,0.07758709788322449,9.097879409790039,0.3929636478424072,-3.638059377670288
1403715888979058000,0.0013463571667671204,0.01732771471142769,0.07686761766672134,9.12221622467041,0.4089197516441345,-3.6462817192077637
1403715888984058000,-0.0022027380764484406,0.018022798001766205,0.07546745985746384,9.056982040405273,0.43367108702659607,-3.629929542541504
1403715888989058000,-0.0007572844624519348,0.01874104142189026,0.07619842141866684,9.089831352233887,0.3849409818649292,-3.6380605697631836
1403715888994058000,-0.0036034956574440002,0.020849917083978653,0.07479942589998245,9.122379302978516,0.4252295196056366,-3.6217188835144043
1403715888999058000,-0.005002357065677643,0.01873643323779106,0.07548277080059052,9.032541275024414,0.4336521327495575,-3.621417284011841
1403715889004058000,0.0013849884271621704,0.020823728293180466,0.0769064649939537,9.08178997039795,0.3764764368534088,-3.6544957160949707
1403715889009058000,-0.0007472559809684753,0.01944519206881523,0.07547366619110107,9.089889526367188,0.3923267126083374,-3.6710338592529297
1403715889014058000,-0.002172909677028656,0.019414544105529785,0.0733521357178688,9.06520938873291,0.4417269229888916,-3.630141258239746
1403715889019058000,-0.002186611294746399,0.01872972398996353,0.07550647854804993,9.073599815368652,0.4175470471382141,-3.6461241245269775
1403715889024058000,-0.0014434605836868286,0.019445180892944336,0.0783378928899765,9.11430549621582,0.343372106552124,-3.654782295227051
1403715889029058000,-4.820525646209717e-05,0.01943543553352356,0.07478249818086624,9.097793579101562,0.3759341835975647,-3.646521806716919
1403715889034058000,-0.0022061169147491455,0.01661006361246109,0.07688441872596741,9.048957824707031,0.40946826338768005,-3.556450843811035
1403715889039058000,-0.0028664767742156982,0.020113900303840637,0.07760687172412872,9.122459411621094,0.3930463194847107,-3.6292295455932617
1403715889044058000,-0.0021504834294319153,0.021547600626945496,0.07755223661661148,9.114026069641113,0.41688844561576843,-3.679319381713867
1403715889049058000,-0.0028888285160064697,0.018050722777843475,0.07475603371858597,9.040733337402344,0.3927535116672516,-3.646670341491699
1403715889054058000,-0.0007449835538864136,0.02221675217151642,0.07761485129594803,9.114425659179688,0.3683396875858307,-3.662902593612671
1403715889059058000,-0.0007442906498908997,0.01872924342751503,0.07692568749189377,9.097806930541992,0.4171088635921478,-3.6300878524780273
1403715889064058000,-0.0021754540503025055,0.017308931797742844,0.07755858451128006,9.081380844116211,0.40919190645217896,-3.596874713897705
1403715889069058000,-0.0014792084693908691,0.02010839805006981,0.07898369431495667,9.106161117553711,0.35991668701171875,-3.61342716217041
1403715889074058000,-0.002166464924812317,0.01595129445195198,0.07479118555784225,9.105987548828125,0.42496854066848755,-3.6461899280548096
1403715889079058000,-0.001462407410144806,0.016653575003147125,0.07546089589595795,9.048935890197754,0.40939345955848694,-3.6299688816070557
1403715889084058000,-0.0021762996912002563,0.01941780373454094,0.07758582383394241,9.065415382385254,0.44169357419013977,-3.605349540710449
1403715889089058000,-0.0007531866431236267,0.021543610841035843,0.07620874792337418,9.098013877868652,0.4168822765350342,-3.654221296310425
1403715889094058000,-0.001460529863834381,0.01733904331922531,0.07969912141561508,9.097708702087402,0.4660111963748932,-3.6628494262695312
1403715889099058000,-0.0007747933268547058,0.01590729132294655,0.07617469131946564,9.065313339233398,0.42551642656326294,-3.6464645862579346
1403715889104058000,-0.0021736808121204376,0.018737316131591797,0.0768325924873352,9.098027229309082,0.3924267888069153,-3.6790852546691895
1403715889109058000,-0.0021637752652168274,0.018753722310066223,0.07686299830675125,9.065205574035645,0.4577120840549469,-3.6301047801971436
1403715889114058000,-0.0007652826607227325,0.01874643936753273,0.07549143582582474,9.04900074005127,0.4255800247192383,-3.6214091777801514
1403715889119058000,-0.004275746643543243,0.020865172147750854,0.07481293380260468,9.114383697509766,0.40078291296958923,-3.679171562194824
1403715889124058000,-0.0021561570465564728,0.014529824256896973,0.0776115357875824,9.122234344482422,0.37599506974220276,-3.6796634197235107
1403715889129058000,-0.0014525949954986572,0.018664758652448654,0.07757014781236649,9.089522361755371,0.44181427359580994,-3.654876470565796
1403715889134058000,-0.002864610403776169,0.018728584051132202,0.07686860859394073,9.089784622192383,0.38501423597335815,-3.622046947479248
1403715889139058000,0.000656668096780777,0.018081441521644592,0.07756958156824112,9.130353927612305,0.37614235281944275,-3.6625781059265137
1403715889144058000,-6.0930848121643066e-05,0.019463717937469482,0.07548428326845169,9.07320499420166,0.4171440601348877,-3.6547691822052
1403715889149058000,-0.0007706917822360992,0.02151539921760559,0.07899544388055801,9.040913581848145,0.40957534313201904,-3.621790885925293
1403715889154058000,-0.0028834268450737,0.020805537700653076,0.07548133283853531,9.155143737792969,0.4092046916484833,-3.670768976211548
1403715889159058000,-0.0007559284567832947,0.022204764187335968,0.08039863407611847,9.07317066192627,0.41703560948371887,-3.646507978439331
1403715889164058000,-0.0035760290920734406,0.01943604275584221,0.07549893856048584,9.073417663574219,0.4010657072067261,-3.6462268829345703
1403715889169058000,0.002067454159259796,0.02083412930369377,0.0782085731625557,9.08175277709961,0.44983747601509094,-3.679105043411255
1403715889174058000,-0.002199701964855194,0.02012154832482338,0.07477793842554092,9.04898452758789,0.41737550497055054,-3.6300840377807617
1403715889179058000,-0.00289810448884964,0.023619793355464935,0.07972646504640579,9.000229835510254,0.41703498363494873,-3.555917978286743
1403715889184058000,-0.002878919243812561,0.02154652774333954,0.07761730253696442,9.081979751586914,0.41700780391693115,-3.6537351608276367
1403715889189058000,-0.0007259771227836609,0.017990846186876297,0.07756231725215912,9.138670921325684,0.40908998250961304,-3.6467676162719727
1403715889194058000,-0.003569185733795166,0.017990805208683014,0.07335784286260605,9.065116882324219,0.44170933961868286,-3.597179651260376
1403715889199058000,-0.0014794021844863892,0.015927717089653015,0.07407267391681671,9.073609352111816,0.36817723512649536,-3.6298584938049316
1403715889204058000,-0.00426667183637619,0.017349228262901306,0.07901428639888763,9.114160537719727,0.40879112482070923,-3.6544418334960938
1403715889209058000,-0.004275485873222351,0.018784627318382263,0.07834891229867935,9.032400131225586,0.4174122214317322,-3.6053478717803955
1403715889214058000,-0.0007535740733146667,0.018759053200483322,0.07829330116510391,9.057242393493652,0.44197526574134827,-3.6051275730133057
1403715889219058000,0.0013784617185592651,0.015214856714010239,0.07473843544721603,9.106317520141602,0.3927048146724701,-3.6870105266571045
1403715889224058000,-0.002861402928829193,0.018696043640375137,0.0746999979019165,9.097722053527832,0.44965967535972595,-3.66314697265625
1403715889229058000,-0.0028958506882190704,0.020161952823400497,0.07687713205814362,9.08149242401123,0.4257524013519287,-3.671009063720703
1403715889234058000,-0.004277143627405167,0.02088054269552231,0.07556046545505524,9.114270210266113,0.35193830728530884,-3.64682674407959
1403715889239058000,-0.004256993532180786,0.013845972716808319,0.07483965158462524,9.089544296264648,0.3923165500164032,-3.646268367767334
1403715889244058000,-4.1950494050979614e-05,0.016610953956842422,0.07827983796596527,9.065122604370117,0.41741636395454407,-3.662844657897949
1403715889249058000,-0.0007523894309997559,0.021535813808441162,0.07612230628728867,9.065454483032227,0.4012569189071655,-3.6711504459381104
1403715889254058000,-0.0007465966045856476,0.02293774113059044,0.07753337919712067,9.122386932373047,0.4087037742137909,-3.6876213550567627
1403715889259058000,0.0013205558061599731,0.018755242228507996,0.07971183955669403,9.040605545043945,0.4906908869743347,-3.6793696880340576
1403715889264058000,-8.224695920944214e-05,0.019432969391345978,0.07762134075164795,9.04914379119873,0.40139198303222656,-3.6465961933135986
1403715889269058000,-0.002884708344936371,0.02079034596681595,0.07826102524995804,9.073643684387207,0.3759869635105133,-3.6463723182678223
1403715889274058000,-0.0043163001537323,0.01799624413251877,0.07757721841335297,9.016380310058594,0.3924406170845032,-3.597256660461426
1403715889279058000,-0.003578595817089081,0.01665835827589035,0.07479307055473328,9.065570831298828,0.3849458694458008,-3.6050045490264893
1403715889284058000,0.000660426914691925,0.020193181931972504,0.07408823817968369,9.098158836364746,0.37636902928352356,-3.597254991531372
1403715889289058000,0.0006314553320407867,0.017334021627902985,0.07408338785171509,9.09778118133545,0.4087486267089844,-3.64608097076416
1403715889294058000,-7.195025682449341e-05,0.020079609006643295,0.07268953323364258,9.057151794433594,0.4338197112083435,-3.695629835128784
1403715889299058000,-0.001470569521188736,0.019426342099905014,0.07759904116392136,9.097882270812988,0.44189199805259705,-3.6631481647491455
1403715889304058000,-5.5946409702301025e-05,0.015963628888130188,0.07408330589532852,9.114029884338379,0.4171748161315918,-3.6544911861419678
1403715889309058000,0.00135841965675354,0.02010568231344223,0.08107779920101166,9.105708122253418,0.44966921210289,-3.621703624725342
1403715889314058000,-6.52112066745758e-05,0.021519970148801804,0.07759556919336319,9.106005668640137,0.40915825963020325,-3.6213481426239014
1403715889319058000,-0.0028809309005737305,0.02015463262796402,0.0754166916012764,9.14668083190918,0.425202339887619,-3.6789510250091553
1403715889324058000,-7.924064993858337e-05,0.01662570610642433,0.07406946271657944,9.081313133239746,0.4252604842185974,-3.638538122177124
1403715889329058000,0.00064057856798172,0.021488983184099197,0.08042430877685547,9.09774398803711,0.408939927816391,-3.6462154388427734
1403715889334058000,-0.004288613796234131,0.021531499922275543,0.07902276515960693,9.106016159057617,0.40072405338287354,-3.6547625064849854
1403715889339058000,-0.0021550580859184265,0.021521180868148804,0.07824921607971191,9.089532852172852,0.4579278826713562,-3.646343231201172
1403715889344058000,-0.0014331191778182983,0.022935256361961365,0.0803566500544548,9.073403358459473,0.4501875936985016,-3.654461145401001
1403715889349058000,-0.0007360391318798065,0.02083621546626091,0.07754489779472351,9.081714630126953,0.4090033769607544,-3.6628122329711914
1403715889354058000,-7.206946611404419e-05,0.016564838588237762,0.07610611617565155,9.114181518554688,0.4088020920753479,-3.646436929702759
1403715889359058000,-5.514174699783325e-05,0.017976410686969757,0.0783088281750679,9.089603424072266,0.43371954560279846,-3.6625590324401855
1403715889364058000,0.0013640858232975006,0.01666814461350441,0.07626615464687347,9.1304931640625,0.3848460018634796,-3.6712324619293213
1403715889369058000,-0.001505739986896515,0.018085498362779617,0.0733633041381836,9.081604957580566,0.39244627952575684,-3.646562099456787
1403715889374058000,-0.0014932453632354736,0.01663246378302574,0.07261734455823898,9.073452949523926,0.4254210293292999,-3.6299657821655273
1403715889379058000,-0.0014536231756210327,0.020114891231060028,0.07620657235383987,9.122408866882324,0.41761869192123413,-3.629897117614746
1403715889384058000,-0.0049687959253787994,0.018029961735010147,0.07622073590755463,9.130271911621094,0.4744237959384918,-3.6462059020996094
1403715889389058000,-0.0049780793488025665,0.022921554744243622,0.07617846876382828,9.081462860107422,0.46635186672210693,-3.6299805641174316
1403715889394058000,-0.002143584191799164,0.020858734846115112,0.07408833503723145,9.073596000671387,0.4254826605319977,-3.629770278930664
1403715889399058000,-0.0035369470715522766,0.020142000168561935,0.07689051330089569,9.097941398620605,0.38433706760406494,-3.6298410892486572
1403715889404058000,-0.0007495731115341187,0.018708620220422745,0.07756903767585754,9.048888206481934,0.42532166838645935,-3.613297462463379
1403715889409058000,-0.003571733832359314,0.02290276065468788,0.07759170234203339,9.057276725769043,0.4828364849090576,-3.5886056423187256
1403715889414058000,-0.0014449357986450195,0.019441921263933182,0.0769406110048294,9.065629005432129,0.35202300548553467,-3.6131815910339355
1403715889419058000,-0.0035669654607772827,0.015218526124954224,0.07405513525009155,9.114228248596191,0.4002494215965271,-3.679044246673584
1403715889424058000,-0.0007477030158042908,0.019407056272029877,0.07964348793029785,9.089648246765137,0.4011702239513397,-3.614032745361328
1403715889429058000,-0.0028763413429260254,0.020138360559940338,0.08182589709758759,9.065261840820312,0.3851493000984192,-3.6214146614074707
1403715889434058000,-0.0021586045622825623,0.020820461213588715,0.07970882207155228,9.130497932434082,0.3843534588813782,-3.6464600563049316
1403715889439058000,-0.0021895579993724823,0.020147990435361862,0.08038228750228882,9.016201972961426,0.41722115874290466,-3.6216189861297607
1403715889444058000,-0.0007660388946533203,0.015944477170705795,0.08175814151763916,9.065366744995117,0.3769265413284302,-3.6544899940490723
1403715889449058000,-0.002156224101781845,0.017995551228523254,0.07750954478979111,9.10620403289795,0.4417024850845337,-3.6711952686309814
1403715889454058000,-0.0014650896191596985,0.01871001347899437,0.07614891231060028,9.081402778625488,0.4501354694366455,-3.654653549194336
1403715889459058000,-0.0014587827026844025,0.022983457893133163,0.07905624061822891,9.081604957580566,0.4091174602508545,-3.6383838653564453
1403715889464058000,-0.0007543191313743591,0.023683909326791763,0.07763367146253586,9.114264488220215,0.35967010259628296,-3.6383419036865234
1403715889469058000,-0.002879038453102112,0.020790204405784607,0.07752349972724915,9.097646713256836,0.4088341295719147,-3.6463096141815186
1403715889474058000,-0.0021790191531181335,0.017957810312509537,0.07405095547437668,9.065245628356934,0.40130138397216797,-3.6219263076782227
1403715889479058000,-0.0014438815414905548,0.022184163331985474,0.0769161805510521,9.146892547607422,0.35167214274406433,-3.6463990211486816
1403715889484058000,-0.0007533356547355652,0.020157035440206528,0.07760827988386154,9.097699165344238,0.4085637629032135,-3.630155563354492
1403715889489058000,-0.004290960729122162,0.01806175708770752,0.07758035510778427,9.097695350646973,0.4420257806777954,-3.6216282844543457
1403715889494058000,-0.0014556795358657837,0.022239793092012405,0.07621940225362778,9.073567390441895,0.3686026632785797,-3.6625936031341553
1403715889499058000,-0.0035510286688804626,0.023612290620803833,0.07618331164121628,9.097880363464355,0.40854009985923767,-3.671072006225586
1403715889504058000,-0.0021656453609466553,0.01588624343276024,0.07966134697198868,9.048928260803223,0.39283639192581177,-3.6218583583831787
1403715889509058000,0.0013507604598999023,0.01868297904729843,0.08038631826639175,9.07353401184082,0.41740790009498596,-3.596956253051758
1403715889514058000,-0.0007522553205490112,0.020876772701740265,0.0775933489203453,9.106203079223633,0.3762557804584503,-3.678673267364502
1403715889519058000,-6.80387020111084e-05,0.017356526106595993,0.07828075438737869,9.097786903381348,0.40058189630508423,-3.6468770503997803
1403715889524058000,-9.643658995628357e-05,0.021506939083337784,0.07755261659622192,9.048974990844727,0.4499218463897705,-3.6052873134613037
1403715889529058000,-0.000758245587348938,0.022946685552597046,0.07754921168088913,9.114363670349121,0.37653130292892456,-3.63797926902771
1403715889534058000,-0.0007683821022510529,0.020835381001234055,0.08111163973808289,9.073253631591797,0.4330914318561554,-3.6544291973114014
1403715889539058000,-0.0014852359890937805,0.020759284496307373,0.08043217658996582,9.05704402923584,0.4579816162586212,-3.6381783485412598
1403715889544058000,0.0006397329270839691,0.016605719923973083,0.07894765585660934,9.081791877746582,0.3848012685775757,-3.670942544937134
1403715889549058000,-0.002188153564929962,0.018075935542583466,0.07679642736911774,9.073434829711914,0.4248383641242981,-3.6874656677246094
1403715889554058000,-0.002885103225708008,0.01873951032757759,0.07685576379299164,9.089695930480957,0.44167307019233704,-3.646561622619629
1403715889559058000,-4.191696643829346e-05,0.020829886198043823,0.07551485300064087,9.106062889099121,0.42562398314476013,-3.6463303565979004
1403715889564058000,-0.001451205462217331,0.017353393137454987,0.07411119341850281,9.105974197387695,0.3923702538013458,-3.6301403045654297
1403715889569058000,-0.0007594749331474304,0.019396424293518066,0.07479702681303024,9.097771644592285,0.44143593311309814,-3.6298155784606934
1403715889574058000,-0.0007746703922748566,0.022905070334672928,0.07760769128799438,9.081562995910645,0.3930768370628357,-3.621835708618164
1403715889579058000,-0.001443963497877121,0.019437938928604126,0.07404302805662155,9.146754264831543,0.39255228638648987,-3.670881748199463
1403715889584058000,-0.0007674284279346466,0.016638536006212234,0.07686007767915726,9.089524269104004,0.4089179039001465,-3.654900550842285
1403715889589058000,-7.466226816177368e-05,0.018728181719779968,0.07693079859018326,9.073352813720703,0.4501316249370575,-3.5808591842651367
1403715889594058000,-5.805492401123047e-05,0.020833950489759445,0.07689246535301208,9.081748962402344,0.40111827850341797,-3.6293082237243652
1403715889599058000,0.002754427492618561,0.020104121416807175,0.07685510814189911,9.097797393798828,0.44959232211112976,-3.621706008911133
1403715889604058000,0.004125818610191345,0.01731747016310692,0.07548083364963531,9.081561088562012,0.4256036579608917,-3.5968711376190186
1403715889609058000,-0.0015117861330509186,0.02153605967760086,0.07970267534255981,9.089816093444824,0.4172748327255249,-3.6214559078216553
1403715889614058000,-0.0014887377619743347,0.019409574568271637,0.07896903157234192,9.106026649475098,0.42522016167640686,-3.6788692474365234
1403715889619058000,-0.0035761892795562744,0.02288958430290222,0.07823442667722702,9.081439018249512,0.49071553349494934,-3.6383392810821533
1403715889624058000,-0.003554265946149826,0.02015817165374756,0.07758312672376633,9.081543922424316,0.4501780867576599,-3.6216039657592773
1403715889629058000,-0.0014523938298225403,0.022948678582906723,0.07616826891899109,9.089829444885254,0.41688358783721924,-3.6216177940368652
1403715889634058000,-0.00144919753074646,0.01727892830967903,0.07544834166765213,9.105973243713379,0.4659935235977173,-3.596921682357788
1403715889639058000,0.002072766423225403,0.019371040165424347,0.07690369337797165,9.081572532653809,0.40940061211586,-3.645972728729248
1403715889644058000,-0.0036025941371917725,0.017354659736156464,0.07694004476070404,9.097949981689453,0.35995861887931824,-3.654935359954834
1403715889649058000,-0.003560170531272888,0.019456207752227783,0.07968668639659882,9.089618682861328,0.44948968291282654,-3.662761688232422
1403715889654058000,-2.3521482944488525e-05,0.021540526300668716,0.07894429564476013,9.04888916015625,0.4586958587169647,-3.6465210914611816
1403715889659058000,-0.0042644888162612915,0.017331447452306747,0.07896286249160767,9.081703186035156,0.3521963059902191,-3.6546623706817627
1403715889664058000,-0.0035683512687683105,0.020106542855501175,0.07968896627426147,9.122322082519531,0.3921395242214203,-3.6548056602478027
1403715889669058000,-0.0049898698925971985,0.02013256400823593,0.0726592168211937,9.065220832824707,0.4586007595062256,-3.6463167667388916
1403715889674058000,-1.2647360563278198e-05,0.022246889770030975,0.07546824961900711,9.05729866027832,0.4180661737918854,-3.6545562744140625
1403715889679058000,-0.0007559694349765778,0.02015385404229164,0.07834646105766296,9.089856147766113,0.3678678870201111,-3.671154499053955
1403715889684058000,-0.0021891333162784576,0.01803779974579811,0.0790187418460846,9.040735244750977,0.35976773500442505,-3.654871940612793
1403715889689058000,0.0006526075303554535,0.02221069484949112,0.0796797126531601,9.06542682647705,0.3605037033557892,-3.6301848888397217
1403715889694058000,0.0027635544538497925,0.02081892639398575,0.0803501307964325,9.057284355163574,0.39293143153190613,-3.7199082374572754
1403715889699058000,-0.0008023679256439209,0.023641139268875122,0.07892751693725586,8.991997718811035,0.4825507700443268,-3.6879212856292725
1403715889704058000,-0.0085279680788517,0.016616996377706528,0.08519754558801651,9.073224067687988,0.7113311886787415,-3.703472375869751
1403715889709058000,-0.02112938091158867,0.014489445835351944,0.08880191296339035,9.130008697509766,0.6221010088920593,-3.753081798553467
1403715889714058000,-0.02811991050839424,0.022231481969356537,0.0874699130654335,9.040487289428711,0.3921512961387634,-3.6225790977478027
1403715889719058000,-0.01115308329463005,0.005421169102191925,0.09442336857318878,9.212142944335938,-0.09878133982419968,-3.663379669189453
1403715889724058000,0.016886338591575623,0.04323172569274902,0.06915836036205292,9.0576753616333,-0.6622529625892639,-3.386784315109253
1403715889729058000,0.06893666088581085,0.008219074457883835,0.05705359950661659,9.236774444580078,-0.24579504132270813,-3.6126174926757812
1403715889734058000,0.08547873795032501,0.013619937002658844,0.05011192709207535,9.024459838867188,0.6729982495307922,-3.655444622039795
1403715889739058000,0.049993887543678284,0.03799431025981903,0.03595102205872536,8.853445053100586,1.653136134147644,-3.6381123065948486
1403715889744058000,-0.01961974799633026,-0.002185635268688202,0.06897439807653427,9.057701110839844,2.2200183868408203,-3.901639699935913
1403715889749058000,-0.09887226670980453,0.003550685942173004,0.07971503585577011,8.884530067443848,2.0139622688293457,-3.6301822662353516
1403715889754058000,-0.13831424713134766,0.014689940959215164,0.11284266412258148,9.334030151367188,0.38298264145851135,-3.815855026245117
1403715889759058000,-0.11337748914957047,0.029542788863182068,0.09312231838703156,8.903301239013672,-0.9213151931762695,-3.444772481918335
1403715889764058000,-0.031485408544540405,0.0004532933235168457,0.11737619340419769,9.066206932067871,-1.0506221055984497,-3.3839826583862305
1403715889769058000,0.03585127741098404,0.017685305327177048,0.09231128543615341,9.400716781616211,-0.9135451912879944,-3.558318853378296
1403715889774058000,0.08032456040382385,0.05450570583343506,0.06268820911645889,9.104827880859375,-0.41553544998168945,-3.330395460128784
1403715889779058000,0.09896960854530334,-0.011537957936525345,0.06482266634702682,9.251869201660156,0.5976654887199402,-3.6545376777648926
1403715889784058000,0.08420292288064957,0.02581292763352394,0.07756730169057846,9.552911758422852,1.1354566812515259,-3.8953680992126465
1403715889789058000,0.02740660309791565,0.05595596879720688,0.06388349831104279,8.452641487121582,1.4596580266952515,-3.6961002349853516
1403715889794058000,-0.016145452857017517,0.008067365735769272,0.10095752775669098,9.211556434631348,1.4891005754470825,-3.784353017807007
1403715889799058000,-0.057571589946746826,0.03300583362579346,0.09159719944000244,9.040952682495117,0.9329493045806885,-3.7429187297821045
1403715889804058000,-0.07845230400562286,0.017976000905036926,0.09631742537021637,9.137048721313477,0.7004329562187195,-3.7342634201049805
1403715889809058000,-0.07966365665197372,0.01758810132741928,0.08387985825538635,8.920513153076172,0.16905029118061066,-3.4993462562561035
1403715889814058000,-0.04603550210595131,0.031080693006515503,0.08693844825029373,9.450096130371094,-0.5351144671440125,-3.54882550239563
1403715889819058000,0.004156380891799927,0.015263702720403671,0.06898987293243408,8.55870532989502,-0.5537821054458618,-3.3854823112487793
1403715889824058000,0.04151338338851929,0.02864973619580269,0.05358113721013069,9.963561058044434,-0.3280326724052429,-3.7880237102508545
1403715889829058000,0.06706193089485168,0.05081029236316681,0.05930584669113159,8.624115943908691,0.19930823147296906,-3.5268664360046387
1403715889834058000,0.0737057626247406,0.03310346603393555,0.05301623046398163,8.845545768737793,0.8120729327201843,-3.497467279434204
1403715889839058000,0.04745112359523773,0.021296069025993347,0.07653672993183136,9.359822273254395,1.1893783807754517,-3.834378480911255
1403715889844058000,-0.002916082739830017,0.041638463735580444,0.06197328492999077,8.786149978637695,1.3273454904556274,-3.621397018432617
1403715889849058000,-0.04086819291114807,-0.0009858589619398117,0.09724649041891098,8.910645484924316,0.9743446707725525,-3.651608467102051
1403715889854058000,-0.06151941418647766,0.024961315095424652,0.09035177528858185,9.018505096435547,0.6284222602844238,-3.5307493209838867
1403715889859058000,-0.058397646993398666,0.006964005529880524,0.10694631934165955,9.07273006439209,0.104261115193367,-3.635775566101074
1403715889864058000,-0.039861612021923065,0.013227798044681549,0.09169968962669373,9.317915916442871,-0.12565331161022186,-3.5016775131225586
1403715889869058000,-0.008720643818378448,0.029865406453609467,0.08670677244663239,9.162883758544922,-0.3208732008934021,-3.5164663791656494
1403715889874058000,0.02851862460374832,0.020002037286758423,0.07051551342010498,8.942961692810059,-0.3607698380947113,-3.4846131801605225
1403715889879058000,0.05236497521400452,0.020803891122341156,0.06477473676204681,9.54658317565918,0.00016803020844236016,-3.8191463947296143
1403715889884058000,0.05978044867515564,0.05368483066558838,0.0642290785908699,8.973847389221191,0.6976129412651062,-3.517767906188965
1403715889889058000,0.0418286994099617,0.027038395404815674,0.08115853369235992,8.950864791870117,0.8954816460609436,-3.6435317993164062
1403715889894058000,0.014913089573383331,0.03046545386314392,0.07605162262916565,8.919608116149902,1.0313050746917725,-3.5887088775634766
1403715889899058000,-0.025283798575401306,0.004543140530586243,0.08223485946655273,8.92611312866211,0.9736183881759644,-3.569488048553467
1403715889904058000,-0.04331226646900177,0.004642985761165619,0.07123434543609619,9.261303901672363,0.41030353307724,-3.7356252670288086
1403715889909058000,-0.02746245637536049,0.022962097078561783,0.06567870825529099,9.351000785827637,0.07960665225982666,-3.7379651069641113
1403715889914058000,-0.010470157489180565,0.009764213114976883,0.08414240181446075,8.909844398498535,0.18499863147735596,-3.5815844535827637
1403715889919058000,-0.0060707032680511475,0.033519938588142395,0.09112311154603958,9.423377990722656,0.6283547878265381,-3.744565725326538
1403715889924058000,-0.020246155560016632,0.038268402218818665,0.09436872601509094,8.940950393676758,0.9308516979217529,-3.532440423965454
1403715889929058000,-0.04341388866305351,0.019919246435165405,0.09356566518545151,8.844554901123047,0.612007200717926,-3.448237657546997
1403715889934058000,-0.044642217457294464,0.017263256013393402,0.07878296822309494,9.018583297729492,-0.017298582941293716,-3.572660446166992
1403715889939058000,-0.003152180463075638,0.012426435947418213,0.06628042459487915,9.262528419494629,-0.9643524885177612,-3.6398239135742188
1403715889944058000,0.06780478358268738,0.01524069532752037,0.06442324817180634,9.253289222717285,-0.8578163981437683,-3.632634401321411
1403715889949058000,0.12227684259414673,0.03613792359828949,0.058807164430618286,9.358762741088867,0.3056142032146454,-3.7949752807617188
1403715889954058000,0.10035142302513123,0.03867524117231369,0.07814327627420425,8.607274055480957,1.6797544956207275,-3.508305549621582
1403715889959058000,0.013703964650630951,0.015855610370635986,0.077082559466362,9.122262001037598,2.2958803176879883,-3.9085135459899902
1403715889964058000,-0.07045210152864456,0.025737334042787552,0.07701011002063751,8.908699035644531,1.8676410913467407,-3.574481964111328
1403715889969058000,-0.11552448570728302,-0.011447980999946594,0.0930054783821106,8.861345291137695,0.8150629997253418,-3.633927583694458
1403715889974058000,-0.1070609763264656,0.012679561972618103,0.07853403687477112,9.22309684753418,-0.31355348229408264,-3.696653366088867
1403715889979058000,-0.04648955911397934,0.011269811540842056,0.09601952880620956,9.319040298461914,-0.9521915912628174,-3.525733470916748
1403715889984058000,0.006152838468551636,0.011148326098918915,0.09471375495195389,9.170075416564941,-0.5840644836425781,-3.549731731414795
1403715889989058000,0.04805603623390198,0.038957804441452026,0.07050896435976028,9.106104850769043,-0.17094624042510986,-3.468635320663452
1403715889994058000,0.0681791752576828,0.01982935518026352,0.08506611734628677,9.11362075805664,0.17372804880142212,-3.409519672393799
1403715889999058000,0.05832776427268982,0.003112364560365677,0.07103057205677032,8.925875663757324,0.7544326782226562,-3.8089799880981445
1403715890004058000,0.03853078931570053,0.01515139639377594,0.05910926312208176,9.008753776550293,0.7661765217781067,-3.574964761734009
1403715890009058000,0.019350003451108932,0.007540486752986908,0.09014958143234253,9.284773826599121,0.992832601070404,-3.791520833969116
1403715890014058000,-0.01891515403985977,0.017390701919794083,0.08458784222602844,8.974166870117188,1.219574213027954,-3.737217664718628
1403715890019058000,-0.048469506204128265,0.026398450136184692,0.09915774315595627,9.153837203979492,0.9579658508300781,-3.595297336578369
1403715890024058000,-0.0707673579454422,0.013846185058355331,0.1027332991361618,8.97529125213623,0.6681069135665894,-3.6444098949432373
1403715890029058000,-0.06744042038917542,0.0032285302877426147,0.0811246931552887,9.032978057861328,-0.060626398772001266,-3.417978525161743
1403715890034058000,-0.029697732999920845,0.018482476472854614,0.09517445415258408,9.253792762756348,-0.5269488096237183,-3.5395264625549316
1403715890039058000,0.015434622764587402,0.016104795038700104,0.07067687809467316,9.065556526184082,-0.37096884846687317,-3.5911900997161865
1403715890044058000,0.04978453367948532,0.01958782970905304,0.06911537796258926,9.41592788696289,-0.015723872929811478,-3.7549116611480713
1403715890049058000,0.06543001532554626,0.041814640164375305,0.06717327237129211,8.901552200317383,0.5008811354637146,-3.5502569675445557
1403715890054058000,0.05240451544523239,0.02274436503648758,0.06110665202140808,9.040241241455078,1.0484813451766968,-3.759922981262207
1403715890059058000,0.014151956886053085,0.03314640372991562,0.06191818043589592,8.854048728942871,0.9849581122398376,-3.5319180488586426
1403715890064058000,-0.013290807604789734,0.012195833027362823,0.08246247470378876,8.772063255310059,1.0883547067642212,-3.6340084075927734
1403715890069058000,-0.04543711245059967,0.0026786774396896362,0.07838915288448334,9.017831802368164,0.7529851198196411,-3.711345911026001
1403715890074058000,-0.05148134380578995,0.011867519468069077,0.0888819694519043,9.139237403869629,0.39989131689071655,-3.6623106002807617
1403715890079058000,-0.04710042476654053,0.011122237890958786,0.08323800563812256,9.178979873657227,0.19365885853767395,-3.622941017150879
1403715890084058000,-0.025016773492097855,0.02370208129286766,0.08458516746759415,9.415635108947754,-0.1406000852584839,-3.656589984893799
1403715890089058000,0.0031386204063892365,0.029248200356960297,0.08540204912424088,8.925517082214355,-0.1892641931772232,-3.44350528717041
1403715890094058000,0.024931803345680237,0.02414749190211296,0.07687677443027496,9.26909351348877,-0.18032480776309967,-3.564967393875122
1403715890099058000,0.04869017004966736,0.014390572905540466,0.08251233398914337,8.9426851272583,0.17309145629405975,-3.60610032081604
1403715890104058000,0.05194485932588577,0.021409057080745697,0.08235383033752441,8.950706481933594,0.7790246605873108,-3.670147180557251
1403715890109058000,0.028459317982196808,0.013085484504699707,0.08701179921627045,9.0980224609375,1.115074872970581,-3.687563180923462
1403715890114058000,-0.01884433627128601,0.017279382795095444,0.08499772101640701,9.161808967590332,1.195021629333496,-3.842299699783325
1403715890119058000,-0.05528915673494339,0.016579248011112213,0.095044806599617,9.039480209350586,0.972669780254364,-3.6466403007507324
1403715890124058000,-0.06764745712280273,0.01592409238219261,0.09248371422290802,9.098222732543945,0.20439064502716064,-3.4490623474121094
1403715890129058000,-0.03504784405231476,0.010925959795713425,0.0896017923951149,9.033205032348633,-0.6400820016860962,-3.457735538482666
1403715890134058000,0.026970379054546356,-0.00038529932498931885,0.07410605996847153,9.261856079101562,-0.8781413435935974,-3.492410659790039
1403715890139058000,0.0768885612487793,0.019424419850111008,0.062069691717624664,9.334434509277344,-0.221208393573761,-3.753854751586914
1403715890144058000,0.08771823346614838,0.02931562066078186,0.03735504299402237,9.187066078186035,0.7547024488449097,-3.649535655975342
1403715890149058000,0.05235783010721207,0.030935201793909073,0.05965728312730789,9.340827941894531,1.7501370906829834,-3.926300287246704
1403715890154058000,-0.022441506385803223,0.047020457684993744,0.058664195239543915,8.372884750366211,2.145124673843384,-3.574411630630493
1403715890159058000,-0.09524592757225037,0.0191519595682621,0.07616008073091507,9.057571411132812,1.3649734258651733,-3.682788133621216
1403715890164058000,-0.12449823319911957,0.005410205572843552,0.10530248284339905,8.659252166748047,-0.05041417106986046,-3.523319721221924
1403715890169058000,-0.07912151515483856,0.002555854618549347,0.09600088000297546,8.912345886230469,-0.9766308665275574,-3.302473783493042
1403715890174058000,0.005415234714746475,-0.007290653884410858,0.09773477166891098,9.583008766174316,-1.3501274585723877,-3.5748836994171143
1403715890179058000,0.07137662172317505,0.04545047879219055,0.06409868597984314,9.357963562011719,-0.6297490000724792,-3.6581649780273438
1403715890184058000,0.09692072868347168,0.02158750593662262,0.057107217609882355,9.006465911865234,0.418696790933609,-3.607797861099243
1403715890189058000,0.079803965985775,0.03377530723810196,0.05790796875953674,9.056650161743164,1.1234514713287354,-3.5331268310546875
1403715890194058000,0.03402473032474518,0.037224166095256805,0.06692556291818619,9.006791114807129,1.2370898723602295,-3.7679286003112793
1403715890199058000,-0.006825350224971771,0.01352393627166748,0.08170448988676071,8.755169868469238,1.2277066707611084,-3.7363030910491943
1403715890204058000,-0.04327182471752167,0.012301571667194366,0.09844088554382324,8.984481811523438,1.2683757543563843,-3.595249652862549
1403715890209058000,-0.08269356936216354,0.013421464711427689,0.09273122996091843,8.903337478637695,0.6955776810646057,-3.6272099018096924
1403715890214058000,-0.07821042835712433,-0.0006288103759288788,0.0872151330113411,9.513758659362793,-0.06938007473945618,-3.8999640941619873
1403715890219058000,-0.04066238924860954,0.020019300282001495,0.08200015127658844,9.317405700683594,-0.4387226700782776,-3.4221293926239014
1403715890224058000,0.0005283430218696594,0.04166411608457565,0.06951729953289032,9.276693344116211,-0.5494678616523743,-3.580540180206299
1403715890229058000,0.032826364040374756,0.014576025307178497,0.06380371749401093,8.92662239074707,-0.19658415019512177,-3.4771981239318848
1403715890234058000,0.045368701219558716,0.0367899164557457,0.06566360592842102,8.983542442321777,0.441588431596756,-3.505932331085205
1403715890239058000,0.04922812432050705,0.0109235979616642,0.08246186375617981,8.714900970458984,0.5181403160095215,-3.5238687992095947
1403715890244058000,0.032808542251586914,0.011625181883573532,0.06533902138471603,9.367526054382324,0.7872377038002014,-3.818190574645996
1403715890249058000,0.0057478733360767365,-0.003708474338054657,0.07999812066555023,8.918180465698242,1.049708604812622,-3.720848321914673
1403715890254058000,-0.019584551453590393,0.01603064313530922,0.07064586132764816,8.951513290405273,0.8129263520240784,-3.530268430709839
1403715890259058000,-0.03341539204120636,-0.0007130652666091919,0.08745185285806656,9.391422271728516,0.5951846837997437,-3.7425246238708496
1403715890264058000,-0.03965376317501068,0.013760663568973541,0.09603160619735718,8.94133472442627,0.3895319104194641,-3.5805346965789795
1403715890269058000,-0.033061638474464417,0.008881792426109314,0.09459995478391647,9.171270370483398,0.0806538537144661,-3.5315287113189697
1403715890274058000,-0.010354995727539062,0.0041344910860061646,0.09936396777629852,8.79722785949707,0.00578042259439826,-3.3198347091674805
1403715890279058000,0.010948337614536285,0.011737458407878876,0.07308205217123032,9.310251235961914,-0.09988276660442352,-3.751323938369751
1403715890284058000,0.02697513997554779,0.006878741085529327,0.0589899942278862,9.407562255859375,-0.04109054431319237,-3.7166175842285156
1403715890289058000,0.04150921851396561,0.02659759297966957,0.060113415122032166,9.031492233276367,0.5075033903121948,-3.6225738525390625
1403715890294058000,0.037070974707603455,0.03208020329475403,0.07014036923646927,9.041487693786621,0.5185785889625549,-3.7363269329071045
1403715890299058000,0.019968673586845398,0.02139361947774887,0.07417619228363037,8.894087791442871,0.8758792281150818,-3.6045918464660645
1403715890304058000,-0.009684324264526367,0.012215223163366318,0.08308641612529755,8.925763130187988,0.9818460941314697,-3.521022319793701
1403715890309058000,-0.03126990795135498,0.01929442584514618,0.0766756609082222,9.172029495239258,0.647598385810852,-3.7266266345977783
1403715890314058000,-0.03538381680846214,0.009744152426719666,0.08100004494190216,8.797110557556152,0.13797327876091003,-3.5572009086608887
1403715890319058000,-0.020345548167824745,0.0020050927996635437,0.0565786212682724,9.311382293701172,-0.06807327270507812,-3.6058847904205322
1403715890324058000,0.00935552641749382,0.016030795872211456,0.06585873663425446,9.130208969116211,0.22855155169963837,-3.696485996246338
1403715890329058000,0.015633419156074524,0.018045999109745026,0.06667015701532364,9.243005752563477,0.6133977174758911,-3.6310417652130127
1403715890334058000,-0.006988737732172012,0.02975587546825409,0.07748283445835114,9.227307319641113,0.9392540454864502,-3.7119808197021484
1403715890339058000,-0.04716791212558746,0.03542617708444595,0.09139436483383179,8.82765007019043,1.1593233346939087,-3.695342540740967
1403715890344058000,-0.06873591244220734,0.02164362370967865,0.10148903727531433,8.951557159423828,0.47557690739631653,-3.3836350440979004
1403715890349058000,-0.04600366950035095,0.024925097823143005,0.11191276460886002,9.229521751403809,-0.6217250227928162,-3.628587007522583
1403715890354058000,0.010891962796449661,0.031126633286476135,0.08802324533462524,9.000187873840332,-0.9503017067909241,-3.4689583778381348
1403715890359058000,0.08013661205768585,-0.006618164479732513,0.07609858363866806,9.025967597961426,-0.9784830808639526,-3.3365323543548584
1403715890364058000,0.12692342698574066,0.03954911231994629,0.06915098428726196,9.359434127807617,0.07649702578783035,-3.515878677368164
1403715890369058000,0.09909883141517639,0.008452333509922028,0.056083209812641144,8.819537162780762,1.9471172094345093,-3.869788646697998
1403715890374058000,0.01685042679309845,0.013647958636283875,0.05957398936152458,9.35860824584961,2.4858577251434326,-3.9719491004943848
1403715890379058000,-0.0776272639632225,0.016253411769866943,0.08952406048774719,8.364189147949219,1.842982530593872,-3.4741954803466797
1403715890384058000,-0.1238810122013092,-3.652647137641907e-05,0.10592897236347198,9.172253608703613,0.42819103598594666,-3.65889310836792
1403715890389058000,-0.0925200879573822,0.01043856143951416,0.10348448157310486,9.320600509643555,-0.9349095821380615,-3.491816759109497
1403715890394058000,-0.02910551056265831,0.004766359925270081,0.07188432663679123,8.975379943847656,-1.000775694847107,-3.359703302383423
1403715890399058000,0.036949411034584045,0.006852008402347565,0.05087561160326004,9.459024429321289,-0.7617664337158203,-3.64859676361084
1403715890404058000,0.08801072835922241,0.034868575632572174,0.051764801144599915,9.3095703125,-0.22143998742103577,-3.6009175777435303
1403715890409058000,0.08975447714328766,0.012373887002468109,0.03709757328033447,8.753639221191406,0.5724290013313293,-3.57334303855896
1403715890414058000,0.07289401441812515,0.027554720640182495,0.05455046892166138,9.10673999786377,1.173572063446045,-3.6803603172302246
1403715890419058000,0.034019723534584045,0.01152145117521286,0.09095708280801773,8.69009017944336,1.3944740295410156,-3.7687530517578125
1403715890424058000,-0.020902417600154877,0.0009428635239601135,0.07769423723220825,8.934769630432129,1.3823931217193604,-3.7362594604492188
1403715890429058000,-0.06036551296710968,-0.003032311797142029,0.08741185814142227,9.163457870483398,1.0219173431396484,-3.6124632358551025
1403715890434058000,-0.08622779697179794,0.008411891758441925,0.08253031969070435,9.268298149108887,0.530402421951294,-3.840651273727417
1403715890439058000,-0.07670748233795166,0.0008279271423816681,0.08787368983030319,9.040838241577148,-0.1824924498796463,-3.5996477603912354
1403715890444058000,-0.04102014750242233,0.022925876080989838,0.08561069518327713,9.424309730529785,-0.3807661831378937,-3.6393015384674072
1403715890449058000,-0.004238475114107132,0.022233344614505768,0.08335889875888824,8.933744430541992,-0.3132808208465576,-3.5993106365203857
1403715890454058000,0.03860624134540558,0.025644905865192413,0.08959963917732239,9.040628433227539,-0.31073838472366333,-3.4602315425872803
1403715890459058000,0.06646870076656342,0.026969462633132935,0.0850006565451622,9.188030242919922,-0.01583954691886902,-3.6311635971069336
1403715890464058000,0.06249114125967026,0.022875133901834488,0.047491200268268585,9.048672676086426,0.5592737793922424,-3.6968045234680176
1403715890469058000,0.05012490600347519,0.013099290430545807,0.05210452154278755,9.065385818481445,0.8645413517951965,-3.703747510910034
1403715890474058000,0.024686038494110107,0.024786323308944702,0.060231707990169525,9.26855754852295,1.18009614944458,-3.7201225757598877
1403715890479058000,-0.01620272547006607,0.02978263795375824,0.07340745627880096,8.917335510253906,1.3000119924545288,-3.7511301040649414
1403715890484058000,-0.05757661908864975,0.024959594011306763,0.08891920000314713,9.089171409606934,0.9970217943191528,-3.6447036266326904
1403715890489058000,-0.0783766582608223,0.02009854093194008,0.10446250438690186,8.796944618225098,0.40637269616127014,-3.5218613147735596
1403715890494058000,-0.06308259069919586,0.008856389671564102,0.09295343607664108,8.99299430847168,-0.22478711605072021,-3.392681121826172
1403715890499058000,-0.025436881929636,0.010943260043859482,0.07295557111501694,9.384604454040527,-0.4938547611236572,-3.6382288932800293
1403715890504058000,0.016767773777246475,0.017373505979776382,0.06425590813159943,9.113741874694824,-0.4592511057853699,-3.7231054306030273
1403715890509058000,0.05167505145072937,0.018882688134908676,0.06826566904783249,8.97585678100586,-0.15494900941848755,-3.5184028148651123
1403715890514058000,0.06343249976634979,0.02432890236377716,0.06715136021375656,9.415705680847168,0.62267005443573,-3.8671927452087402
1403715890519058000,0.03055913746356964,0.031121723353862762,0.07663089036941528,8.74540901184082,1.1889804601669312,-3.6069135665893555
1403715890524058000,-0.004021793603897095,0.018448833376169205,0.08365028351545334,8.975415229797363,1.1723065376281738,-3.6681487560272217
1403715890529058000,-0.027131229639053345,0.025653932243585587,0.08233825117349625,9.132148742675781,0.32831257581710815,-3.4505774974823
1403715890534058000,-0.019312206655740738,0.0034332871437072754,0.07536987960338593,8.853333473205566,-0.1648762822151184,-3.463460683822632
1403715890539058000,0.006167680025100708,0.007504153996706009,0.06786517053842545,9.457901954650879,-0.10628721863031387,-3.7284204959869385
1403715890544058000,0.027891717851161957,0.004751354455947876,0.06657607108354568,8.95880126953125,0.581041693687439,-3.5738863945007324
1403715890549058000,0.010375473648309708,0.0129610076546669,0.07256224751472473,9.29975414276123,1.2084802389144897,-3.8835763931274414
1403715890554058000,-0.03313668817281723,0.023465730249881744,0.07945160567760468,9.282959938049316,1.42713463306427,-3.698551654815674
1403715890559058000,-0.07590039819478989,0.015934564173221588,0.09085036814212799,8.843158721923828,1.0602420568466187,-3.611298084259033
1403715890564058000,-0.08100966364145279,0.025763895362615585,0.0860610380768776,9.19701099395752,0.023529883474111557,-3.589200019836426
1403715890569058000,-0.03879591450095177,0.011721085757017136,0.08321358263492584,8.87081241607666,-0.9011430144309998,-3.3682711124420166
1403715890574058000,0.020828604698181152,0.00745571032166481,0.07486473023891449,8.919313430786133,-0.7291527986526489,-3.408207416534424
1403715890579058000,0.06055279076099396,0.011712417006492615,0.05306408554315567,9.377171516418457,-0.1763618439435959,-3.581942558288574
1403715890584058000,0.07274966686964035,0.014564290642738342,0.05788807570934296,9.047832489013672,0.7147497534751892,-3.7291388511657715
1403715890589058000,0.05210430920124054,0.024256296455860138,0.05932621657848358,8.877578735351562,1.1222859621047974,-3.7137160301208496
1403715890594058000,0.01573770120739937,0.0205080583691597,0.050625480711460114,9.269129753112793,1.4075334072113037,-3.802990436553955
1403715890599058000,-0.04119314253330231,0.015741586685180664,0.08092958480119705,8.96561050415039,1.154616117477417,-3.7194955348968506
1403715890604058000,-0.057868845760822296,0.031358882784843445,0.08340172469615936,8.902604103088379,0.4582245349884033,-3.5386104583740234
1403715890609058000,-0.05211097002029419,0.003400653600692749,0.08745503425598145,8.944873809814453,0.15250617265701294,-3.456613302230835
1403715890614058000,-0.04072626680135727,0.007639139890670776,0.06916812062263489,9.03360366821289,0.06362675130367279,-3.6689608097076416
1403715890619058000,-0.012489499524235725,0.011820942163467407,0.06921789050102234,9.399890899658203,-0.1803378462791443,-3.7880046367645264
1403715890624058000,0.015710342675447464,0.01882273703813553,0.06451190263032913,8.98340129852295,-0.1906898021697998,-3.6823410987854004
1403715890629058000,0.031996339559555054,0.03484702855348587,0.04815542325377464,9.171918869018555,0.16259026527404785,-3.7055723667144775
1403715890634058000,0.03813032805919647,0.035463690757751465,0.06920608133077621,9.170782089233398,0.5587608814239502,-3.729186534881592
1403715890639058000,0.030097968876361847,0.036867789924144745,0.08622327446937561,8.81115436553955,0.632649302482605,-3.630121946334839
1403715890644058000,0.017950676381587982,0.03393510729074478,0.0808449536561966,8.772927284240723,0.6878450512886047,-3.473587989807129
1403715890649058000,-0.006872240453958511,0.00870436429977417,0.08280125260353088,8.878939628601074,0.8599692583084106,-3.479621410369873
1403715890654058000,-0.023644037544727325,0.009606827050447464,0.08317974209785461,9.325992584228516,0.5502892732620239,-3.7592899799346924
1403715890659058000,-0.026265811175107956,0.02097398415207863,0.08330520242452621,9.146327018737793,0.34212297201156616,-3.672696590423584
1403715890664058000,-0.022521842271089554,0.019515812397003174,0.07622751593589783,9.162939071655273,0.3324509561061859,-3.5894510746002197
1403715890669058000,-0.020929548889398575,0.0326664000749588,0.08405297249555588,9.41529369354248,0.2608926594257355,-3.6057498455047607
1403715890674058000,-0.009617423638701439,0.036172449588775635,0.08763012290000916,9.063191413879395,0.18711450695991516,-3.670351982116699
1403715890679058000,0.011484116315841675,0.03471802920103073,0.08023204654455185,8.910247802734375,0.0234217569231987,-3.4835731983184814
1403715890684058000,0.023358624428510666,0.02906385436654091,0.0660494714975357,9.075088500976562,0.1799532175064087,-3.5387110710144043
1403715890689058000,0.02806943655014038,0.010977841913700104,0.058614104986190796,9.073587417602539,0.4516216516494751,-3.670125722885132
1403715890694058000,0.028590701520442963,0.009708624333143234,0.06083732098340988,9.016549110412598,0.6399841904640198,-3.6709022521972656
1403715890699058000,0.008101299405097961,0.014526709914207458,0.05865510180592537,9.098453521728516,0.8834371566772461,-3.695611000061035
1403715890704058000,-0.022883649915456772,0.00886787474155426,0.069965660572052,9.194944381713867,0.8834705948829651,-3.6790571212768555
1403715890709058000,-0.03680222108960152,0.01666836068034172,0.07983724027872086,9.031576156616211,0.7605806589126587,-3.702775716781616
1403715890714058000,-0.03368385136127472,0.02714434266090393,0.08179052919149399,9.212285995483398,0.16297300159931183,-3.5083019733428955
1403715890719058000,-0.014633070677518845,0.01940213143825531,0.07256421446800232,9.065852165222168,-0.24750681221485138,-3.4740371704101562
1403715890724058000,0.011386103928089142,0.01306537538766861,0.05652718245983124,9.163519859313965,-0.02597675286233425,-3.597172737121582
1403715890729058000,0.026074379682540894,0.022272750735282898,0.06791506707668304,8.967864036560059,0.36952927708625793,-3.564662218093872
1403715890734058000,0.012607499957084656,0.011084817349910736,0.0642528384923935,9.032585144042969,1.0390329360961914,-3.8261919021606445
1403715890739058000,-0.021256446838378906,0.017938680946826935,0.0760822668671608,8.991501808166504,1.144816517829895,-3.672740936279297
1403715890744058000,-0.04780448228120804,0.020121075212955475,0.09939794987440109,9.16226863861084,0.7606878280639648,-3.8743741512298584
1403715890749058000,-0.049138423055410385,0.03561177849769592,0.10577000677585602,8.878256797790527,-0.1794653981924057,-3.2242345809936523
1403715890754058000,-0.008355934172868729,-0.0024911537766456604,0.0829637423157692,9.222043991088867,-1.087797999382019,-3.447495222091675
1403715890759058000,0.07475058734416962,0.03938255459070206,0.07305701822042465,9.32677936553955,-0.5894712209701538,-3.6970772743225098
1403715890764058000,0.10089410841464996,0.00965752825140953,0.06498579680919647,8.705574989318848,0.5430018305778503,-3.2943308353424072
1403715890769058000,0.06475625932216644,0.02045116201043129,0.056995801627635956,9.480997085571289,1.43435537815094,-3.9975640773773193
1403715890774058000,0.0047726258635520935,0.020387500524520874,0.06402908265590668,8.656533241271973,2.055715560913086,-3.5617191791534424
1403715890779058000,-0.05947245657444,-0.004644840955734253,0.06700298935174942,9.243158340454102,1.5112566947937012,-3.830531358718872
1403715890784058000,-0.08416280150413513,0.05726929008960724,0.09450416266918182,9.342867851257324,0.5219760537147522,-3.7552037239074707
1403715890789058000,-0.07849766314029694,0.0076821595430374146,0.06771320849657059,8.999348640441895,-0.191290482878685,-3.603956699371338
1403715890794058000,-0.030513184145092964,0.03548888862133026,0.08031557500362396,9.066699981689453,-0.5416608452796936,-3.433825969696045
1403715890799058000,0.006615817546844482,0.044684335589408875,0.07027105987071991,8.94403076171875,-0.04234982654452324,-3.325874090194702
1403715890804058000,0.028277598321437836,0.004496246576309204,0.06854534149169922,9.439574241638184,0.13100986182689667,-3.8503005504608154
1403715890809058000,0.03660408407449722,0.03814464807510376,0.07695779204368591,8.836577415466309,0.41774851083755493,-3.511577844619751
1403715890814058000,0.030393563210964203,0.023672297596931458,0.06144902482628822,9.065922737121582,0.6148834824562073,-3.7847437858581543
1403715890819058000,0.023951243609189987,0.020195569843053818,0.07039262354373932,9.082304000854492,0.5518518686294556,-3.681668758392334
1403715890824058000,0.015254538506269455,0.03955646604299545,0.082222580909729,9.079912185668945,0.9261196851730347,-3.758981227874756
1403715890829058000,-0.008911710232496262,0.026926077902317047,0.07879114896059036,9.089313507080078,0.8200510740280151,-3.6389474868774414
1403715890834058000,-0.030101671814918518,0.01869206875562668,0.09376963973045349,9.008294105529785,0.7772470116615295,-3.562307834625244
1403715890839058000,-0.0474824458360672,0.04314713180065155,0.0959816426038742,8.877911567687988,0.6689198017120361,-3.5460410118103027
1403715890844058000,-0.03935695067048073,0.004039999097585678,0.10423940420150757,9.03343677520752,0.04845204949378967,-3.580399990081787
