#timestamp [ns],w_RS_S_x [rad s^-1],w_RS_S_y [rad s^-1],w_RS_S_z [rad s^-1],a_RS_S_x [m s^-2],a_RS_S_y [m s^-2],a_RS_S_z [m s^-2]
1403715886544058000,-0.0020943951023931952,0.01884955592153876,0.07609635538695278,9.062979041666667,0.4494714583333333,-3.6529771249999996
1403715886549058000,-0.003490658503988659,0.021642082724729686,0.07609635538695278,9.062979041666667,0.416782625,-3.6366327083333334
1403715886554058000,-0.0027925268031909274,0.01884955592153876,0.0767944870877505,9.062979041666667,0.367749375,-3.6611493333333334
1403715886559058000,0.0006981317007977319,0.016057029118347832,0.07958701389094143,9.054806833333332,0.4004382083333333,-3.6202882916666663
1403715886564058000,-0.0013962634015954637,0.01884955592153876,0.07749261878854824,9.062979041666667,0.367749375,-3.6121160833333334
1403715886569058000,-0.0006981317007977319,0.013962634015954637,0.07749261878854824,9.095667875,0.40861041666666664,-3.6284604999999996
1403715886574058000,-0.0020943951023931952,0.013962634015954637,0.07749261878854824,9.079323458333333,0.392266,-3.6121160833333334
1403715886579058000,-0.0020943951023931952,0.0153588974175501,0.07609635538695278,9.062979041666667,0.40861041666666664,-3.6202882916666663
1403715886584058000,-0.0020943951023931952,0.012566370614359173,0.07819075048934597,9.054806833333332,0.40861041666666664,-3.6529771249999996
1403715886589058000,-0.0006981317007977319,0.01815142422074103,0.07819075048934597,9.046634625,0.392266,-3.6448049166666663
1403715886594058000,-0.0020943951023931952,0.01815142422074103,0.07609635538695278,9.112012291666666,0.4739880833333333,-3.693838166666666
1403715886599058000,-0.003490658503988659,0.01815142422074103,0.07749261878854824,9.062979041666667,0.416782625,-3.6448049166666663
1403715886604058000,-0.006283185307179587,0.020943951023931952,0.07749261878854824,9.07115125,0.392266,-3.6039438749999997
1403715886609058000,-0.004886921905584123,0.016755160819145562,0.07330382858376185,9.144701125,0.40861041666666664,-3.6284604999999996
1403715886614058000,-0.0041887902047863905,0.01884955592153876,0.07120943348136866,9.103840083333333,0.4494714583333333,-3.6448049166666663
1403715886619058000,-0.004886921905584123,0.02024581932313422,0.07749261878854824,9.103840083333333,0.40861041666666664,-3.6611493333333334
1403715886624058000,-0.0020943951023931952,0.01884955592153876,0.07539822368615504,9.112012291666666,0.40861041666666664,-3.6448049166666663
1403715886629058000,-0.0020943951023931952,0.016057029118347832,0.07539822368615504,9.062979041666667,0.3840937916666667,-3.6529771249999996
1403715886634058000,-0.0013962634015954637,0.016755160819145562,0.07400196028455958,9.079323458333333,0.3759215833333333,-3.6856659583333333
1403715886639058000,0.0,0.01815142422074103,0.07888888219014369,9.030290208333332,0.40861041666666664,-3.6611493333333334
1403715886644058000,-0.0020943951023931952,0.02024581932313422,0.07819075048934597,9.022118,0.43312704166666666,-3.6284604999999996
1403715886649058000,-0.003490658503988659,0.019547687622336492,0.08098327729253688,9.087495666666666,0.43312704166666666,-3.6448049166666663
1403715886654058000,-0.0013962634015954637,0.020943951023931952,0.08098327729253688,9.087495666666666,0.416782625,-3.6284604999999996
1403715886659058000,0.0006981317007977319,0.02234021442552742,0.08028514559173915,9.054806833333332,0.3840937916666667,-3.6448049166666663
1403715886664058000,-0.0041887902047863905,0.02024581932313422,0.07749261878854824,9.087495666666666,0.3840937916666667,-3.6693215416666662
1403715886669058000,-0.0020943951023931952,0.020943951023931952,0.07958701389094143,9.095667875,0.392266,-3.6202882916666663
1403715886674058000,-0.0020943951023931952,0.02024581932313422,0.07609635538695278,9.1201845,0.3840937916666667,-3.6366327083333334
1403715886679058000,-0.004886921905584123,0.016057029118347832,0.07819075048934597,9.087495666666666,0.392266,-3.6202882916666663
1403715886684058000,-0.003490658503988659,0.019547687622336492,0.07819075048934597,9.038462416666666,0.3840937916666667,-3.6202882916666663
1403715886689058000,-0.003790654242038727,0.020932244136929512,0.07680878043174744,9.067683219909668,0.4186396896839142,-3.6601345539093018
1403715886694058000,-0.0017181634902954102,0.020218459889292717,0.07823100686073303,9.059630393981934,0.4263244569301605,-3.6518638134002686
1403715886699058000,-0.003759711980819702,0.023711608722805977,0.0733320564031601,9.06765079498291,0.3611162006855011,-3.62735652923584
1403715886704058000,-0.002379864454269409,0.021621892228722572,0.07470013201236725,9.092236518859863,0.4431290030479431,-3.6519174575805664
1403715886709058000,-0.001713871955871582,0.017398899421095848,0.07686744630336761,9.067872047424316,0.4348767101764679,-3.6519527435302734
1403715886714058000,-0.0023708269000053406,0.020897312089800835,0.07474658638238907,9.051267623901367,0.3529304563999176,-3.64376163482666
1403715886719058000,-0.002362951636314392,0.023021748289465904,0.07611186802387238,9.141337394714355,0.4594673812389374,-3.7008373737335205
1403715886724058000,-0.0017164796590805054,0.020236829295754433,0.07753771543502808,9.067801475524902,0.3857271373271942,-3.676372766494751
1403715886729058000,-0.0037782490253448486,0.023731233552098274,0.07749210298061371,9.108405113220215,0.35320961475372314,-3.6600852012634277
1403715886734058000,-0.0009805411100387573,0.018113097175955772,0.0789211094379425,9.108628273010254,0.41039368510246277,-3.660033702850342
1403715886739058000,-0.0016765743494033813,0.022267421707510948,0.07894358038902283,9.092289924621582,0.3854929208755493,-3.6436517238616943
1403715886744058000,-0.002398952841758728,0.02442251332104206,0.0795944556593895,9.116460800170898,0.36956503987312317,-3.6354920864105225
1403715886749058000,0.0004139319062232971,0.02094338648021221,0.08032795786857605,9.051376342773438,0.4185901880264282,-3.6355907917022705
1403715886754058000,-0.001688733696937561,0.02441086433827877,0.07751698046922684,9.051400184631348,0.4265275001525879,-3.6519548892974854
1403715886759058000,-0.0030990242958068848,0.022302353754639626,0.07818683236837387,9.035077095031738,0.4429468512535095,-3.6765222549438477
1403715886764058000,-0.0002750903367996216,0.02298683486878872,0.07823741436004639,9.035140037536621,0.43482348322868347,-3.6355934143066406
1403715886769058000,-0.0023965835571289062,0.021614016965031624,0.07542719691991806,9.043185234069824,0.4019091725349426,-3.651831865310669
1403715886774058000,-0.003103598952293396,0.023027731105685234,0.07404041290283203,9.084014892578125,0.41016680002212524,-3.6600124835968018
1403715886779058000,-0.0037554651498794556,0.023700164631009102,0.07405780255794525,9.092134475708008,0.39414528012275696,-3.6192448139190674
1403715886784058000,-0.00239679217338562,0.02230859361588955,0.07540495693683624,9.092185020446777,0.4102493226528168,-3.6111106872558594
1403715886789058000,-0.004493534564971924,0.02023402787744999,0.07542943954467773,9.051377296447754,0.4180787205696106,-3.643800735473633
1403715886794058000,0.0011335313320159912,0.018079502508044243,0.07823725044727325,9.051385879516602,0.41022682189941406,-3.6438381671905518
1403715886799058000,-0.001690596342086792,0.019506273791193962,0.07751406729221344,9.075864791870117,0.37770023941993713,-3.6437110900878906
1403715886804058000,-0.001713782548904419,0.018832294270396233,0.07753190398216248,9.084234237670898,0.44289085268974304,-3.6436660289764404
1403715886809058000,-0.0030561983585357666,0.021626880392432213,0.07614482939243317,9.084115982055664,0.4019489586353302,-3.627413034439087
1403715886814058000,-0.001695096492767334,0.020228153094649315,0.0761088877916336,9.09208869934082,0.40214675664901733,-3.627424716949463
1403715886819058000,-0.003077201545238495,0.01948789693415165,0.07542847096920013,9.075852394104004,0.40217041969299316,-3.6273789405822754
1403715886824058000,-0.0009823888540267944,0.021615853533148766,0.07543815672397614,9.06761360168457,0.353253573179245,-3.6926968097686768
1403715886829058000,-0.00449216365814209,0.019527943804860115,0.08030899614095688,9.116908073425293,0.45122769474983215,-3.6683053970336914
1403715886834058000,-0.005214795470237732,0.019523991271853447,0.07542930543422699,9.084283828735352,0.4101271629333496,-3.627351999282837
1403715886839058000,-0.0030521154403686523,0.02510729990899563,0.07682591676712036,9.06766414642334,0.3774219751358032,-3.643657684326172
1403715886844058000,-0.0002937242388725281,0.020223824307322502,0.07962324470281601,9.067704200744629,0.39401933550834656,-3.635617971420288
1403715886849058000,-0.003087848424911499,0.01882331259548664,0.0767969861626625,9.059669494628906,0.41035109758377075,-3.66828989982605
1403715886854058000,-0.003780767321586609,0.022299421951174736,0.07475299388170242,9.075916290283203,0.46728500723838806,-3.6519110202789307
1403715886859058000,-0.0037946850061416626,0.022302230820059776,0.07615768164396286,9.075905799865723,0.42637893557548523,-3.6519265174865723
1403715886864058000,-0.0051840245723724365,0.021620167419314384,0.07398270070552826,9.09217643737793,0.39386439323425293,-3.619262456893921
1403715886869058000,-0.005848139524459839,0.018156783655285835,0.07823117822408676,9.075909614562988,0.38605988025665283,-3.6600286960601807
1403715886874058000,-0.002389848232269287,0.018100162968039513,0.07755424082279205,9.067728996276855,0.38576453924179077,-3.660048246383667
1403715886879058000,-0.0038095414638519287,0.020177504047751427,0.07468518614768982,9.034994125366211,0.40209099650382996,-3.6355931758880615
1403715886884058000,-0.002380087971687317,0.018148912116885185,0.07825146615505219,9.092361450195312,0.4590549170970917,-3.6273765563964844
1403715886889058000,-0.0002633407711982727,0.020241139456629753,0.07754896581172943,9.059579849243164,0.42647311091423035,-3.6355743408203125
1403715886894058000,-0.0044951364398002625,0.021602554246783257,0.07538363337516785,9.06761646270752,0.3859254717826843,-3.6601674556732178
1403715886899058000,-0.0002807825803756714,0.0188081506639719,0.07336501777172089,9.067663192749023,0.41042324900627136,-3.6437435150146484
1403715886904058000,0.0004297494888305664,0.020214354619383812,0.07612209022045135,9.043259620666504,0.43468984961509705,-3.6436617374420166
1403715886909058000,0.00038996338844299316,0.016040174290537834,0.07678958773612976,9.100384712219238,0.4262318015098572,-3.643678903579712
1403715886914058000,-0.0023749619722366333,0.018800990656018257,0.07687124609947205,9.092254638671875,0.40193912386894226,-3.6519112586975098
1403715886919058000,0.0011177211999893188,0.018808646127581596,0.07683536410331726,9.043156623840332,0.38592880964279175,-3.6192898750305176
1403715886924058000,-0.0031015053391456604,0.017449891194701195,0.0767844170331955,9.100436210632324,0.4023923873901367,-3.643723249435425
1403715886929058000,-0.003792211413383484,0.01812269724905491,0.07823508232831955,9.075996398925781,0.4346594214439392,-3.660069465637207
1403715886934058000,0.00043132901191711426,0.019488511607050896,0.07614558190107346,9.043121337890625,0.36902737617492676,-3.6437132358551025
1403715886939058000,-0.001028798520565033,0.01952194981276989,0.07471780478954315,9.075804710388184,0.3857780992984772,-3.6600284576416016
1403715886944058000,-0.003773927688598633,0.01813940890133381,0.07683143019676208,9.035082817077637,0.3615488111972809,-3.619288444519043
1403715886949058000,-0.004468955099582672,0.018840858712792397,0.0740235298871994,9.092207908630371,0.3694564700126648,-3.64371395111084
1403715886954058000,-0.005218446254730225,0.022993063554167747,0.07473486661911011,9.084118843078613,0.4182273745536804,-3.651845932006836
1403715886959058000,-0.00519397109746933,0.018124965950846672,0.07684870064258575,9.035140037536621,0.4101657271385193,-3.668294668197632
1403715886964058000,-0.0030425339937210083,0.020240267738699913,0.07819774001836777,9.051344871520996,0.40223386883735657,-3.6764976978302
1403715886969058000,-0.0017048940062522888,0.023701047524809837,0.08101542294025421,9.07600212097168,0.44315916299819946,-3.668229579925537
1403715886974058000,-0.0024055838584899902,0.0209051426500082,0.0768430083990097,9.108648300170898,0.4100765585899353,-3.6191565990448
1403715886979058000,-0.0009575486183166504,0.016727184876799583,0.07610215246677399,9.092177391052246,0.41018128395080566,-3.6437394618988037
1403715886984058000,-0.004486113786697388,0.019516339525580406,0.07682498544454575,9.075861930847168,0.41838690638542175,-3.6274502277374268
1403715886989058000,-0.0037937909364700317,0.020201845094561577,0.07751228660345078,9.092142105102539,0.40195196866989136,-3.6274521350860596
1403715886994058000,-0.0037605389952659607,0.0202095415443182,0.07821516692638397,9.108611106872559,0.44307154417037964,-3.660092830657959
1403715886999058000,-0.0023969262838363647,0.023749923333525658,0.07964037358760834,9.067767143249512,0.43490344285964966,-3.6682546138763428
1403715887004058000,-0.004478521645069122,0.021614810451865196,0.07681185007095337,9.100337982177734,0.3774651885032654,-3.660017490386963
1403715887009058000,-0.0023731663823127747,0.018770234659314156,0.07611727714538574,9.13318157196045,0.45093563199043274,-3.676302671432495
1403715887014058000,-0.0009813010692596436,0.023007428273558617,0.07474517077207565,9.116928100585938,0.4511648416519165,-3.6354808807373047
1403715887019058000,0.0004108324646949768,0.023019367828965187,0.07749541848897934,9.092150688171387,0.4267077147960663,-3.6355514526367188
1403715887024058000,-0.0016612112522125244,0.01952514611184597,0.07892314344644547,9.08401107788086,0.42669492959976196,-3.643756866455078
1403715887029058000,-0.003803074359893799,0.022314852103590965,0.07615198194980621,9.05136489868164,0.41014358401298523,-3.651987314224243
1403715887034058000,-0.005898557603359222,0.024398354813456535,0.0754326805472374,9.059529304504395,0.385861873626709,-3.6764891147613525
1403715887039058000,-0.003771379590034485,0.01810927502810955,0.07472353428602219,9.084235191345215,0.45117124915122986,-3.668224811553955
1403715887044058000,0.0025304853916168213,0.02231706865131855,0.07750306278467178,9.075898170471191,0.40199780464172363,-3.64363169670105
1403715887049058000,0.0018067583441734314,0.023703036829829216,0.07683175802230835,9.059348106384277,0.4182823598384857,-3.635538339614868
1403715887054058000,0.0017936080694198608,0.02020425908267498,0.07964596897363663,9.043195724487305,0.40204936265945435,-3.5947494506835938
1403715887059058000,-0.0009999126195907593,0.022336507216095924,0.08102082461118698,9.059399604797363,0.3776577413082123,-3.668246030807495
1403715887064058000,-0.0023970454931259155,0.018823323771357536,0.07262646406888962,9.059441566467285,0.3940119445323944,-3.6764376163482666
1403715887069058000,-0.002369299530982971,0.020182030275464058,0.08101128041744232,9.059663772583008,0.4102120101451874,-3.6193506717681885
1403715887074058000,-0.005871400237083435,0.024412868544459343,0.07610126584768295,9.1085844039917,0.4101410508155823,-3.676306962966919
1403715887079058000,-0.005205832421779633,0.018847553059458733,0.07679031789302826,9.100600242614746,0.4672596752643585,-3.635589122772217
1403715887084058000,-0.0037961453199386597,0.02020503766834736,0.07551223039627075,9.051314353942871,0.37766775488853455,-3.586674451828003
1403715887089058000,-0.0065613240003585815,0.019497083500027657,0.07472358644008636,9.092123985290527,0.4186297059059143,-3.6519289016723633
1403715887094058000,-0.0009784996509552002,0.02020912803709507,0.0774863213300705,9.133122444152832,0.43470197916030884,-3.6518399715423584
1403715887099058000,-0.0009682774543762207,0.0202296394854784,0.07685307413339615,9.059564590454102,0.4344058334827423,-3.6194651126861572
1403715887104058000,-0.0023955851793289185,0.0237357746809721,0.07329808920621872,9.092183113098145,0.3940832018852234,-3.651841878890991
1403715887109058000,-0.003780469298362732,0.01810966618359089,0.07753242552280426,9.100506782531738,0.4266253411769867,-3.6191816329956055
1403715887114058000,-0.001682080328464508,0.022275066003203392,0.07758034765720367,9.108590126037598,0.41022157669067383,-3.6274261474609375
1403715887119058000,-0.004473522305488586,0.019537819549441338,0.07540307939052582,9.108565330505371,0.41007760167121887,-3.6191768646240234
1403715887124058000,-0.004465162754058838,0.02159617654979229,0.07823124527931213,9.051461219787598,0.41851046681404114,-3.611091136932373
1403715887129058000,-0.0030873268842697144,0.021626489236950874,0.07750973105430603,9.043176651000977,0.4102526009082794,-3.6602590084075928
1403715887134058000,-0.0017378553748130798,0.016042975708842278,0.07957358658313751,9.076118469238281,0.4592078626155853,-3.6520066261291504
1403715887139058000,-0.0009587854146957397,0.018800990656018257,0.07897832989692688,9.06791877746582,0.43456172943115234,-3.6355669498443604
1403715887144058000,-0.004463121294975281,0.020908528938889503,0.07683087140321732,9.034944534301758,0.38575300574302673,-3.643714666366577
1403715887149058000,-0.003106147050857544,0.01953125186264515,0.07679334282875061,9.067673683166504,0.4103851914405823,-3.6682322025299072
1403715887154058000,-0.0023857951164245605,0.02373459003865719,0.07614535093307495,9.051427841186523,0.44304364919662476,-3.6437902450561523
1403715887159058000,-0.0030702203512191772,0.023722028359770775,0.07819874584674835,9.092154502868652,0.4099690914154053,-3.660066604614258
1403715887164058000,-0.0023801028728485107,0.018798330798745155,0.08171422779560089,9.10046100616455,0.45109063386917114,-3.6765060424804688
1403715887169058000,-0.003082849085330963,0.02158266492187977,0.07683856785297394,9.051426887512207,0.4347713589668274,-3.6438095569610596
1403715887174058000,-0.00028370320796966553,0.02232937328517437,0.07750561088323593,9.075745582580566,0.4021095931529999,-3.635474920272827
1403715887179058000,-0.003785058856010437,0.01810966245830059,0.07963378727436066,9.051474571228027,0.4264601171016693,-3.6601104736328125
1403715887184058000,-0.0009905919432640076,0.018833035603165627,0.07750481367111206,9.075876235961914,0.3938824236392975,-3.627444267272949
1403715887189058000,-0.0016921311616897583,0.019518254324793816,0.07193973660469055,9.043076515197754,0.4266025125980377,-3.6600852012634277
1403715887194058000,-0.0009969621896743774,0.019482826814055443,0.07755570113658905,9.084024429321289,0.39396461844444275,-3.676323890686035
1403715887199058000,-0.0016683191061019897,0.022327298298478127,0.07749660313129425,9.051291465759277,0.38562944531440735,-3.6355772018432617
1403715887204058000,-0.005891934037208557,0.020249461755156517,0.07821977138519287,9.108617782592773,0.3859393298625946,-3.651869535446167
1403715887209058000,-0.004488460719585419,0.019501665607094765,0.07826010882854462,9.100488662719727,0.42681315541267395,-3.619175672531128
1403715887214058000,-0.004486396908760071,0.01740877889096737,0.07956293225288391,9.051420211791992,0.40184739232063293,-3.643831729888916
1403715887219058000,-0.0023703277111053467,0.019500939175486565,0.07542681694030762,9.043188095092773,0.4181855320930481,-3.6601667404174805
1403715887224058000,-0.006586015224456787,0.019529936835169792,0.08106928318738937,9.059759140014648,0.42668837308883667,-3.6192967891693115
1403715887229058000,-0.0031030774116516113,0.0216380562633276,0.08168140798807144,9.092256546020508,0.41050034761428833,-3.6682863235473633
1403715887234058000,-0.003781840205192566,0.018123535439372063,0.07748854160308838,9.084024429321289,0.40190786123275757,-3.6356165409088135
1403715887239058000,-0.003773108124732971,0.01949593983590603,0.07755917310714722,9.100447654724121,0.42644092440605164,-3.6274189949035645
1403715887244058000,0.003244951367378235,0.02370738424360752,0.08028717339038849,9.124720573425293,0.40221095085144043,-3.6762874126434326
1403715887249058000,-0.002409219741821289,0.019520407542586327,0.08027900010347366,9.100439071655273,0.44310668110847473,-3.70086932182312
1403715887254058000,-0.002398163080215454,0.020929386839270592,0.07827731966972351,9.051471710205078,0.39377909898757935,-3.6275112628936768
1403715887259058000,-0.0030603110790252686,0.018127696588635445,0.07751558721065521,9.08403205871582,0.37744569778442383,-3.6436851024627686
1403715887264058000,-0.003798343241214752,0.020885629579424858,0.07957673817873001,9.108652114868164,0.4104968309402466,-3.6437294483184814
1403715887269058000,-0.0023838356137275696,0.02441064827144146,0.07407054305076599,9.075851440429688,0.3857400119304657,-3.6356711387634277
1403715887274058000,-0.0023634806275367737,0.023032819852232933,0.07683273404836655,9.083979606628418,0.4102218747138977,-3.6518616676330566
1403715887279058000,-0.00031025707721710205,0.02092341147363186,0.07539365440607071,9.108527183532715,0.42659467458724976,-3.651803970336914
1403715887284058000,-0.00240500271320343,0.020183010026812553,0.07472911477088928,9.075750350952148,0.361316978931427,-3.619257926940918
1403715887289058000,-0.000951915979385376,0.017413591966032982,0.07827108353376389,9.084169387817383,0.44295334815979004,-3.7009165287017822
1403715887294058000,-0.0016940906643867493,0.02161610685288906,0.07821883261203766,9.076056480407715,0.4265368580818176,-3.643655776977539
1403715887299058000,-0.005888000130653381,0.022350331768393517,0.08028662204742432,9.075847625732422,0.40196263790130615,-3.619276523590088
1403715887304058000,-0.0016803890466690063,0.01743018440902233,0.08103345334529877,9.084203720092773,0.45118555426597595,-3.684596061706543
1403715887309058000,0.0003950446844100952,0.018098341301083565,0.08028185367584229,9.084177017211914,0.45087650418281555,-3.7008986473083496
1403715887314058000,-0.0016755163669586182,0.022993532940745354,0.07820919156074524,9.092019081115723,0.39384692907333374,-3.6193196773529053
1403715887319058000,0.005328461527824402,0.01810593716800213,0.07896284759044647,9.067492485046387,0.39406144618988037,-3.643728733062744
1403715887324058000,0.001101568341255188,0.018140537664294243,0.07610605657100677,9.067642211914062,0.36939820647239685,-3.6109907627105713
1403715887329058000,-0.0003308802843093872,0.023737074807286263,0.07610246539115906,9.07576847076416,0.41018062829971313,-3.651920795440674
1403715887334058000,-0.0016582459211349487,0.022288059815764427,0.0775584876537323,9.075929641723633,0.4265609681606293,-3.6356008052825928
1403715887339058000,-0.0016867071390151978,0.026504134759306908,0.07402095198631287,9.051304817199707,0.41028955578804016,-3.6110739707946777
1403715887344058000,-0.0003033578395843506,0.023037021979689598,0.07263849675655365,9.108518600463867,0.3940313756465912,-3.6436941623687744
1403715887349058000,-0.003763146698474884,0.02017664723098278,0.07755900919437408,9.043360710144043,0.44295164942741394,-3.6437833309173584
1403715887354058000,0.0010883808135986328,0.022976337000727654,0.08238416165113449,9.05952262878418,0.3938768804073334,-3.602897882461548
1403715887359058000,-0.0010215044021606445,0.020935481414198875,0.08240413665771484,9.092147827148438,0.4020215570926666,-3.643735408782959
1403715887364058000,-0.0016543567180633545,0.01813981495797634,0.07405983656644821,9.092378616333008,0.44294750690460205,-3.619274377822876
1403715887369058000,-0.0030784904956817627,0.021601973101496696,0.07611220329999924,9.043214797973633,0.4100857675075531,-3.6275155544281006
1403715887374058000,-0.0038078278303146362,0.020203782245516777,0.0775141492486,9.092239379882812,0.41834530234336853,-3.6355738639831543
1403715887379058000,-0.0037789493799209595,0.020905135199427605,0.07611946761608124,9.100561141967773,0.4674757421016693,-3.64383864402771
1403715887384058000,0.001124463975429535,0.020238475874066353,0.076846644282341,9.0758638381958,0.39381685853004456,-3.627462148666382
1403715887389058000,0.001127295196056366,0.018101679161190987,0.07613015174865723,9.075865745544434,0.4264875650405884,-3.6763131618499756
1403715887394058000,-0.0024099200963974,0.01808621548116207,0.07401847094297409,9.067855834960938,0.4264266788959503,-3.627385139465332
1403715887399058000,-0.0037730783224105835,0.022351039573550224,0.07545904815196991,9.10035228729248,0.41018354892730713,-3.67641019821167
1403715887404058000,-0.0031086504459381104,0.02164304442703724,0.07821193337440491,9.067730903625488,0.39428648352622986,-3.6845645904541016
1403715887409058000,-0.0023775696754455566,0.020207593217492104,0.07608447223901749,9.067782402038574,0.410280704498291,-3.643759250640869
1403715887414058000,-0.00585329532623291,0.02020636759698391,0.0775694027543068,9.075820922851562,0.36105644702911377,-3.619199752807617
1403715887419058000,-0.0003108680248260498,0.02018960379064083,0.07825419306755066,9.06764030456543,0.39411869645118713,-3.643678903579712
1403715887424058000,-0.003809623420238495,0.017421258613467216,0.07539698481559753,9.043307304382324,0.41859742999076843,-3.635655164718628
1403715887429058000,-0.0030714645981788635,0.020942935720086098,0.07752438634634018,9.100353240966797,0.40182507038116455,-3.6437642574310303
1403715887434058000,-0.0030509531497955322,0.023016666993498802,0.07470252364873886,9.108473777770996,0.4020931124687195,-3.6435863971710205
1403715887439058000,-0.0017080903053283691,0.01812572591006756,0.07540293782949448,9.092301368713379,0.4185393154621124,-3.635556697845459
1403715887444058000,-0.0016745924949645996,0.0188144538551569,0.07899671047925949,9.10860538482666,0.41025033593177795,-3.6273767948150635
1403715887449058000,-0.0016708821058273315,0.019495142623782158,0.08031537383794785,9.067764282226562,0.44275933504104614,-3.627423048019409
1403715887454058000,-0.002400211989879608,0.021588800475001335,0.076775461435318,9.059447288513184,0.38567063212394714,-3.651881217956543
1403715887459058000,-0.0045052170753479,0.02234628237783909,0.07823190838098526,9.092182159423828,0.38577914237976074,-3.6600797176361084
1403715887464058000,-0.0009619072079658508,0.01955726556479931,0.08029796928167343,9.076000213623047,0.3940931260585785,-3.6355769634246826
1403715887469058000,-0.0023977309465408325,0.02229655347764492,0.07960805296897888,9.067676544189453,0.38570457696914673,-3.6111397743225098
1403715887474058000,-0.003801107406616211,0.020185021683573723,0.07687955349683762,9.10034465789795,0.3939434587955475,-3.668201446533203
1403715887479058000,-0.0044778138399124146,0.02092571370303631,0.08030754327774048,9.092384338378906,0.44287243485450745,-3.660161018371582
1403715887484058000,-0.002394840121269226,0.019527537748217583,0.07817018777132034,9.08408260345459,0.4102541506290436,-3.6437056064605713
1403715887489058000,-0.0023693740367889404,0.019510002806782722,0.07543108612298965,9.092302322387695,0.4265816807746887,-3.6437015533447266
1403715887494058000,-0.0037675201892852783,0.019504981115460396,0.07474854588508606,9.05976390838623,0.47567787766456604,-3.6601457595825195
1403715887499058000,-0.0030968785285949707,0.020216593518853188,0.07261903584003448,9.051375389099121,0.4100521206855774,-3.6438088417053223
1403715887504058000,-0.002407848834991455,0.01953929476439953,0.07613970339298248,9.084066390991211,0.4348587393760681,-3.676361083984375
1403715887509058000,-0.002355024218559265,0.020202716812491417,0.07686091959476471,9.075915336608887,0.4184257686138153,-3.643721580505371
1403715887514058000,-0.0030683279037475586,0.01951526664197445,0.07959473878145218,9.075706481933594,0.3775599002838135,-3.643717050552368
1403715887519058000,-0.00240519642829895,0.01812124066054821,0.07891319692134857,9.092208862304688,0.41845452785491943,-3.6110732555389404
1403715887524058000,-0.0009965002536773682,0.016015363857150078,0.07821974158287048,9.076009750366211,0.4672482907772064,-3.643796443939209
1403715887529058000,-0.0023704171180725098,0.024402523413300514,0.07681296765804291,9.108407974243164,0.40185075998306274,-3.6845643520355225
1403715887534058000,-0.002384573221206665,0.02093164436519146,0.07614253461360931,9.059431076049805,0.37786877155303955,-3.708979845046997
1403715887539058000,-0.0037918388843536377,0.019544070586562157,0.07753409445285797,9.059765815734863,0.41859838366508484,-3.6518795490264893
1403715887544058000,-0.0037865638732910156,0.0230106208473444,0.07820525765419006,9.075897216796875,0.3937850892543793,-3.651845693588257
1403715887549058000,-0.005871951580047607,0.022275375202298164,0.07821585237979889,9.07596206665039,0.42647361755371094,-3.6519782543182373
1403715887554058000,-0.0009920448064804077,0.019511306658387184,0.07752406597137451,9.084037780761719,0.42669516801834106,-3.6274654865264893
1403715887559058000,-0.0030785948038101196,0.01884862594306469,0.07471242547035217,9.116663932800293,0.41027122735977173,-3.6355152130126953
1403715887564058000,-0.00238945335149765,0.016013910993933678,0.07821542024612427,9.11673355102539,0.41857558488845825,-3.6600427627563477
1403715887569058000,-0.0009700506925582886,0.021574093028903008,0.0803334042429924,9.059515953063965,0.41028568148612976,-3.6274659633636475
1403715887574058000,0.001799061894416809,0.019537245854735374,0.08031793683767319,9.051349639892578,0.4182058274745941,-3.6355791091918945
1403715887579058000,-0.0009752511978149414,0.02094287984073162,0.0768308937549591,9.108658790588379,0.42656680941581726,-3.651829957962036
1403715887584058000,-0.003082089126110077,0.019498830661177635,0.07541701942682266,9.075961112976074,0.44283682107925415,-3.635601282119751
1403715887589058000,-0.003091283142566681,0.022291770204901695,0.07610943168401718,9.108514785766602,0.36935368180274963,-3.62732195854187
1403715887594058000,-0.004501111805438995,0.020922450348734856,0.07891805469989777,9.10856819152832,0.42676979303359985,-3.676370620727539
1403715887599058000,-0.002365007996559143,0.02163737826049328,0.07963068783283234,9.067706108093262,0.3939989507198334,-3.6356964111328125
1403715887604058000,-0.0016847550868988037,0.020922532305121422,0.07474379241466522,9.083856582641602,0.3447972536087036,-3.6682474613189697
1403715887609058000,0.00039155036211013794,0.018084289506077766,0.07614709436893463,9.043441772460938,0.4592979848384857,-3.6437489986419678
1403715887614058000,-0.00027946382761001587,0.021615440025925636,0.07611814141273499,9.067852973937988,0.4428517818450928,-3.6029231548309326
1403715887619058000,-0.002384200692176819,0.020929129794239998,0.07609206438064575,9.05942153930664,0.37756186723709106,-3.635589361190796
1403715887624058000,-0.0016932561993598938,0.0195023100823164,0.08172451704740524,9.08418083190918,0.44308215379714966,-3.6438534259796143
1403715887629058000,-0.0030798688530921936,0.023726841434836388,0.08101858198642731,9.075920104980469,0.4427439272403717,-3.6275012493133545
1403715887634058000,-0.0009805411100387573,0.02231171540915966,0.0775345042347908,9.042892456054688,0.33680781722068787,-3.6682419776916504
1403715887639058000,-0.0002913922071456909,0.019521763548254967,0.0768701583147049,9.108537673950195,0.4350145757198334,-3.660003185272217
1403715887644058000,-0.000995919108390808,0.02160775475203991,0.07747945189476013,9.084211349487305,0.42618265748023987,-3.627375841140747
1403715887649058000,-0.005181670188903809,0.019506847485899925,0.07606768608093262,9.133094787597656,0.3936850428581238,-3.676323890686035
1403715887654058000,-0.005889281630516052,0.017398333176970482,0.07617023587226868,9.075946807861328,0.4024088382720947,-3.627454996109009
1403715887659058000,-0.004482530057430267,0.018841063603758812,0.07754398882389069,9.075916290283203,0.38571247458457947,-3.619296073913574
1403715887664058000,-0.0030776038765907288,0.022318953648209572,0.07542002201080322,9.132997512817383,0.41010627150535583,-3.6600067615509033
1403715887669058000,-0.00376853346824646,0.015319334343075752,0.0747479572892189,9.124994277954102,0.41849642992019653,-3.651918411254883
1403715887674058000,0.0010997951030731201,0.01952158845961094,0.07819610834121704,9.092080116271973,0.36112114787101746,-3.643712282180786
1403715887679058000,-0.000981546938419342,0.020226186141371727,0.07678655534982681,9.092144012451172,0.3858641982078552,-3.684403419494629
1403715887684058000,-0.0016791224479675293,0.018109431490302086,0.07616938650608063,9.100595474243164,0.42686039209365845,-3.6763086318969727
1403715887689058000,-0.0030787810683250427,0.021639632061123848,0.07757367938756943,9.05135440826416,0.3694285750389099,-3.6437575817108154
1403715887694058000,-0.00380513072013855,0.024420900270342827,0.07819199562072754,9.100348472595215,0.3856745660305023,-3.651836633682251
1403715887699058000,-0.0030848905444145203,0.021609684452414513,0.07680380344390869,9.067824363708496,0.42663490772247314,-3.6519460678100586
1403715887704058000,-0.0016745328903198242,0.02160627208650112,0.07542551308870316,9.067687034606934,0.4103165566921234,-3.6519768238067627
1403715887709058000,0.0004033967852592468,0.019515475258231163,0.07959403097629547,9.084123611450195,0.4509039521217346,-3.643747568130493
1403715887714058000,0.00040121376514434814,0.019491741433739662,0.07475149631500244,9.075881004333496,0.4100923240184784,-3.594698190689087
1403715887719058000,-0.004473552107810974,0.019522039219737053,0.07686594873666763,9.07567310333252,0.3694775700569153,-3.635579824447632
1403715887724058000,-0.0038080811500549316,0.016754670068621635,0.08030480146408081,9.0677490234375,0.41048121452331543,-3.643828868865967
1403715887729058000,-0.003783702850341797,0.020908212289214134,0.08095607161521912,9.043286323547363,0.4181418716907501,-3.6356165409088135
1403715887734058000,-0.004465445876121521,0.025108596310019493,0.07893431186676025,9.10030460357666,0.39384225010871887,-3.6600077152252197
1403715887739058000,-0.0030715912580490112,0.02162008546292782,0.07475456595420837,9.116754531860352,0.4350655972957611,-3.676356315612793
1403715887744058000,-0.00170135498046875,0.023010974749922752,0.0768047571182251,9.051403999328613,0.3939409852027893,-3.6356050968170166
1403715887749058000,-0.001701071858406067,0.01950703002512455,0.07684104889631271,9.067652702331543,0.41002529859542847,-3.6518759727478027
1403715887754058000,-0.0009749382734298706,0.02228097803890705,0.07892310619354248,9.108651161193848,0.42680707573890686,-3.668203830718994
1403715887759058000,-0.0009757503867149353,0.02232336811721325,0.07750063389539719,9.075864791870117,0.41038039326667786,-3.619314193725586
1403715887764058000,-0.002402201294898987,0.017457718029618263,0.07543395459651947,9.051359176635742,0.3854421079158783,-3.6274282932281494
1403715887769058000,-0.0030844956636428833,0.01599934510886669,0.07893607020378113,9.084087371826172,0.37750157713890076,-3.643747091293335
1403715887774058000,-0.00029627978801727295,0.015985405072569847,0.08030378818511963,9.043244361877441,0.41858091950416565,-3.619373321533203
1403715887779058000,-0.00029234588146209717,0.021614661440253258,0.0796082615852356,9.05137825012207,0.4103110134601593,-3.6029181480407715
1403715887784058000,-0.0009739771485328674,0.016756540164351463,0.07684466987848282,9.059576034545898,0.4263744652271271,-3.627272605895996
1403715887789058000,-0.003792703151702881,0.02093479596078396,0.07961426675319672,9.05148696899414,0.45899027585983276,-3.6193385124206543
1403715887794058000,-0.0024130642414093018,0.02230031229555607,0.07891127467155457,9.051321983337402,0.4347972571849823,-3.643791913986206
1403715887799058000,-0.0037711262702941895,0.021589187905192375,0.07892261445522308,9.084297180175781,0.48397108912467957,-3.6682512760162354
1403715887804058000,-0.0030640512704849243,0.021640880033373833,0.07611291855573654,9.092278480529785,0.4345853924751282,-3.6110997200012207
1403715887809058000,-0.0016825050115585327,0.020899323746562004,0.07749251276254654,9.100312232971191,0.42629751563072205,-3.6437699794769287
1403715887814058000,-0.001699209213256836,0.02018945850431919,0.07825081050395966,9.108617782592773,0.43496236205101013,-3.6355557441711426
1403715887819058000,-0.0030777007341384888,0.019512472674250603,0.07825090736150742,9.07590103149414,0.41846615076065063,-3.6519575119018555
1403715887824058000,-0.003779597580432892,0.02512720786035061,0.07820559293031693,9.100273132324219,0.38584208488464355,-3.643794536590576
1403715887829058000,-0.003081798553466797,0.018134115263819695,0.07749452441930771,9.116890907287598,0.4511108100414276,-3.6845192909240723
1403715887834058000,-0.0016829222440719604,0.02088470570743084,0.07333299517631531,9.051438331604004,0.39377573132514954,-3.668200731277466
1403715887839058000,-0.0030728429555892944,0.024415666237473488,0.07824674248695374,9.06755542755127,0.36960339546203613,-3.660041570663452
1403715887844058000,-0.0010013282299041748,0.02301125042140484,0.07683666050434113,9.12498950958252,0.40236011147499084,-3.6435959339141846
1403715887849058000,0.0004046410322189331,0.018136052414774895,0.07611154019832611,9.059575080871582,0.40194204449653625,-3.611034631729126
1403715887854058000,-0.0016776323318481445,0.01949443481862545,0.07335801422595978,9.06760025024414,0.3775293827056885,-3.6681883335113525
1403715887859058000,-0.004483014345169067,0.018791353330016136,0.07681304216384888,9.067641258239746,0.35315120220184326,-3.619239091873169
1403715887864058000,-0.0031024515628814697,0.01952330209314823,0.07751475274562836,9.026843070983887,0.3695330023765564,-3.6029212474823
1403715887869058000,-0.0016991347074508667,0.02096429653465748,0.07755216956138611,9.05127239227295,0.32873159646987915,-3.6518731117248535
1403715887874058000,0.0025199800729751587,0.020224789157509804,0.08100922405719757,9.084083557128906,0.4021699130535126,-3.643673896789551
1403715887879058000,-0.000978611409664154,0.01879253424704075,0.08308608084917068,9.043286323547363,0.41805610060691833,-3.651926279067993
1403715887884058000,-0.0024208873510360718,0.01882403902709484,0.076836958527565,9.083855628967285,0.3203139901161194,-3.659944534301758
1403715887889058000,-0.004499465227127075,0.01673424430191517,0.07753068208694458,9.092310905456543,0.39423808455467224,-3.6356115341186523
1403715887894058000,-0.002385266125202179,0.01812789775431156,0.0768003836274147,9.059612274169922,0.37748652696609497,-3.6111767292022705
1403715887899058000,-0.0016631856560707092,0.020217163488268852,0.07958924770355225,9.10018253326416,0.35280561447143555,-3.6355020999908447
1403715887904058000,0.0004131793975830078,0.01673026941716671,0.07685893774032593,9.124979019165039,0.4186859130859375,-3.6356189250946045
1403715887909058000,-0.0017025470733642578,0.018821178004145622,0.07543408870697021,9.08416748046875,0.4183063805103302,-3.6438093185424805
1403715887914058000,-0.0038127079606056213,0.021599100902676582,0.0768156424164772,9.059435844421387,0.36943763494491577,-3.6518540382385254
1403715887919058000,-0.005867525935173035,0.016014987602829933,0.07543022185564041,9.092344284057617,0.4023261070251465,-3.6519150733947754
1403715887924058000,-0.0016935616731643677,0.018147489055991173,0.07890839874744415,9.059591293334961,0.3775562644004822,-3.619276762008667
1403715887929058000,-0.0009803473949432373,0.019542137160897255,0.08031881600618362,9.083959579467773,0.36928343772888184,-3.6355557441711426
1403715887934058000,-0.001694217324256897,0.019504105672240257,0.07753690332174301,9.035157203674316,0.4183473587036133,-3.619243860244751
1403715887939058000,-0.005891494452953339,0.01812811754643917,0.0747465118765831,9.075923919677734,0.41015586256980896,-3.6192739009857178
1403715887944058000,-0.0031113624572753906,0.018140317872166634,0.0775168389081955,9.108541488647461,0.41026633977890015,-3.635531187057495
1403715887949058000,-0.0023667365312576294,0.01948724500834942,0.07957933843135834,9.07597827911377,0.40221211314201355,-3.619248390197754
1403715887954058000,0.001839466392993927,0.022296955808997154,0.0768154114484787,9.10029411315918,0.41834136843681335,-3.619168996810913
1403715887959058000,-0.0016865581274032593,0.020953470841050148,0.07475709915161133,9.067712783813477,0.4183265268802643,-3.6681535243988037
1403715887964058000,-0.0017369985580444336,0.01812628097832203,0.07543694972991943,9.08410930633545,0.3940284550189972,-3.676302909851074
1403715887969058000,0.00042523443698883057,0.0243851151317358,0.07612919807434082,9.100458145141602,0.45115795731544495,-3.619218349456787
1403715887974058000,-0.003760412335395813,0.021612687036395073,0.07752078771591187,9.067827224731445,0.4263373911380768,-3.6355481147766113
1403715887979058000,-0.0002714395523071289,0.019517352804541588,0.07260575145483017,9.075789451599121,0.39386555552482605,-3.6518664360046387
1403715887984058000,-0.0003102421760559082,0.02162526361644268,0.07403144985437393,9.075854301452637,0.43504616618156433,-3.6519131660461426
1403715887989058000,-0.005219519138336182,0.019485441967844963,0.07686688005924225,9.108670234680176,0.41012629866600037,-3.651841163635254
1403715887994058000,-0.00027792155742645264,0.018795205280184746,0.08030831813812256,9.092304229736328,0.4591969847679138,-3.6355268955230713
1403715887999058000,-0.00025326013565063477,0.023036537691950798,0.07960707694292068,9.075896263122559,0.4510110020637512,-3.6192195415496826
1403715888004058000,-0.0016995221376419067,0.021626567468047142,0.07751031219959259,9.100284576416016,0.38582178950309753,-3.6436424255371094
1403715888009058000,-0.004484355449676514,0.01808694191277027,0.07819730043411255,9.08411979675293,0.4105670750141144,-3.6437489986419678
1403715888014058000,-0.005200803279876709,0.01602272130548954,0.07544400542974472,9.051542282104492,0.4347030818462372,-3.627476215362549
1403715888019058000,-0.003118768334388733,0.021604763343930244,0.07824642211198807,9.083985328674316,0.3938042223453522,-3.6518166065216064
1403715888024058000,-0.005133122205734253,0.02020975761115551,0.07471392303705215,9.084022521972656,0.4184974730014801,-3.6599955558776855
1403715888029058000,-0.0009627640247344971,0.021647756919264793,0.07818922400474548,9.084087371826172,0.39401304721832275,-3.6355490684509277
1403715888034058000,-0.0038289427757263184,0.021632982417941093,0.07963736355304718,9.08403205871582,0.3858948051929474,-3.6763741970062256
1403715888039058000,-0.002395153045654297,0.020183710381388664,0.0775219202041626,9.116867065429688,0.4675258994102478,-3.6763389110565186
1403715888044058000,-0.0030662119388580322,0.019498376175761223,0.07682141661643982,9.067850112915039,0.4672566056251526,-3.6682686805725098
1403715888049058000,-0.003084719181060791,0.018819192424416542,0.07891857624053955,9.067740440368652,0.40199875831604004,-3.66013240814209
1403715888054058000,-0.0009613335132598877,0.02092943899333477,0.07540645450353622,9.075797080993652,0.38588565587997437,-3.6274025440216064
1403715888059058000,0.0011106431484222412,0.02302086167037487,0.07476146519184113,9.059453010559082,0.3858562409877777,-3.6274027824401855
1403715888064058000,-0.00029893964529037476,0.020224271342158318,0.0775541439652443,9.0757417678833,0.3776130676269531,-3.635556697845459
1403715888069058000,-0.004501521587371826,0.020913006737828255,0.07538261264562607,9.067709922790527,0.41849198937416077,-3.643749952316284
1403715888074058000,-0.00656341016292572,0.024379564449191093,0.07682698220014572,9.09227466583252,0.4346510171890259,-3.660080909729004
1403715888079058000,-0.003096640110015869,0.021608581766486168,0.07825018465518951,9.09217643737793,0.39384567737579346,-3.651876926422119
1403715888084058000,-0.0023704469203948975,0.023025458678603172,0.07888290286064148,9.10866928100586,0.4350912272930145,-3.65189528465271
1403715888089058000,-0.0037748366594314575,0.023038143292069435,0.07894435524940491,9.075932502746582,0.40216919779777527,-3.627346992492676
1403715888094058000,-0.004505380988121033,0.020888952538371086,0.07684888690710068,9.06775951385498,0.4262477159500122,-3.651947021484375
1403715888099058000,0.00039930641651153564,0.019491394981741905,0.07678009569644928,9.051447868347168,0.43470877408981323,-3.6683499813079834
1403715888104058000,0.0004407912492752075,0.018136678263545036,0.07961930334568024,9.084010124206543,0.385777086019516,-3.6274356842041016
1403715888109058000,-0.0030638575553894043,0.02091032825410366,0.07962088286876678,9.116666793823242,0.3859784007072449,-3.619229316711426
1403715888114058000,-0.0003058314323425293,0.01740955375134945,0.07541456818580627,9.124857902526855,0.38585054874420166,-3.6436822414398193
1403715888119058000,-0.004513949155807495,0.019532306119799614,0.07615773379802704,9.067612648010254,0.37736350297927856,-3.6192643642425537
1403715888124058000,-0.002370201051235199,0.01882087253034115,0.07961905747652054,9.043142318725586,0.3692794144153595,-3.61928129196167
1403715888129058000,-0.0002574920654296875,0.017411792650818825,0.07889080047607422,9.100455284118652,0.3858359456062317,-3.6354775428771973
1403715888134058000,0.0017816945910453796,0.018125256523489952,0.0768442302942276,9.09243106842041,0.45928460359573364,-3.6355862617492676
1403715888139058000,-0.004501089453697205,0.022316334769129753,0.07683153450489044,9.059647560119629,0.4100591242313385,-3.6437971591949463
1403715888144058000,-0.002387121319770813,0.020233510062098503,0.07889319956302643,9.083983421325684,0.38569363951683044,-3.6518425941467285
1403715888149058000,-0.003089115023612976,0.022313548251986504,0.07823514938354492,9.100424766540527,0.41048216819763184,-3.6600394248962402
1403715888154058000,-0.004494369029998779,0.02232532389461994,0.0754430964589119,9.083938598632812,0.3450523614883423,-3.6763718128204346
1403715888159058000,-0.0030287355184555054,0.020903674885630608,0.07680774480104446,9.100440979003906,0.4348404109477997,-3.635591983795166
1403715888164058000,-0.004518285393714905,0.01950976438820362,0.07681802660226822,9.076038360595703,0.44257205724716187,-3.6438040733337402
1403715888169058000,-0.0017106682062149048,0.020923977717757225,0.07823294401168823,9.11674690246582,0.4264039099216461,-3.643794059753418
1403715888174058000,-0.003756299614906311,0.020909419283270836,0.07893607020378113,9.108539581298828,0.37789255380630493,-3.635577440261841
1403715888179058000,0.00042395293712615967,0.01812559925019741,0.07540693134069443,9.043233871459961,0.4102940857410431,-3.6355628967285156
1403715888184058000,-0.002392873167991638,0.01882137916982174,0.07750917971134186,9.08393383026123,0.3855787217617035,-3.651848554611206
1403715888189058000,-0.00588873028755188,0.020909307524561882,0.07963460683822632,9.092203140258789,0.4184105098247528,-3.6519224643707275
1403715888194058000,-0.0009928569197654724,0.021606726571917534,0.07751818001270294,9.067822456359863,0.44280409812927246,-3.635542392730713
1403715888199058000,-0.004498094320297241,0.023732012137770653,0.07963034510612488,9.092212677001953,0.3939066529273987,-3.643660068511963
1403715888204058000,-0.003756508231163025,0.020223645493388176,0.08100362122058868,9.108664512634277,0.47592970728874207,-3.660086154937744
1403715888209058000,-0.005163498222827911,0.018100490793585777,0.07608035206794739,9.084343910217285,0.5083056092262268,-3.6438188552856445
1403715888214058000,-0.0024180039763450623,0.019485315307974815,0.07964863628149033,9.067678451538086,0.426202654838562,-3.611095905303955
1403715888219058000,-0.001687273383140564,0.017422890290617943,0.07683281600475311,9.083959579467773,0.393794447183609,-3.643744945526123
1403715888224058000,-0.0037468820810317993,0.020936092361807823,0.07676783949136734,9.075937271118164,0.4431896209716797,-3.6682960987091064
1403715888229058000,-0.0016868263483047485,0.024421868845820427,0.07687868922948837,9.059467315673828,0.4102057218551636,-3.643723726272583
1403715888234058000,-0.004506409168243408,0.02230665646493435,0.07683514058589935,9.092150688171387,0.3775949478149414,-3.643686056137085
1403715888239058000,-0.003765888512134552,0.018807364627718925,0.07957690954208374,9.067817687988281,0.44281578063964844,-3.6437876224517822
1403715888244058000,-0.0037902146577835083,0.01950024999678135,0.07615777850151062,9.035054206848145,0.40200403332710266,-3.6764440536499023
1403715888249058000,-0.0037956461310386658,0.019498469308018684,0.07611749321222305,9.05130386352539,0.3695510923862457,-3.6763718128204346
1403715888254058000,-0.004474125802516937,0.01953057013452053,0.07542248070240021,9.051493644714355,0.4186283051967621,-3.643733263015747
1403715888259058000,-0.0037880614399909973,0.02166878990828991,0.07754695415496826,9.035043716430664,0.3691302537918091,-3.6192383766174316
1403715888264058000,-0.005891129374504089,0.018111472949385643,0.08101116120815277,9.092230796813965,0.38587331771850586,-3.6274161338806152
1403715888269058000,-0.0037907585501670837,0.022268572822213173,0.07751200348138809,9.084202766418457,0.4920566976070404,-3.6193320751190186
1403715888274058000,0.00044773519039154053,0.0188176017254591,0.07681654393672943,9.09218978881836,0.4427257478237152,-3.651944160461426
1403715888279058000,-0.0023916959762573242,0.01951521448791027,0.07752389460802078,9.092045783996582,0.3777930438518524,-3.6681954860687256
1403715888284058000,-0.0023868903517723083,0.01883457414805889,0.07890905439853668,9.075875282287598,0.4023168385028839,-3.6436920166015625
1403715888289058000,0.0004213005304336548,0.019521696493029594,0.07613559067249298,9.084113121032715,0.3934951424598694,-3.651808738708496
1403715888294058000,-0.0009975731372833252,0.019522828981280327,0.07823731005191803,9.124916076660156,0.39376455545425415,-3.6600234508514404
1403715888299058000,-0.0023677796125411987,0.01742778904736042,0.07890470325946808,9.075969696044922,0.41873717308044434,-3.676464080810547
1403715888304058000,-0.005171790719032288,0.020906588062644005,0.07820756733417511,9.067822456359863,0.426449179649353,-3.6437950134277344
1403715888309058000,-0.0038326382637023926,0.018797604367136955,0.0768485888838768,9.083995819091797,0.3692208528518677,-3.6436705589294434
1403715888314058000,-0.0030861645936965942,0.0174305010586977,0.07959769666194916,9.059623718261719,0.4267164170742035,-3.6112465858459473
1403715888319058000,-0.0002495422959327698,0.021631652489304543,0.07540731132030487,9.051298141479492,0.38592779636383057,-3.6192948818206787
1403715888324058000,-0.0030956491827964783,0.01951546035706997,0.07756349444389343,9.092081069946289,0.34490758180618286,-3.643690824508667
1403715888329058000,0.0017755478620529175,0.01952955313026905,0.0775485634803772,9.083970069885254,0.3776992857456207,-3.6518218517303467
1403715888334058000,-0.003064274787902832,0.026513734832406044,0.0774831473827362,9.084214210510254,0.4592762291431427,-3.6437106132507324
1403715888339058000,-0.004490986466407776,0.02301776222884655,0.0775301605463028,9.05142593383789,0.40206244587898254,-3.627394437789917
1403715888344058000,-0.0037619397044181824,0.022984778508543968,0.07682628929615021,9.083975791931152,0.39413344860076904,-3.627465009689331
1403715888349058000,-0.005203083157539368,0.019519982859492302,0.07750092446804047,9.100422859191895,0.40194642543792725,-3.6274402141571045
1403715888354058000,-0.005191147327423096,0.020902125164866447,0.08035027980804443,9.084125518798828,0.3690892159938812,-3.6273980140686035
1403715888359058000,-0.004479929804801941,0.020202582702040672,0.08032063394784927,9.051389694213867,0.4266963303089142,-3.6438100337982178
1403715888364058000,-0.003794372081756592,0.018155233934521675,0.07888506352901459,9.076037406921387,0.45911237597465515,-3.6520187854766846
1403715888369058000,-0.0037985146045684814,0.017434971407055855,0.07613648474216461,9.07585620880127,0.37731048464775085,-3.6764445304870605
1403715888374058000,-0.00025162845849990845,0.017383670434355736,0.07611788809299469,9.11671257019043,0.40224161744117737,-3.684528350830078
1403715888379058000,0.0018119364976882935,0.018121911212801933,0.07820852845907211,9.043397903442383,0.4757238030433655,-3.6274032592773438
1403715888384058000,-0.002391226589679718,0.01952534355223179,0.07824009656906128,9.059525489807129,0.4018343389034271,-3.6192002296447754
1403715888389058000,-0.007268145680427551,0.019538545981049538,0.07822126150131226,9.10854721069336,0.4512009620666504,-3.6763973236083984
1403715888394058000,-0.0045010000467300415,0.017426112666726112,0.07751993834972382,9.051534652709961,0.43454214930534363,-3.6438777446746826
1403715888399058000,-0.002376541495323181,0.020890692248940468,0.0782194584608078,9.075759887695312,0.37761715054512024,-3.660113573074341
1403715888404058000,-0.0016650110483169556,0.020235909149050713,0.08030775934457779,9.132938385009766,0.3944033980369568,-3.6680660247802734
1403715888409058000,-0.0016942471265792847,0.02022130973637104,0.07751665264368057,9.059540748596191,0.39408642053604126,-3.643669605255127
1403715888414058000,-0.0038291066884994507,0.02021011896431446,0.07961910963058472,9.010445594787598,0.34450292587280273,-3.611119508743286
1403715888419058000,-0.003086276352405548,0.0216058399528265,0.07544653117656708,9.043115615844727,0.3776066303253174,-3.6355254650115967
1403715888424058000,-0.0009570270776748657,0.01812823675572872,0.07682551443576813,9.075883865356445,0.39402371644973755,-3.651884078979492
1403715888429058000,-0.0030838996171951294,0.024414485320448875,0.07682549953460693,9.108622550964355,0.42673274874687195,-3.6600823402404785
1403715888434058000,-0.0010033249855041504,0.023721439763903618,0.07680049538612366,9.084056854248047,0.38580790162086487,-3.659937620162964
1403715888439058000,0.00041522085666656494,0.01951097883284092,0.08100874722003937,9.03509521484375,0.43462538719177246,-3.651951551437378
1403715888444058000,0.00040152668952941895,0.020916281268000603,0.07894059270620346,9.067668914794922,0.40199023485183716,-3.619255304336548
1403715888449058000,-0.002366788685321808,0.022990936413407326,0.07612784951925278,9.09218692779541,0.3941083252429962,-3.6355161666870117
1403715888454058000,-0.0037811696529388428,0.019500216469168663,0.07683467864990234,9.10871410369873,0.4512312114238739,-3.6355836391448975
1403715888459058000,-0.0017186850309371948,0.02442512847483158,0.07959295064210892,9.051441192626953,0.4588235914707184,-3.6357295513153076
1403715888464058000,-0.0030885040760040283,0.018830610439181328,0.07400675863027573,9.051312446594238,0.3937806189060211,-3.643836736679077
1403715888469058000,-0.0023602768778800964,0.02228090725839138,0.07407240569591522,9.092315673828125,0.4513871669769287,-3.643735408782959
1403715888474058000,-0.0023990869522094727,0.01882198639214039,0.07614655792713165,9.05952262878418,0.37761321663856506,-3.6600353717803955
1403715888479058000,0.0004060417413711548,0.016726097092032433,0.07539413869380951,9.141133308410645,0.36929306387901306,-3.6844301223754883
1403715888484058000,-0.0030641108751296997,0.015314653515815735,0.0747542530298233,9.141298294067383,0.40206587314605713,-3.627235174179077
1403715888489058000,-0.0030888840556144714,0.020914537832140923,0.07543366402387619,9.035114288330078,0.4018687307834625,-3.6355903148651123
1403715888494058000,-0.00029784440994262695,0.017430579289793968,0.07609334588050842,9.043097496032715,0.3288702666759491,-3.635596990585327
1403715888499058000,-0.002393007278442383,0.017436673864722252,0.07895905524492264,9.084025382995605,0.36978110671043396,-3.643744945526123
1403715888504058000,-0.0016668587923049927,0.023024214431643486,0.07964375615119934,9.075859069824219,0.3858180642127991,-3.63555645942688
1403715888509058000,-0.0003050863742828369,0.022987211123108864,0.0816725417971611,9.075822830200195,0.3611326813697815,-3.6681485176086426
1403715888514058000,0.0017777085304260254,0.023719092831015587,0.0796118900179863,9.108503341674805,0.3859848976135254,-3.643639326095581
1403715888519058000,0.0004186779260635376,0.02446107380092144,0.07891266793012619,9.067756652832031,0.4429061710834503,-3.6274077892303467
1403715888524058000,0.003928422927856445,0.023670265451073647,0.0789189487695694,9.067594528198242,0.37747249007225037,-3.62736439704895
1403715888529058000,-0.0024035274982452393,0.02438526414334774,0.07962425798177719,9.092225074768066,0.43485429883003235,-3.6601433753967285
1403715888534058000,-0.0003166124224662781,0.018136901780962944,0.07821177691221237,9.092402458190918,0.43463078141212463,-3.6519176959991455
1403715888539058000,-0.0030617564916610718,0.02161608822643757,0.07891165465116501,9.026863098144531,0.3771946132183075,-3.6193060874938965
1403715888544058000,-0.0038122236728668213,0.018089396879076958,0.07961598038673401,9.067788124084473,0.4022703170776367,-3.627467632293701
1403715888549058000,-0.003080621361732483,0.01952553726732731,0.07961153239011765,9.100393295288086,0.3774954378604889,-3.6437411308288574
1403715888554058000,-0.0023957565426826477,0.020237049087882042,0.07892212271690369,9.067619323730469,0.4265514016151428,-3.6519434452056885
1403715888559058000,-0.003796905279159546,0.018826251849532127,0.07891292870044708,9.11679744720459,0.4185182750225067,-3.6845293045043945
1403715888564058000,-0.005174353718757629,0.01670616678893566,0.07542245835065842,9.076132774353027,0.500040590763092,-3.643784761428833
1403715888569058000,-0.00026188790798187256,0.020196644589304924,0.07405498623847961,9.067641258239746,0.3773804306983948,-3.602896213531494
1403715888574058000,-0.003102213144302368,0.018841443583369255,0.07054565846920013,9.092061996459961,0.3452489972114563,-3.668125867843628
1403715888579058000,-0.005175739526748657,0.016031188890337944,0.07261838018894196,9.108736991882324,0.4268571734428406,-3.676377058029175
1403715888584058000,-0.005175918340682983,0.020915014669299126,0.07684129476547241,9.059599876403809,0.40997710824012756,-3.6356348991394043
1403715888589058000,-0.0017127394676208496,0.01741981692612171,0.07543203979730606,9.051290512084961,0.3773921728134155,-3.6517879962921143
1403715888594058000,-0.0009672939777374268,0.016710853204131126,0.07474073767662048,9.092205047607422,0.3778859078884125,-3.6517720222473145
1403715888599058000,-0.0002635568380355835,0.025142693892121315,0.07754553854465485,9.092225074768066,0.4349178969860077,-3.6600921154022217
1403715888604058000,-0.0045084357261657715,0.023009462282061577,0.08029064536094666,9.084012985229492,0.37756675481796265,-3.6600229740142822
1403715888609058000,-0.006623871624469757,0.022319873794913292,0.07960222661495209,9.092158317565918,0.37753742933273315,-3.6599624156951904
1403715888614058000,-0.002359747886657715,0.0188289862126112,0.08032795041799545,9.084135055541992,0.40194618701934814,-3.6519014835357666
1403715888619058000,-0.004465699195861816,0.021581655368208885,0.07959561794996262,9.100478172302246,0.3857932984828949,-3.643735885620117
1403715888624058000,-0.0030850395560264587,0.022284677252173424,0.0789061039686203,9.141173362731934,0.38597291707992554,-3.659952402114868
1403715888629058000,-0.0037864074110984802,0.02095695026218891,0.07963116466999054,9.092301368713379,0.4429931342601776,-3.635662794113159
1403715888634058000,-0.0024131610989570618,0.022329607978463173,0.08028819411993027,9.059478759765625,0.3774641752243042,-3.627378463745117
1403715888639058000,-0.001670151948928833,0.020881762728095055,0.08029294013977051,9.100330352783203,0.3861095905303955,-3.6681110858917236
1403715888644058000,-0.00025810301303863525,0.01950771175324917,0.07615023851394653,9.06782054901123,0.43470248579978943,-3.6682276725769043
1403715888649058000,-0.0009990185499191284,0.023013150319457054,0.07543850690126419,9.059646606445312,0.45906317234039307,-3.6438698768615723
1403715888654058000,-0.0017119497060775757,0.019536523148417473,0.07472831755876541,9.083980560302734,0.37765637040138245,-3.643636703491211
1403715888659058000,-0.0016748681664466858,0.019521230831742287,0.07680953294038773,9.059592247009277,0.43494686484336853,-3.6437084674835205
1403715888664058000,-0.0016946643590927124,0.019499419257044792,0.07472751289606094,9.051445960998535,0.4098767936229706,-3.611123561859131
1403715888669058000,-0.004472501575946808,0.020921649411320686,0.07614369690418243,9.100354194641113,0.40208134055137634,-3.635584831237793
1403715888674058000,-0.007282711565494537,0.017409665510058403,0.0733623281121254,9.059486389160156,0.40248146653175354,-3.6437904834747314
1403715888679058000,-0.004503622651100159,0.01951534114778042,0.07752595096826553,9.06779956817627,0.4345354437828064,-3.652017831802368
1403715888684058000,-0.0030884146690368652,0.023714466020464897,0.07611755281686783,9.124884605407715,0.38552334904670715,-3.6680967807769775
1403715888689058000,-0.001667805016040802,0.018826400861144066,0.07959955930709839,9.067708015441895,0.38593393564224243,-3.6681621074676514
1403715888694058000,-0.00027145445346832275,0.01953270100057125,0.07963451743125916,9.0186767578125,0.39429253339767456,-3.6438372135162354
1403715888699058000,0.0024963021278381348,0.020206330344080925,0.07892046868801117,9.0758638381958,0.41003596782684326,-3.6273810863494873
1403715888704058000,-0.0009986162185668945,0.020891321823000908,0.0789235308766365,9.051362991333008,0.41825270652770996,-3.6192140579223633
1403715888709058000,-0.0016797035932540894,0.021635832265019417,0.07891328632831573,9.08403491973877,0.43464794754981995,-3.6601505279541016
1403715888714058000,-0.0037815868854522705,0.018135054036974907,0.07609421759843826,9.075947761535645,0.4021761119365692,-3.643826723098755
1403715888719058000,-0.0024009346961975098,0.02369300089776516,0.07962213456630707,9.0758056640625,0.40230411291122437,-3.6600494384765625
1403715888724058000,-0.003069773316383362,0.02438552863895893,0.08243274688720703,9.067695617675781,0.43485313653945923,-3.6355509757995605
1403715888729058000,-0.003100387752056122,0.018842829391360283,0.07541494071483612,9.043402671813965,0.4261060655117035,-3.6274361610412598
1403715888734058000,0.0003908872604370117,0.018827037885785103,0.07893103361129761,9.100330352783203,0.3776588439941406,-3.676358222961426
1403715888739058000,-0.0002843588590621948,0.01879674382507801,0.07680986076593399,9.092109680175781,0.3859962821006775,-3.651862382888794
1403715888744058000,-0.0016678422689437866,0.02089218981564045,0.07677721977233887,9.051568984985352,0.4347648620605469,-3.643770694732666
1403715888749058000,-0.0002919882535934448,0.016748694702982903,0.07688988000154495,9.067697525024414,0.38535892963409424,-3.6355350017547607
1403715888754058000,-0.0009918659925460815,0.017454100772738457,0.07683233916759491,9.067720413208008,0.4430427849292755,-3.6519007682800293
1403715888759058000,-0.0016841217875480652,0.020176323130726814,0.07469246536493301,9.084066390991211,0.4021700620651245,-3.6437761783599854
1403715888764058000,-0.0037624910473823547,0.020192725583910942,0.07128100842237473,9.108500480651855,0.39396193623542786,-3.6436567306518555
1403715888769058000,-0.0016960203647613525,0.020963924005627632,0.07471589744091034,9.133146286010742,0.4429740905761719,-3.6436407566070557
1403715888774058000,-0.003804624080657959,0.019526300951838493,0.07749376446008682,9.03510570526123,0.4020293653011322,-3.6519675254821777
1403715888779058000,-0.005175277590751648,0.020183390006422997,0.07686548680067062,9.075823783874512,0.37758347392082214,-3.6193089485168457
1403715888784058000,0.00041288137435913086,0.02370009385049343,0.08034021407365799,9.100378036499023,0.41859662532806396,-3.619213104248047
1403715888789058000,-0.0023953020572662354,0.021648237481713295,0.07959766685962677,9.07602596282959,0.45092445611953735,-3.619267702102661
1403715888794058000,-0.0009848624467849731,0.0230142530053854,0.08030141890048981,9.07575798034668,0.38572415709495544,-3.643706798553467
1403715888799058000,-0.00027996301651000977,0.01738659106194973,0.0789196640253067,9.108452796936035,0.3614019751548767,-3.6599948406219482
1403715888804058000,-0.003808923065662384,0.019500283524394035,0.08098796010017395,9.051490783691406,0.40203139185905457,-3.619297504425049
1403715888809058000,-0.004477947950363159,0.018132111057639122,0.07821990549564362,9.075940132141113,0.3937148451805115,-3.627474546432495
1403715888814058000,-0.005161181092262268,0.021628363057971,0.07546112686395645,9.084046363830566,0.3939637541770935,-3.6273727416992188
1403715888819058000,-0.0017036795616149902,0.017441077157855034,0.07542645931243896,9.08415699005127,0.4430176615715027,-3.635586738586426
1403715888824058000,-0.0009864568710327148,0.020199818536639214,0.07539558410644531,9.03515625,0.4344669580459595,-3.619323492050171
1403715888829058000,-0.00306682288646698,0.017419887706637383,0.07682773470878601,9.026894569396973,0.39391782879829407,-3.62743878364563
1403715888834058000,-0.0038176029920578003,0.01950065605342388,0.07614137977361679,9.10046672821045,0.45935893058776855,-3.6356120109558105
1403715888839058000,-0.0016929209232330322,0.018833288922905922,0.07892346382141113,9.059558868408203,0.42650604248046875,-3.602968454360962
1403715888844058000,-0.0009531304240226746,0.020222166553139687,0.0768539160490036,9.067538261413574,0.3611729145050049,-3.602875232696533
1403715888849058000,-0.0030824318528175354,0.017423441633582115,0.07472974807024002,9.075834274291992,0.41840416193008423,-3.602917432785034
1403715888854058000,-0.0016905665397644043,0.019519833847880363,0.07680292427539825,9.067853927612305,0.4508139193058014,-3.6192691326141357
1403715888859058000,-0.001694798469543457,0.019505107775330544,0.07541678845882416,9.124785423278809,0.37769126892089844,-3.6355204582214355
1403715888864058000,-0.003081478178501129,0.018117113038897514,0.07753773033618927,9.100411415100098,0.39421939849853516,-3.651848077774048
1403715888869058000,-0.0009671002626419067,0.022316990420222282,0.07685557752847672,9.100486755371094,0.4181680977344513,-3.619205951690674
1403715888874058000,-0.0016969889402389526,0.02302720956504345,0.0789031982421875,9.059566497802734,0.40190020203590393,-3.627364158630371
1403715888879058000,-0.003804922103881836,0.020906416699290276,0.08030892163515091,9.084084510803223,0.3942580819129944,-3.6355302333831787
1403715888884058000,-0.002387121319770813,0.015330484136939049,0.07821203768253326,9.076013565063477,0.4185142517089844,-3.6438097953796387
1403715888889058000,-0.0016853809356689453,0.020881706848740578,0.0768081545829773,9.084151268005371,0.4263154864311218,-3.6601083278656006
1403715888894058000,-0.0009897276759147644,0.02231547422707081,0.07893932610750198,9.108412742614746,0.37775376439094543,-3.668163537979126
1403715888899058000,-0.0016682147979736328,0.023739872500300407,0.08310824632644653,9.100516319274902,0.4514200985431671,-3.643735885620117
1403715888904058000,0.0011021196842193604,0.022349117323756218,0.08029409497976303,9.059735298156738,0.4753749370574951,-3.6110999584198
1403715888909058000,-0.0010020360350608826,0.0194698479026556,0.07612423598766327,9.1084623336792,0.40189531445503235,-3.6681272983551025
1403715888914058000,-0.005170121788978577,0.0173774603754282,0.07681481540203094,9.116752624511719,0.4430098533630371,-3.6519172191619873
1403715888919058000,-0.0037840604782104492,0.018819870427250862,0.07680480927228928,9.076016426086426,0.4183356761932373,-3.651916265487671
1403715888924058000,0.001100793480873108,0.02025243081152439,0.07893794775009155,9.084035873413086,0.41845935583114624,-3.6681790351867676
1403715888929058000,-0.004471480846405029,0.01953315921127796,0.07684522122144699,9.124849319458008,0.3860222101211548,-3.6844663619995117
1403715888934058000,-0.0037882179021835327,0.02021184377372265,0.0754048302769661,9.01880931854248,0.48342055082321167,-3.627561569213867
1403715888939058000,-0.0024020373821258545,0.019497865810990334,0.07822853326797485,9.018685340881348,0.3936706781387329,-3.6355576515197754
1403715888944058000,-0.007996141910552979,0.022997481748461723,0.07682590931653976,9.075827598571777,0.4433264434337616,-3.668203830718994
1403715888949058000,-0.004443079233169556,0.017431436106562614,0.07611166685819626,9.051481246948242,0.4430497884750366,-3.6030666828155518
1403715888954058000,-0.0002792626619338989,0.022312214598059654,0.08103074878454208,9.051310539245605,0.4017646908760071,-3.635657548904419
1403715888959058000,-0.0031280294060707092,0.020927192643284798,0.07681891322135925,9.10015869140625,0.36143797636032104,-3.6762988567352295
1403715888964058000,-0.00026692450046539307,0.018123334273695946,0.08102177083492279,9.10030746459961,0.37787115573883057,-3.6274163722991943
1403715888969058000,-0.0002581477165222168,0.02090447209775448,0.07964791357517242,9.084049224853516,0.41830769181251526,-3.619199752807617
1403715888974058000,-0.0038273483514785767,0.019499389454722404,0.07815343141555786,9.092302322387695,0.39376455545425415,-3.635406255722046
1403715888979058000,0.00044080615043640137,0.018113700672984123,0.0775078609585762,9.116708755493164,0.41033437848091125,-3.643735408782959
1403715888984058000,-0.0030626654624938965,0.018816517665982246,0.07616139203310013,9.051505088806152,0.43465474247932434,-3.6275930404663086
1403715888989058000,-0.0017448365688323975,0.019527697935700417,0.07681556046009064,9.084129333496094,0.3857090473175049,-3.635481119155884
1403715888994058000,-0.004452541470527649,0.021609386429190636,0.0754542201757431,9.116744041442871,0.4266737699508667,-3.6192431449890137
1403715888999058000,-0.005882129073143005,0.019529199227690697,0.07612483948469162,9.026961326599121,0.4346297085285187,-3.6194028854370117
1403715889004058000,0.0003857463598251343,0.02162857912480831,0.07749053090810776,9.07578182220459,0.37730419635772705,-3.651869058609009
1403715889009058000,-0.0016610026359558105,0.02019459567964077,0.07614343613386154,9.083992004394531,0.3943244516849518,-3.6682019233703613
1403715889014058000,-0.0030821561813354492,0.020211247727274895,0.0740508884191513,9.059752464294434,0.4428524374961853,-3.6275265216827393
1403715889019058000,-0.0031132772564888,0.01951460726559162,0.07613357156515121,9.067821502685547,0.41829928755760193,-3.6437361240386963
1403715889024058000,-0.002378717064857483,0.020223500207066536,0.07892507314682007,9.10844898223877,0.34487223625183105,-3.6517553329467773
1403715889029058000,-0.0009684711694717407,0.020236169919371605,0.07541747391223907,9.092118263244629,0.3778335750102997,-3.643773317337036
1403715889034058000,-0.003064282238483429,0.01741272769868374,0.07752888649702072,9.043377876281738,0.40998390316963196,-3.554018020629883
1403715889039058000,-0.0038124918937683105,0.020912079140543938,0.07821693271398544,9.116661071777344,0.39396989345550537,-3.62725567817688
1403715889044058000,-0.0031189918518066406,0.022312132641673088,0.07819802314043045,9.108426094055176,0.4186297059059143,-3.6764144897460938
1403715889049058000,-0.003757879137992859,0.018813809379935265,0.07546544820070267,9.0350923538208,0.39381444454193115,-3.6439170837402344
1403715889054058000,-0.0016771182417869568,0.023025834932923317,0.07821909338235855,9.108548164367676,0.36945459246635437,-3.6599302291870117
1403715889059058000,-0.001688152551651001,0.019520310685038567,0.07749241590499878,9.092262268066406,0.41860705614089966,-3.627286434173584
1403715889064058000,-0.0030962899327278137,0.018108023330569267,0.0782412737607956,9.075984954833984,0.41001516580581665,-3.594808578491211
1403715889069058000,-0.0023958683013916016,0.02090585045516491,0.07962796092033386,9.100264549255371,0.3610626757144928,-3.6110153198242188
1403715889074058000,-0.003073170781135559,0.016738785430788994,0.07539089024066925,9.100434303283691,0.4267142117023468,-3.643721342086792
1403715889079058000,-0.0023826956748962402,0.01741279475390911,0.07613442093133926,9.04324722290039,0.4100935161113739,-3.6275954246520996
1403715889084058000,-0.003072082996368408,0.020214149728417397,0.07824437320232391,9.05965805053711,0.44284921884536743,-3.602954864501953
1403715889089058000,-0.001695878803730011,0.022325994446873665,0.0768003985285759,9.092269897460938,0.4185243248939514,-3.651710033416748
1403715889094058000,-0.0024023354053497314,0.01812942884862423,0.08033201843500137,9.092339515686035,0.46724164485931396,-3.6601781845092773
1403715889099058000,-0.0016846805810928345,0.0167203601449728,0.07683747261762619,9.059684753417969,0.4263041615486145,-3.643803358078003
1403715889104058000,-0.00307503342628479,0.019499490037560463,0.07747368514537811,9.092155456542969,0.39411425590515137,-3.676243305206299
1403715889109058000,-0.0030879825353622437,0.019500115886330605,0.07754707336425781,9.05959701538086,0.45957455039024353,-3.6274304389953613
1403715889114058000,-0.0016815662384033203,0.019561605527997017,0.07613126933574677,9.043296813964844,0.42631328105926514,-3.6194097995758057
1403715889119058000,-0.005190499126911163,0.02162114717066288,0.07540744543075562,9.108455657958984,0.40194159746170044,-3.676386833190918
1403715889124058000,-0.0030917227268218994,0.015307614579796791,0.07824954390525818,9.116683006286621,0.3778235614299774,-3.676318407058716
1403715889129058000,-0.0023719295859336853,0.019492847844958305,0.07821319997310638,9.084175109863281,0.4431276321411133,-3.6519367694854736
1403715889134058000,-0.0037792623043060303,0.019517807289958,0.07750719040632248,9.084050178527832,0.38567018508911133,-3.61906361579895
1403715889139058000,-0.00028711557388305664,0.018843038007616997,0.07822956144809723,9.124713897705078,0.37745505571365356,-3.659909248352051
1403715889144058000,-0.0009899884462356567,0.020224960520863533,0.07610004395246506,9.067708969116211,0.4184206426143646,-3.652038335800171
1403715889149058000,-0.0016980916261672974,0.02231045626103878,0.07962630689144135,9.03512191772461,0.4105035662651062,-3.619272232055664
1403715889154058000,-0.0037676095962524414,0.02161022089421749,0.07615745812654495,9.149365425109863,0.41040199995040894,-3.6679792404174805
1403715889159058000,-0.0016917884349822998,0.023005278781056404,0.08099126815795898,9.067763328552246,0.4183659553527832,-3.643716335296631
1403715889164058000,-0.004501968622207642,0.020218202844262123,0.0761273056268692,9.067756652832031,0.40182068943977356,-3.643836498260498
1403715889169058000,0.0011204704642295837,0.021585704758763313,0.07890136539936066,9.075934410095215,0.45140746235847473,-3.6763758659362793
1403715889174058000,-0.0030711740255355835,0.020923031494021416,0.07542379200458527,9.043205261230469,0.4183945953845978,-3.6274051666259766
1403715889179058000,-0.003824569284915924,0.024426644667983055,0.0803254097700119,8.994153022766113,0.41811275482177734,-3.5541319847106934
1403715889184058000,-0.0037619173526763916,0.02230657823383808,0.07823264598846436,9.075963973999023,0.4184873104095459,-3.6518757343292236
1403715889189058000,-0.0016976892948150635,0.018822452053427696,0.0782167911529541,9.133049964904785,0.4103606045246124,-3.6437430381774902
1403715889194058000,-0.004473641514778137,0.018789803609251976,0.07404014468193054,9.059535026550293,0.44274044036865234,-3.59503173828125
1403715889199058000,-0.002375006675720215,0.01668991707265377,0.07471992075443268,9.067692756652832,0.3691883683204651,-3.627285957336426
1403715889204058000,-0.0051872581243515015,0.01813163422048092,0.07960614562034607,9.108537673950195,0.4106190800666809,-3.651735305786133
1403715889209058000,-0.005218073725700378,0.019541090354323387,0.07892212271690369,9.02696704864502,0.4183855950832367,-3.60308837890625
1403715889214058000,-0.0016344189643859863,0.01952189765870571,0.0789310485124588,9.051532745361328,0.4426453709602356,-3.6030044555664062
1403715889219058000,0.0004094243049621582,0.016026197001338005,0.07544989883899689,9.100384712219238,0.3939533829689026,-3.684436798095703
1403715889224058000,-0.0038002431392669678,0.01949983276426792,0.07541153579950333,9.092290878295898,0.4514191448688507,-3.6602354049682617
1403715889229058000,-0.0037848874926567078,0.020915282890200615,0.07751904428005219,9.075984001159668,0.42644959688186646,-3.6682474613189697
1403715889234058000,-0.005180448293685913,0.02161610685288906,0.07612693309783936,9.108465194702148,0.35290098190307617,-3.6435811519622803
1403715889239058000,-0.005192980170249939,0.014668827876448631,0.07541298866271973,9.083996772766113,0.3940085172653198,-3.6437926292419434
1403715889244058000,-0.0009477138519287109,0.01740594021975994,0.0789463147521019,9.059706687927246,0.41847673058509827,-3.66021728515625
1403715889249058000,-0.0016918480396270752,0.022282777354121208,0.07683292031288147,9.059540748596191,0.4019331932067871,-3.668078660964966
1403715889254058000,-0.001719847321510315,0.023729147389531136,0.07820829749107361,9.116715431213379,0.41025078296661377,-3.6844863891601562
1403715889259058000,0.00042460858821868896,0.019567547366023064,0.08031246066093445,9.035280227661133,0.4919697344303131,-3.6766228675842285
1403715889264058000,-0.000977158546447754,0.020197739824652672,0.07818511128425598,9.043235778808594,0.4020084738731384,-3.6436851024627686
1403715889269058000,-0.003786131739616394,0.021569019183516502,0.07894163578748703,9.06744384765625,0.37773317098617554,-3.6436212062835693
1403715889274058000,-0.005178883671760559,0.018813440576195717,0.07827261090278625,9.010519981384277,0.3937385678291321,-3.5948569774627686
1403715889279058000,-0.004509381949901581,0.017470156773924828,0.07538285851478577,9.059510231018066,0.38567230105400085,-3.6029765605926514
1403715889284058000,-0.0003000199794769287,0.02091817371547222,0.07471626996994019,9.092037200927734,0.37779077887535095,-3.594655990600586
1403715889289058000,-0.00024315714836120605,0.018084382638335228,0.07474130392074585,9.092146873474121,0.41032788157463074,-3.6437673568725586
1403715889294058000,-0.000993877649307251,0.020917607471346855,0.07331719994544983,9.051472663879395,0.4344303011894226,-3.69278621673584
1403715889299058000,-0.0024077147245407104,0.02023574523627758,0.07826641201972961,9.092354774475098,0.44314998388290405,-3.6599371433258057
1403715889304058000,-0.0009886473417282104,0.0167087372392416,0.07474564015865326,9.108638763427734,0.41841837763786316,-3.65173602104187
1403715889309058000,0.00043039023876190186,0.02088882587850094,0.08166491240262985,9.10055923461914,0.4508279263973236,-3.619264602661133
1403715889314058000,-0.0009699314832687378,0.022341815754771233,0.07823403179645538,9.100361824035645,0.4101146161556244,-3.6192338466644287
1403715889319058000,-0.0037826448678970337,0.020937783643603325,0.07610446959733963,9.141203880310059,0.4269006848335266,-3.6765024662017822
1403715889324058000,-0.001012757420539856,0.017399443313479424,0.07474685460329056,9.075894355773926,0.4265783429145813,-3.635744094848633
1403715889329058000,-0.00028662383556365967,0.022274358198046684,0.08103319257497787,9.092228889465332,0.4100364148616791,-3.6437814235687256
1403715889334058000,-0.0051763951778411865,0.022301150485873222,0.07958944141864777,9.100374221801758,0.4023928940296173,-3.6517982482910156
1403715889339058000,-0.003080114722251892,0.02233629859983921,0.07892653346061707,9.084232330322266,0.45925453305244446,-3.64376163482666
1403715889344058000,-0.0024041831493377686,0.02373734675347805,0.08101978898048401,9.067853927612305,0.450836181640625,-3.651988983154297
1403715889349058000,-0.001694992184638977,0.021576961502432823,0.07817719876766205,9.075883865356445,0.41015177965164185,-3.659987688064575
1403715889354058000,-0.0009538382291793823,0.017411185428500175,0.07684257626533508,9.108550071716309,0.41054919362068176,-3.643681526184082
1403715889359058000,-0.0009946823120117188,0.01882522739470005,0.07894353568553925,9.08413028717041,0.43465831875801086,-3.6601293087005615
1403715889364058000,0.0003946051001548767,0.01742173545062542,0.07677873969078064,9.124804496765137,0.38562265038490295,-3.6681418418884277
1403715889369058000,-0.002358481287956238,0.018811410292983055,0.07405146211385727,9.07577133178711,0.39403194189071655,-3.6437227725982666
1403715889374058000,-0.0023764967918395996,0.017430918291211128,0.0733742043375969,9.067806243896484,0.4266709089279175,-3.6273539066314697
1403715889379058000,-0.002406105399131775,0.020924458280205727,0.07678011059761047,9.11672592163086,0.41819313168525696,-3.6273045539855957
1403715889384058000,-0.005868777632713318,0.01881309039890766,0.07681655883789062,9.125027656555176,0.4755958020687103,-3.643828868865967
1403715889389058000,-0.005871415138244629,0.02370031736791134,0.07685672491788864,9.075973510742188,0.4673817753791809,-3.6275863647460938
1403715889394058000,-0.0030916258692741394,0.021627439185976982,0.0747334435582161,9.067608833312988,0.4264794588088989,-3.627458095550537
1403715889399058000,-0.004488930106163025,0.020919660106301308,0.07753622531890869,9.092131614685059,0.3857240676879883,-3.62736439704895
1403715889404058000,-0.0016780123114585876,0.019518805667757988,0.07823938876390457,9.043214797973633,0.42653459310531616,-3.6111092567443848
1403715889409058000,-0.004459679126739502,0.023678338155150414,0.07818730175495148,9.051552772521973,0.483540415763855,-3.586711883544922
1403715889414058000,-0.002407938241958618,0.020216936245560646,0.077512726187706,9.059344291687012,0.35305649042129517,-3.6110527515411377
1403715889419058000,-0.0044729262590408325,0.01603732816874981,0.07474353164434433,9.108525276184082,0.4022603929042816,-3.676436424255371
1403715889424058000,-0.0016836151480674744,0.02020527981221676,0.08032909780740738,9.084232330322266,0.402135968208313,-3.6111137866973877
1403715889429058000,-0.0037794560194015503,0.02090117149055004,0.08242018520832062,9.059530258178711,0.38567712903022766,-3.619220733642578
1403715889434058000,-0.0030850768089294434,0.02162371389567852,0.08029187470674515,9.124788284301758,0.3860137462615967,-3.6436750888824463
1403715889439058000,-0.0030878931283950806,0.020963819697499275,0.08101186156272888,9.010632514953613,0.41822293400764465,-3.619403839111328
1403715889444058000,-0.001715928316116333,0.016698772087693214,0.08240266144275665,9.059662818908691,0.377350777387619,-3.6519899368286133
1403715889449058000,-0.003059893846511841,0.018783902749419212,0.07820197939872742,9.100512504577637,0.4432477355003357,-3.6682002544403076
1403715889454058000,-0.0023899152874946594,0.01952061615884304,0.07685767114162445,9.076024055480957,0.45110180974006653,-3.6519904136657715
1403715889459058000,-0.0023878514766693115,0.023743590340018272,0.07960768789052963,9.075794219970703,0.410054087638855,-3.6356699466705322
1403715889464058000,-0.0016925185918807983,0.024419566616415977,0.07817097008228302,9.10836124420166,0.3613714575767517,-3.6353845596313477
1403715889469058000,-0.0037615373730659485,0.021621746942400932,0.07826456427574158,9.092209815979004,0.41034817695617676,-3.6437864303588867
1403715889474058000,-0.003090888261795044,0.018789848312735558,0.07476424425840378,9.059560775756836,0.40190941095352173,-3.6193041801452637
1403715889479058000,-0.002389855682849884,0.022986097261309624,0.07747252285480499,9.141107559204102,0.3531631827354431,-3.643566846847534
1403715889484058000,-0.0016857758164405823,0.020925043150782585,0.07823235541582108,9.092259407043457,0.41037416458129883,-3.6274054050445557
1403715889489058000,-0.00517755001783371,0.01882900856435299,0.07823033630847931,9.092487335205078,0.4424950182437897,-3.6193530559539795
1403715889494058000,-0.002400912344455719,0.02302738092839718,0.07682447135448456,9.067602157592773,0.36948853731155396,-3.659965753555298
1403715889499058000,-0.004480317234992981,0.02439986728131771,0.07684511691331863,9.092153549194336,0.4107597768306732,-3.668142795562744
1403715889504058000,-0.0030938908457756042,0.016703149303793907,0.08030760288238525,9.043296813964844,0.3938131332397461,-3.6192922592163086
1403715889509058000,0.0004286766052246094,0.019521435722708702,0.08099265396595001,9.067809104919434,0.4179660677909851,-3.594792127609253
1403715889514058000,-0.001705653965473175,0.0216063279658556,0.07821749150753021,9.100281715393066,0.3779454231262207,-3.676312208175659
1403715889519058000,-0.0009909272193908691,0.018121397122740746,0.07892514020204544,9.092191696166992,0.4022437334060669,-3.6438651084899902
1403715889524058000,-0.0009715408086776733,0.022343410179018974,0.07822611927986145,9.043314933776855,0.4511820673942566,-3.603015899658203
1403715889529058000,-0.0016917586326599121,0.02373283915221691,0.07821804285049438,9.108469009399414,0.37730348110198975,-3.635359764099121
1403715889534058000,-0.0016943365335464478,0.021573541685938835,0.08171507716178894,9.067630767822266,0.434725284576416,-3.651930570602417
1403715889539058000,-0.002378985285758972,0.021599171683192253,0.08098039031028748,9.05163860321045,0.4591749310493469,-3.6357991695404053
1403715889544058000,-0.00031259655952453613,0.01743178628385067,0.07959328591823578,9.075852394104004,0.3857787847518921,-3.6681442260742188
1403715889549058000,-0.0030921995639801025,0.018799318000674248,0.07756596803665161,9.067728996276855,0.42666617035865784,-3.6845736503601074
1403715889554058000,-0.0037697255611419678,0.019513612613081932,0.07751943171024323,9.084208488464355,0.4426214098930359,-3.643801689147949
1403715889559058000,-0.0009941905736923218,0.02164704166352749,0.07609797269105911,9.100377082824707,0.4264875054359436,-3.6436281204223633
1403715889564058000,-0.002380579710006714,0.018131116405129433,0.07474170625209808,9.100265502929688,0.39434313774108887,-3.627340316772461
1403715889569058000,-0.0016708150506019592,0.02019920013844967,0.07542836666107178,9.092222213745117,0.4428657293319702,-3.6275134086608887
1403715889574058000,-0.0016885846853256226,0.023669501766562462,0.07822699844837189,9.07581615447998,0.393728643655777,-3.61919903755188
1403715889579058000,-0.0023957937955856323,0.020211579278111458,0.07474259287118912,9.141151428222656,0.3941589295864105,-3.6680405139923096
1403715889584058000,-0.0016838908195495605,0.017460720613598824,0.0775168165564537,9.084172248840332,0.4104946553707123,-3.6519579887390137
1403715889589058000,-0.0009637549519538879,0.019501788541674614,0.0775153785943985,9.067859649658203,0.4506664276123047,-3.578519582748413
1403715889594058000,-0.0010045990347862244,0.021585514768958092,0.07751742005348206,9.075846672058105,0.4019615352153778,-3.627223014831543
1403715889599058000,0.001804932951927185,0.0209402646869421,0.07755535840988159,9.092202186584473,0.45134884119033813,-3.619182825088501
1403715889604058000,0.0032257884740829468,0.01813877932727337,0.07613350450992584,9.075926780700684,0.42644596099853516,-3.594784736633301
1403715889609058000,-0.0024004504084587097,0.02228156290948391,0.08028505742549896,9.084047317504883,0.41825300455093384,-3.6192538738250732
1403715889614058000,-0.002392187714576721,0.02017982490360737,0.0796152800321579,9.100362777709961,0.4268617033958435,-3.676353693008423
1403715889619058000,-0.00448501855134964,0.023735536262392998,0.07890409231185913,9.076148986816406,0.4918207824230194,-3.635777473449707
1403715889624058000,-0.004496268928050995,0.020945971831679344,0.07822827994823456,9.076066970825195,0.4508272707462311,-3.619255781173706
1403715889629058000,-0.002355039119720459,0.02368662692606449,0.0768442451953888,9.084009170532227,0.4184862971305847,-3.6191635131835938
1403715889634058000,-0.0023804083466529846,0.018098777160048485,0.07611319422721863,9.100472450256348,0.46747061610221863,-3.59489369392395
1403715889639058000,0.0010871440172195435,0.020200805738568306,0.07752488553524017,9.07588005065918,0.4100070595741272,-3.6438093185424805
1403715889644058000,-0.0044720470905303955,0.01812262274324894,0.07751722633838654,9.09203815460205,0.3613789677619934,-3.65185546875
1403715889649058000,-0.004481375217437744,0.020202962681651115,0.0803053230047226,9.084193229675293,0.4512505531311035,-3.6601576805114746
1403715889654058000,-0.0009945929050445557,0.022324515506625175,0.07963685691356659,9.043339729309082,0.4590834677219391,-3.643826723098755
1403715889659058000,-0.005177795886993408,0.018143145367503166,0.07961633056402206,9.075798988342285,0.35294389724731445,-3.651715040206909
1403715889664058000,-0.004475727677345276,0.020916810259222984,0.08031249046325684,9.116747856140137,0.3944535553455353,-3.6518523693084717
1403715889669058000,-0.005886450409889221,0.02089732699096203,0.0733264684677124,9.059745788574219,0.45914551615715027,-3.6438632011413574
1403715889674058000,-0.0010027438402175903,0.022994274273514748,0.07612554728984833,9.051331520080566,0.4182405173778534,-3.6519250869750977
1403715889679058000,-0.0016675740480422974,0.02094986103475094,0.07894238829612732,9.08381462097168,0.3694984018802643,-3.6681911945343018
1403715889684058000,-0.003071792423725128,0.018823904916644096,0.07959872484207153,9.035043716430664,0.3613528907299042,-3.6519885063171387
1403715889689058000,-0.0003168433904647827,0.022990385070443153,0.08032239973545074,9.059475898742676,0.36126354336738586,-3.627405881881714
1403715889694058000,0.0017895698547363281,0.021599913015961647,0.08102276176214218,9.051287651062012,0.394196093082428,-3.717092514038086
1403715889699058000,-0.001653335988521576,0.024446023628115654,0.07958410680294037,8.98615837097168,0.4835156798362732,-3.6847100257873535
1403715889704058000,-0.00937846302986145,0.01741613633930683,0.08590629696846008,9.06861400604248,0.7118593454360962,-3.701207160949707
1403715889709058000,-0.021991975605487823,0.015293074771761894,0.08938109874725342,9.125723838806152,0.622210681438446,-3.750068426132202
1403715889714058000,-0.02899773418903351,0.022983795031905174,0.08794041723012924,9.034860610961914,0.3940398395061493,-3.6196038722991943
1403715889719058000,-0.012162834405899048,0.00624135322868824,0.09498290717601776,9.205815315246582,-0.09574393928050995,-3.6597139835357666
1403715889724058000,0.015853919088840485,0.04394019395112991,0.06984908133745193,9.049600601196289,-0.658801794052124,-3.381032943725586
1403715889729058000,0.06760366261005402,0.009062239900231361,0.05794013664126396,9.22948932647705,-0.24160002171993256,-3.609760284423828
1403715889734058000,0.08440232276916504,0.014534156769514084,0.05107346177101135,9.01968002319336,0.6705207824707031,-3.6516354084014893
1403715889739058000,0.04942922294139862,0.03868439793586731,0.03693978488445282,8.850812911987305,1.650138020515442,-3.6357245445251465
1403715889744058000,-0.019841395318508148,-0.001478077843785286,0.07000268250703812,9.058615684509277,2.2238926887512207,-3.8977761268615723
1403715889749058000,-0.09899584949016571,0.004361232742667198,0.08046853542327881,8.88547420501709,2.0193982124328613,-3.6298553943634033
1403715889754058000,-0.1388508677482605,0.01542237214744091,0.1129530742764473,9.329864501953125,0.38610324263572693,-3.816014051437378
1403715889759058000,-0.1142793521285057,0.030005773529410362,0.0936625748872757,8.895219802856445,-0.9120339751243591,-3.4398162364959717
1403715889764058000,-0.033142730593681335,0.0013578366488218307,0.11799270659685135,9.05811595916748,-1.0432204008102417,-3.381395101547241
1403715889769058000,0.033947139978408813,0.01884414069354534,0.09276404976844788,9.392415046691895,-0.9148029088973999,-3.5521962642669678
1403715889774058000,0.07879579067230225,0.05494091659784317,0.06361750513315201,9.098138809204102,-0.41466227173805237,-3.3236284255981445
1403715889779058000,0.09772583842277527,-0.010756747797131538,0.06576641649007797,9.248594284057617,0.5989639163017273,-3.650871992111206
1403715889784058000,0.08306215703487396,0.027339110150933266,0.07805206626653671,9.554062843322754,1.1293938159942627,-3.8864009380340576
1403715889789058000,0.02716267853975296,0.0563206747174263,0.06477516889572144,8.451022148132324,1.455727458000183,-3.6918582916259766
1403715889794058000,-0.016263611614704132,0.008779061958193779,0.10209955275058746,9.211875915527344,1.4869296550750732,-3.782574415206909
1403715889799058000,-0.057829126715660095,0.034330837428569794,0.09205121546983719,9.037259101867676,0.9305981397628784,-3.742041826248169
1403715889804058000,-0.07883799076080322,0.018907399848103523,0.09693269431591034,9.133548736572266,0.7049738168716431,-3.735724687576294
1403715889809058000,-0.08004377782344818,0.017892302945256233,0.0848899781703949,8.911762237548828,0.17515361309051514,-3.498720407485962
1403715889814058000,-0.04729238152503967,0.03193371742963791,0.08715536445379257,9.441821098327637,-0.5285497903823853,-3.5448222160339355
1403715889819058000,0.0023858770728111267,0.01627085916697979,0.06910867989063263,8.550840377807617,-0.5445235967636108,-3.38271427154541
1403715889824058000,0.03974100947380066,0.029218750074505806,0.05454884469509125,9.95645809173584,-0.32464537024497986,-3.7806472778320312
1403715889829058000,0.0656290054321289,0.05150095373392105,0.060044363141059875,8.617913246154785,0.19489289820194244,-3.51943039894104
1403715889834058000,0.07266949117183685,0.034249454736709595,0.05368342250585556,8.840644836425781,0.8069126009941101,-3.496185779571533
1403715889839058000,0.04679591953754425,0.02218134142458439,0.07767810672521591,9.357431411743164,1.185349702835083,-3.8301358222961426
1403715889844058000,-0.003017120063304901,0.04247676581144333,0.06288453191518784,8.785831451416016,1.3262650966644287,-3.61993670463562
1403715889849058000,-0.04097042977809906,-0.00024149660021066666,0.09769374132156372,8.905448913574219,0.974551260471344,-3.6535542011260986
1403715889854058000,-0.06204232573509216,0.025724312290549278,0.0908968448638916,9.01049518585205,0.6329997777938843,-3.5307414531707764
1403715889859058000,-0.059226155281066895,0.008003192022442818,0.10741283744573593,9.066997528076172,0.11135870963335037,-3.6362078189849854
1403715889864058000,-0.04093240201473236,0.013686327263712883,0.09209273755550385,9.3113374710083,-0.11986522376537323,-3.4971063137054443
1403715889869058000,-0.010214507579803467,0.030523354187607765,0.0872446596622467,9.156620979309082,-0.31755444407463074,-3.512258291244507
1403715889874058000,0.026936858892440796,0.02103356085717678,0.07129625231027603,8.935955047607422,-0.35917094349861145,-3.4800705909729004
1403715889879058000,0.050930559635162354,0.02159363217651844,0.06569455564022064,9.540007591247559,0.002837973879650235,-3.8141708374023438
1403715889884058000,0.05873754620552063,0.05436147004365921,0.06498353183269501,8.9716157913208,0.6936686635017395,-3.5124683380126953
1403715889889058000,0.041246168315410614,0.02796190045773983,0.08169600367546082,8.9478759765625,0.8864006996154785,-3.6435329914093018
1403715889894058000,0.014502912759780884,0.031288303434848785,0.0767621099948883,8.913455963134766,1.0288081169128418,-3.586578607559204
1403715889899058000,-0.02555382251739502,0.005543233826756477,0.08302317559719086,8.922964096069336,0.9756378531455994,-3.5709240436553955
1403715889904058000,-0.04382698982954025,0.005370555445551872,0.07197947800159454,9.256182670593262,0.41301319003105164,-3.733774185180664
1403715889909058000,-0.028433114290237427,0.023590127006173134,0.06632334738969803,9.34429931640625,0.08747192472219467,-3.73323130607605
1403715889914058000,-0.011684834957122803,0.010730311274528503,0.08456461131572723,8.903818130493164,0.1920146942138672,-3.579110860824585
1403715889919058000,-0.007330089807510376,0.03424493223428726,0.0915038213133812,9.419346809387207,0.6314887404441833,-3.741866111755371
1403715889924058000,-0.021285347640514374,0.03895041346549988,0.09494495391845703,8.937907218933105,0.9307235479354858,-3.5297651290893555
1403715889929058000,-0.04435119032859802,0.02086804248392582,0.09434938430786133,8.840298652648926,0.6105613112449646,-3.449200391769409
1403715889934058000,-0.045627161860466,0.018046731129288673,0.07952763140201569,9.009613037109375,-0.01632426492869854,-3.57012677192688
1403715889939058000,-0.004233203828334808,0.013212835416197777,0.06694997847080231,9.254114151000977,-0.9622207880020142,-3.6331639289855957
1403715889944058000,0.06633356213569641,0.015980379655957222,0.06506885588169098,9.246204376220703,-0.8552896976470947,-3.6252334117889404
1403715889949058000,0.12080076336860657,0.0369868129491806,0.059333816170692444,9.352768898010254,0.3046811819076538,-3.7891106605529785
1403715889954058000,0.0997769832611084,0.03969619423151016,0.07891950756311417,8.605607986450195,1.6765774488449097,-3.50471568107605
1403715889959058000,0.013651423156261444,0.016503309831023216,0.07847727835178375,9.123708724975586,2.300600051879883,-3.9049947261810303
1403715889964058000,-0.07045041769742966,0.026584865525364876,0.07807488739490509,8.909322738647461,1.8742295503616333,-3.571495294570923
1403715889969058000,-0.11586210131645203,-0.010541344992816448,0.09349570423364639,8.857754707336426,0.8200278282165527,-3.637497663497925
1403715889974058000,-0.10799594968557358,0.013223672285676003,0.0788799524307251,9.214079856872559,-0.30751916766166687,-3.693687915802002
1403715889979058000,-0.04780403524637222,0.01206015981733799,0.09633597731590271,9.310460090637207,-0.9485833644866943,-3.5202715396881104
1403715889984058000,0.004593387246131897,0.011838970705866814,0.09521697461605072,9.164501190185547,-0.5824366211891174,-3.545417070388794
1403715889989058000,0.046577371656894684,0.03961985558271408,0.071180559694767,9.098527908325195,-0.171514630317688,-3.4628970623016357
1403715889994058000,0.06703397631645203,0.02084876038134098,0.08584336936473846,9.10758113861084,0.17479628324508667,-3.405428171157837
1403715889999058000,0.05720183253288269,0.00393654964864254,0.07185450196266174,8.922493934631348,0.7551621794700623,-3.806292772293091
1403715890004058000,0.037547290325164795,0.0159160029143095,0.05979522690176964,9.005265235900879,0.7609391808509827,-3.5687482357025146
1403715890009058000,0.01863326132297516,0.008468115702271461,0.09098908305168152,9.283393859863281,0.9897101521492004,-3.790113687515259
1403715890014058000,-0.01924668252468109,0.018119407817721367,0.08526752889156342,8.972729682922363,1.2184220552444458,-3.734036684036255
1403715890019058000,-0.04865856468677521,0.02733216993510723,0.09971025586128235,9.150111198425293,0.9572210907936096,-3.5955116748809814
1403715890024058000,-0.07103913277387619,0.014667654410004616,0.10358920693397522,8.97030258178711,0.6736375093460083,-3.645477294921875
1403715890029058000,-0.06838703155517578,0.0037947427481412888,0.08146102726459503,9.025859832763672,-0.05268607661128044,-3.416153907775879
1403715890034058000,-0.03117215633392334,0.01945645920932293,0.09548300504684448,9.245453834533691,-0.5207629799842834,-3.5374715328216553
1403715890039058000,0.013811685144901276,0.016690565273165703,0.07155846804380417,9.058589935302734,-0.36693838238716125,-3.586186170578003
1403715890044058000,0.04811091721057892,0.020270222797989845,0.06970004737377167,9.410018920898438,-0.01727098599076271,-3.7483913898468018
1403715890049058000,0.06425374746322632,0.04274258017539978,0.06787678599357605,8.896279335021973,0.49658074975013733,-3.5448203086853027
1403715890054058000,0.05170142650604248,0.02359279803931713,0.062200747430324554,9.037904739379883,1.0449154376983643,-3.7569053173065186
1403715890059058000,0.013706892728805542,0.034040845930576324,0.06262287497520447,8.84911060333252,0.9824963808059692,-3.5294430255889893
1403715890064058000,-0.013596244156360626,0.013173164799809456,0.08318640291690826,8.767609596252441,1.0910147428512573,-3.636981725692749
1403715890069058000,-0.04580815136432648,0.0032792557030916214,0.07888941466808319,9.011951446533203,0.7544338703155518,-3.7101492881774902
1403715890074058000,-0.0521845817565918,0.012579737231135368,0.08935020864009857,9.132530212402344,0.4026114344596863,-3.6608622074127197
1403715890079058000,-0.047941289842128754,0.011923188343644142,0.08403385430574417,9.173333168029785,0.19873455166816711,-3.619664430618286
1403715890084058000,-0.026349276304244995,0.024467797949910164,0.08502726256847382,9.409599304199219,-0.1355428248643875,-3.651055335998535
1403715890089058000,0.0017015039920806885,0.029973989352583885,0.08588625490665436,8.919038772583008,-0.18463273346424103,-3.439277172088623
1403715890094058000,0.02359054982662201,0.025032764300704002,0.07756685465574265,9.262770652770996,-0.17777152359485626,-3.5614373683929443
1403715890099058000,0.047427862882614136,0.015192395076155663,0.08299703896045685,8.936938285827637,0.1712723970413208,-3.6024038791656494
1403715890104058000,0.05096639692783356,0.02224917896091938,0.08320016413927078,8.94682502746582,0.7736314535140991,-3.6683871746063232
1403715890109058000,0.027911022305488586,0.013901961967349052,0.08800139278173447,9.094950675964355,1.108675479888916,-3.684385299682617
1403715890114058000,-0.019130989909172058,0.018024278804659843,0.0857870876789093,9.16046142578125,1.1935383081436157,-3.839282751083374
1403715890119058000,-0.055669449269771576,0.017498118802905083,0.0956481397151947,9.036355972290039,0.9757065176963806,-3.644362688064575
1403715890124058000,-0.06831419467926025,0.01667422242462635,0.09278983622789383,9.091930389404297,0.20884481072425842,-3.448184013366699
1403715890129058000,-0.0361151322722435,0.011687381193041801,0.09008458256721497,9.025564193725586,-0.6318520903587341,-3.455308198928833
1403715890134058000,0.025544896721839905,0.0005534235388040543,0.07482059299945831,9.25371265411377,-0.8706730008125305,-3.487086296081543
1403715890139058000,0.07520875334739685,0.0201734509319067,0.06283500790596008,9.32815933227539,-0.21824729442596436,-3.7489407062530518
1403715890144058000,0.08651848137378693,0.030018774792551994,0.038429196923971176,9.183121681213379,0.7502487897872925,-3.6429061889648438
1403715890149058000,0.05167701840400696,0.03186619281768799,0.06081810221076012,9.342911720275879,1.7468442916870117,-3.919956684112549
1403715890154058000,-0.022624224424362183,0.04758582264184952,0.05938918516039848,8.371248245239258,2.1500182151794434,-3.5726425647735596
1403715890159058000,-0.09531841427087784,0.019979393109679222,0.07681012898683548,9.055127143859863,1.3643633127212524,-3.685335397720337
1403715890164058000,-0.12481160461902618,0.006162526085972786,0.1055917888879776,8.651020050048828,-0.04669411852955818,-3.522956609725952
1403715890169058000,-0.08015043288469315,0.0033892951905727386,0.09626441448926926,8.903255462646484,-0.9695194363594055,-3.3008551597595215
1403715890174058000,0.0037738829851150513,-0.006265093572437763,0.09836476296186447,9.571714401245117,-1.3457396030426025,-3.567148208618164
1403715890179058000,0.06965354084968567,0.04605519771575928,0.06508037447929382,9.351469039916992,-0.6240963935852051,-3.6497979164123535
1403715890184058000,0.09545859694480896,0.022424636408686638,0.05784105509519577,9.001741409301758,0.41955262422561646,-3.601889133453369
1403715890189058000,0.07873116433620453,0.03474748134613037,0.058676622807979584,9.054346084594727,1.119881510734558,-3.5279390811920166
1403715890194058000,0.03334754705429077,0.0380430668592453,0.0677700787782669,9.006195068359375,1.235243558883667,-3.764103412628174
1403715890199058000,-0.0071388185024261475,0.014388347044587135,0.08224395662546158,8.753679275512695,1.2252544164657593,-3.734107732772827
1403715890204058000,-0.0434979572892189,0.013147702440619469,0.0991274043917656,8.982050895690918,1.2643693685531616,-3.5963315963745117
1403715890209058000,-0.08289811760187149,0.01409442164003849,0.09354111552238464,8.897018432617188,0.6926516890525818,-3.6291511058807373
1403715890214058000,-0.07881905138492584,8.989125490188599e-05,0.08793359994888306,9.50737476348877,-0.06269185990095139,-3.897819995880127
1403715890219058000,-0.041691914200782776,0.020738346502184868,0.08249275386333466,9.310709953308105,-0.42802250385284424,-3.4150261878967285
1403715890224058000,-0.0010176748037338257,0.04257389158010483,0.0697874203324318,9.270331382751465,-0.54218989610672,-3.5769639015197754
1403715890229058000,0.03128214180469513,0.015222528949379921,0.06428667902946472,8.919082641601562,-0.19246935844421387,-3.4708497524261475
1403715890234058000,0.04378075152635574,0.03750574588775635,0.06640444695949554,8.97877311706543,0.44198763370513916,-3.5043153762817383
1403715890239058000,0.047859907150268555,0.011943591758608818,0.0829944759607315,8.710474014282227,0.5122388601303101,-3.520781993865967
1403715890244058000,0.032094359397888184,0.01242106780409813,0.0663192868232727,9.364232063293457,0.7846726179122925,-3.8141210079193115
1403715890249058000,0.005517736077308655,-0.0027239155024290085,0.08105863630771637,8.915432929992676,1.047194004058838,-3.7179412841796875
1403715890254058000,-0.019852161407470703,0.016776731237769127,0.07125810533761978,8.946246147155762,0.8102364540100098,-3.5303711891174316
1403715890259058000,-0.03397098183631897,-8.398480713367462e-05,0.08798646926879883,9.385547637939453,0.599155068397522,-3.741248846054077
1403715890264058000,-0.04031815379858017,0.014610501006245613,0.09648057073354721,8.936867713928223,0.39538735151290894,-3.579619884490967
1403715890269058000,-0.03400331735610962,0.009728269651532173,0.09482043981552124,9.16483211517334,0.08459845930337906,-3.5301640033721924
1403715890274058000,-0.011571250855922699,0.004664566367864609,0.09977353364229202,8.789266586303711,0.011183229275047779,-3.317119836807251
1403715890279058000,0.009447067975997925,0.012635830789804459,0.0740433782339096,9.304424285888672,-0.09546349197626114,-3.7490181922912598
1403715890284058000,0.025591380894184113,0.0077803414314985275,0.06002439931035042,9.401700019836426,-0.040616877377033234,-3.7086341381073
1403715890289058000,0.040402308106422424,0.027252910658717155,0.060898374766111374,9.027335166931152,0.5058864951133728,-3.6189143657684326
1403715890294058000,0.03628230094909668,0.032845139503479004,0.0705966204404831,9.035114288330078,0.5145957469940186,-3.732604742050171
1403715890299058000,0.019497334957122803,0.02218705229461193,0.07465139031410217,8.888788223266602,0.874904990196228,-3.6030173301696777
1403715890304058000,-0.010007843375205994,0.01309320516884327,0.08382656425237656,8.922882080078125,0.9807761311531067,-3.521934747695923
1403715890309058000,-0.031923599541187286,0.020099444314837456,0.07742804288864136,9.166900634765625,0.6473509669303894,-3.725231409072876
1403715890314058000,-0.03623493015766144,0.01047242060303688,0.08165322244167328,8.78927230834961,0.1438000202178955,-3.5546340942382812
1403715890319058000,-0.02139665186405182,0.0028254371136426926,0.05733867362141609,9.303771018981934,-0.0590759739279747,-3.603041887283325
1403715890324058000,0.00805605947971344,0.01687951199710369,0.06637512892484665,9.12444019317627,0.23253226280212402,-3.6917781829833984
1403715890329058000,0.014429345726966858,0.018720628693699837,0.06715977191925049,9.239516258239746,0.6119973659515381,-3.627190589904785
1403715890334058000,-0.007936745882034302,0.0305768009275198,0.07824379205703735,9.223941802978516,0.9374727010726929,-3.7094688415527344
1403715890339058000,-0.04781583696603775,0.03623185306787491,0.09211895614862442,8.824875831604004,1.15952730178833,-3.693341016769409
1403715890344058000,-0.06942090392112732,0.022277062758803368,0.10182715952396393,8.945877075195312,0.4746715724468231,-3.3831193447113037
1403715890349058000,-0.047010637819767,0.025677191093564034,0.11228380352258682,9.222372055053711,-0.6190227270126343,-3.626868486404419
1403715890354058000,0.009599365293979645,0.03208209574222565,0.08877655118703842,8.992711067199707,-0.9447076320648193,-3.4626851081848145
1403715890359058000,0.07871221005916595,-0.005603247322142124,0.07696940004825592,9.016797065734863,-0.9776004552841187,-3.331104278564453
1403715890364058000,0.12552103400230408,0.04041483253240585,0.06987929344177246,9.352203369140625,0.07881664484739304,-3.511125326156616
1403715890369058000,0.09836016595363617,0.009168628603219986,0.05716791749000549,8.820356369018555,1.9471616744995117,-3.8638973236083984
1403715890374058000,0.016631998121738434,0.014348465949296951,0.06089266017079353,9.363377571105957,2.485624074935913,-3.96189284324646
1403715890379058000,-0.07733011990785599,0.017046282067894936,0.09006917476654053,8.361213684082031,1.8482873439788818,-3.4754154682159424
1403715890384058000,-0.12420167773962021,0.0006829220801591873,0.10604949295520782,9.16749382019043,0.4360531270503998,-3.6611571311950684
1403715890389058000,-0.09337124973535538,0.011142028495669365,0.10403957217931747,9.311423301696777,-0.9317634105682373,-3.4876725673675537
1403715890394058000,-0.030283868312835693,0.005669292062520981,0.07281062752008438,8.968599319458008,-0.9967562556266785,-3.357578754425049
1403715890399058000,0.035416439175605774,0.007648257538676262,0.05160176381468773,9.44941520690918,-0.7592498660087585,-3.642402172088623
1403715890404058000,0.08637599647045135,0.035379692912101746,0.052382487803697586,9.301937103271484,-0.2188260853290558,-3.5928943157196045
1403715890409058000,0.08852510154247284,0.013160934671759605,0.037772201001644135,8.749582290649414,0.5744341611862183,-3.5693907737731934
1403715890414058000,0.07188969850540161,0.02846488170325756,0.055094100534915924,9.105080604553223,1.1719573736190796,-3.674368143081665
1403715890419058000,0.033401235938072205,0.012317067012190819,0.09147600084543228,8.688982963562012,1.390368938446045,-3.7652018070220947
1403715890424058000,-0.021277613937854767,0.0019824784249067307,0.07881713658571243,8.933221817016602,1.3790929317474365,-3.734715223312378
1403715890429058000,-0.06055945158004761,-0.002210862934589386,0.08870282024145126,9.159992218017578,1.0206756591796875,-3.6118006706237793
1403715890434058000,-0.08643434941768646,0.009222542867064476,0.08323520421981812,9.26429271697998,0.5335833430290222,-3.8406267166137695
1403715890439058000,-0.07741570472717285,0.0013800989836454391,0.08779619634151459,9.033571243286133,-0.17503507435321808,-3.5963714122772217
1403715890444058000,-0.04231439530849457,0.023580705747008324,0.08596339076757431,9.416743278503418,-0.3708593547344208,-3.6356003284454346
1403715890449058000,-0.00586652010679245,0.023040102794766426,0.08396393805742264,8.927766799926758,-0.3077450692653656,-3.5939271450042725
1403715890454058000,0.03676518797874451,0.026315951719880104,0.08987939357757568,9.034132957458496,-0.31088146567344666,-3.4545493125915527
1403715890459058000,0.06485790014266968,0.0278277900069952,0.08584557473659515,9.181441307067871,-0.016411298885941505,-3.625871419906616
1403715890464058000,0.06145539879798889,0.023813532665371895,0.04884428530931473,9.045028686523438,0.5557183623313904,-3.6914725303649902
1403715890469058000,0.04955337941646576,0.013863751664757729,0.05306372418999672,9.061657905578613,0.858771562576294,-3.7005410194396973
1403715890474058000,0.024362757802009583,0.025796329602599144,0.06096140667796135,9.266288757324219,1.1774508953094482,-3.7172694206237793
1403715890479058000,-0.01644793152809143,0.030557813122868538,0.07402283698320389,8.915373802185059,1.3004688024520874,-3.7501630783081055
1403715890484058000,-0.05774623900651932,0.02570677362382412,0.08942369371652603,9.084836959838867,1.0004059076309204,-3.644714593887329
1403715890489058000,-0.07879612594842911,0.020907824859023094,0.10468479245901108,8.79000186920166,0.41338783502578735,-3.5229032039642334
1403715890494058000,-0.06418465077877045,0.009612590074539185,0.09330984950065613,8.985873222351074,-0.21854567527770996,-3.391113042831421
1403715890499058000,-0.026974253356456757,0.011676149442791939,0.07405698299407959,9.376301765441895,-0.48864778876304626,-3.634612560272217
1403715890504058000,0.015108540654182434,0.01820051483809948,0.0651620551943779,9.107805252075195,-0.45500800013542175,-3.7166836261749268
1403715890509058000,0.05013062059879303,0.019564377143979073,0.06849844008684158,8.968660354614258,-0.15352509915828705,-3.5126545429229736
1403715890514058000,0.0621962696313858,0.025183161720633507,0.06782377511262894,9.410985946655273,0.6195943355560303,-3.862962245941162
1403715890519058000,0.030067935585975647,0.031919777393341064,0.07746624201536179,8.744535446166992,1.181792974472046,-3.602703332901001
1403715890524058000,-0.004291534423828125,0.01931890659034252,0.08429764956235886,8.972386360168457,1.167885661125183,-3.6685092449188232
1403715890529058000,-0.027591243386268616,0.026450803503394127,0.08301379531621933,9.125017166137695,0.33006414771080017,-3.4473049640655518
1403715890534058000,-0.020088687539100647,0.004224328324198723,0.07616831362247467,8.846673011779785,-0.15797510743141174,-3.4641306400299072
1403715890539058000,0.00516645610332489,0.00831855833530426,0.06848601996898651,9.450439453125,-0.09953637421131134,-3.7255098819732666
1403715890544058000,0.026841163635253906,0.005602089688181877,0.0671897903084755,8.953246116638184,0.5832006931304932,-3.5703136920928955
1403715890549058000,0.009392276406288147,0.013798059895634651,0.07344314455986023,9.298619270324707,1.2084795236587524,-3.8804664611816406
1403715890554058000,-0.03390061855316162,0.024198880419135094,0.08022771775722504,9.28286075592041,1.4284889698028564,-3.6930696964263916
1403715890559058000,-0.07647302746772766,0.016612129285931587,0.09130591154098511,8.841739654541016,1.0618834495544434,-3.611987590789795
1403715890564058000,-0.08199197798967361,0.02648976631462574,0.08651959151029587,9.190329551696777,0.025130687281489372,-3.586946964263916
1403715890569058000,-0.0399429127573967,0.01251690648496151,0.08385071158409119,8.862085342407227,-0.8992816209793091,-3.3651511669158936
1403715890574058000,0.019500523805618286,0.008334914222359657,0.0755963921546936,8.911300659179688,-0.7263768911361694,-3.4066078662872314
1403715890579058000,0.05921207368373871,0.012553432956337929,0.053889188915491104,9.368568420410156,-0.17746347188949585,-3.5769147872924805
1403715890584058000,0.07167759537696838,0.015282219275832176,0.05869721621274948,9.043407440185547,0.7131582498550415,-3.7242984771728516
1403715890589058000,0.051405683159828186,0.02497587911784649,0.05995406582951546,8.873823165893555,1.1231485605239868,-3.708603858947754
1403715890594058000,0.015125133097171783,0.021387672051787376,0.051493335515260696,9.268024444580078,1.4099071025848389,-3.797145366668701
1403715890599058000,-0.0415608212351799,0.016643686220049858,0.08176077157258987,8.965188980102539,1.1541967391967773,-3.7171638011932373
1403715890604058000,-0.058424532413482666,0.03203524649143219,0.08385670930147171,8.896759986877441,0.45683565735816956,-3.5387401580810547
1403715890609058000,-0.05285686254501343,0.004240456968545914,0.08794758468866348,8.936670303344727,0.15504400432109833,-3.4570350646972656
1403715890614058000,-0.04158037155866623,0.008439289405941963,0.07010191679000854,9.026331901550293,0.06648188084363937,-3.6693623065948486
1403715890619058000,-0.013470128178596497,0.012493697926402092,0.06979840993881226,9.392793655395508,-0.17808403074741364,-3.7827513217926025
1403715890624058000,0.014408312737941742,0.019422022625803947,0.06485114246606827,8.976266860961914,-0.18654903769493103,-3.6759772300720215
1403715890629058000,0.030513465404510498,0.03556518256664276,0.04896698147058487,9.164968490600586,0.166237011551857,-3.6994576454162598
1403715890634058000,0.03692043572664261,0.03635968267917633,0.0697886273264885,9.16623306274414,0.557845413684845,-3.7238709926605225
1403715890639058000,0.029215238988399506,0.03762561082839966,0.08653368055820465,8.807404518127441,0.6295655369758606,-3.6270010471343994
1403715890644058000,0.017148807644844055,0.03473234921693802,0.0817534402012825,8.76702880859375,0.6861411333084106,-3.4722442626953125
1403715890649058000,-0.007316790521144867,0.009792156517505646,0.08389891684055328,8.873441696166992,0.8604995608329773,-3.4811980724334717
1403715890654058000,-0.02414993941783905,0.010475341230630875,0.08376149088144302,9.321223258972168,0.5521562099456787,-3.758988857269287
1403715890659058000,-0.027047045528888702,0.021582482382655144,0.08367981761693954,9.1406888961792,0.34712886810302734,-3.6689772605895996
1403715890664058000,-0.023412257432937622,0.020250411704182625,0.07690562307834625,9.156744003295898,0.33640775084495544,-3.586763858795166
1403715890669058000,-0.02192964404821396,0.03347988426685333,0.08447594940662384,9.409956932067871,0.26312634348869324,-3.6023669242858887
1403715890674058000,-0.010811053216457367,0.03697459399700165,0.0878765657544136,9.058832168579102,0.18967826664447784,-3.667917490005493
1403715890679058000,0.01019836962223053,0.035404667258262634,0.08110113441944122,8.90411376953125,0.024545101448893547,-3.480351448059082
1403715890684058000,0.02214282751083374,0.029965562745928764,0.0670936107635498,9.06816577911377,0.18033160269260406,-3.537207841873169
1403715890689058000,0.027118787169456482,0.011987829580903053,0.059318628162145615,9.068310737609863,0.4515065550804138,-3.6687204837799072
1403715890694058000,0.027800515294075012,0.010405795648694038,0.06154296174645424,9.011106491088867,0.6376037001609802,-3.668649435043335
1403715890699058000,0.007462076842784882,0.015216538682579994,0.059424225240945816,9.093791007995605,0.8815736174583435,-3.692474126815796
1403715890704058000,-0.02335638552904129,0.009751269593834877,0.07051201164722443,9.191286087036133,0.8837287425994873,-3.676243782043457
1403715890709058000,-0.03741128742694855,0.01738043688237667,0.08030577003955841,9.027323722839355,0.7635833621025085,-3.7012243270874023
1403715890714058000,-0.034668929874897,0.027874039486050606,0.08233506232500076,9.20645523071289,0.16703718900680542,-3.5048892498016357
1403715890719058000,-0.015776745975017548,0.02016039378941059,0.07334005832672119,9.058538436889648,-0.2422981858253479,-3.4718050956726074
1403715890724058000,0.010204970836639404,0.013943353667855263,0.057361189275979996,9.156872749328613,-0.020652050152420998,-3.594836950302124
1403715890729058000,0.024855583906173706,0.023109881207346916,0.0685327872633934,8.961376190185547,0.3685365617275238,-3.562267303466797
1403715890734058000,0.0116690993309021,0.01170901395380497,0.06498347222805023,9.028633117675781,1.0350397825241089,-3.8233683109283447
1403715890739058000,-0.021828748285770416,0.01867603324353695,0.07676602154970169,8.988459587097168,1.1418620347976685,-3.668276786804199
1403715890744058000,-0.04849521815776825,0.021020064130425453,0.09981810301542282,9.158650398254395,0.7614946365356445,-3.8722951412200928
1403715890749058000,-0.049925848841667175,0.03620661795139313,0.10603044182062149,8.870750427246094,-0.17642252147197723,-3.2193284034729004
1403715890754058000,-0.009376674890518188,-0.0015056915581226349,0.08369201421737671,9.213284492492676,-1.0847054719924927,-3.4452624320983887
1403715890759058000,0.07318052649497986,0.040422916412353516,0.07416665554046631,9.318846702575684,-0.5836116671562195,-3.6912965774536133
1403715890764058000,0.09969337284564972,0.010503815487027168,0.0656948983669281,8.700287818908691,0.5416136980056763,-3.292837619781494
1403715890769058000,0.06408004462718964,0.021363316103816032,0.057947348803281784,9.479876518249512,1.4291847944259644,-3.9934513568878174
1403715890774058000,0.004524014890193939,0.021119987592101097,0.06507204473018646,8.656538009643555,2.061243772506714,-3.555427312850952
1403715890779058000,-0.05984477698802948,-0.0038315709680318832,0.06765803694725037,9.244240760803223,1.5125031471252441,-3.8318557739257812
1403715890784058000,-0.08481048792600632,0.05789561569690704,0.09481163322925568,9.33763313293457,0.5261614918708801,-3.7500052452087402
1403715890789058000,-0.07910143584012985,0.008473416790366173,0.06854203343391418,8.993952751159668,-0.18730130791664124,-3.6030445098876953
1403715890794058000,-0.031833820044994354,0.036303699016571045,0.08104678988456726,9.057816505432129,-0.540767252445221,-3.4322612285614014
1403715890799058000,0.005184099078178406,0.0453416109085083,0.07068368047475815,8.935090065002441,-0.03887530788779259,-3.325348138809204
1403715890804058000,0.027035579085350037,0.0054054856300354,0.06917134672403336,9.434988021850586,0.13393983244895935,-3.847214937210083
1403715890809058000,0.035417646169662476,0.03903673589229584,0.07761624455451965,8.830244064331055,0.4200020134449005,-3.5050690174102783
1403715890814058000,0.029095284640789032,0.024378636851906776,0.062088582664728165,9.060874938964844,0.6162282228469849,-3.7808330059051514
1403715890819058000,0.0228998064994812,0.021013503894209862,0.07103690505027771,9.07737922668457,0.5495020747184753,-3.6748077869415283
1403715890824058000,0.014460906386375427,0.04030360281467438,0.08312614262104034,9.077494621276855,0.9238462448120117,-3.7574119567871094
1403715890829058000,-0.009381018579006195,0.028041040524840355,0.07958132773637772,9.085811614990234,0.8156412243843079,-3.636470079421997
1403715890834058000,-0.03042759746313095,0.01941373012959957,0.09434916079044342,9.003096580505371,0.7776297926902771,-3.5631487369537354
1403715890839058000,-0.04790844768285751,0.04377855360507965,0.09656877815723419,8.87126350402832,0.6746905446052551,-3.5473148822784424
