#timestamp [ns],w_RS_S_x [rad s^-1],w_RS_S_y [rad s^-1],w_RS_S_z [rad s^-1],a_RS_S_x [m s^-2],a_RS_S_y [m s^-2],a_RS_S_z [m s^-2]
1403715886544058000,-0.0020943951023931952,0.01884955592153876,0.07609635538695278,9.062979041666667,0.4494714583333333,-3.6529771249999996
1403715886549058000,-0.003490658503988659,0.021642082724729686,0.07609635538695278,9.062979041666667,0.416782625,-3.6366327083333334
1403715886554058000,-0.0027925268031909274,0.01884955592153876,0.0767944870877505,9.062979041666667,0.367749375,-3.6611493333333334
1403715886559058000,0.0006981317007977319,0.016057029118347832,0.07958701389094143,9.054806833333332,0.4004382083333333,-3.6202882916666663
1403715886564058000,-0.0013962634015954637,0.01884955592153876,0.07749261878854824,9.062979041666667,0.367749375,-3.6121160833333334
1403715886569058000,-0.0006981317007977319,0.013962634015954637,0.07749261878854824,9.095667875,0.40861041666666664,-3.6284604999999996
1403715886574058000,-0.0020943951023931952,0.013962634015954637,0.07749261878854824,9.079323458333333,0.392266,-3.6121160833333334
1403715886579058000,-0.0020943951023931952,0.0153588974175501,0.07609635538695278,9.062979041666667,0.40861041666666664,-3.6202882916666663
1403715886584058000,-0.0020943951023931952,0.012566370614359173,0.07819075048934597,9.054806833333332,0.40861041666666664,-3.6529771249999996
1403715886589058000,-0.0006981317007977319,0.01815142422074103,0.07819075048934597,9.046634625,0.392266,-3.6448049166666663
1403715886594058000,-0.0020943951023931952,0.01815142422074103,0.07609635538695278,9.112012291666666,0.4739880833333333,-3.693838166666666
1403715886599058000,-0.003490658503988659,0.01815142422074103,0.07749261878854824,9.062979041666667,0.416782625,-3.6448049166666663
1403715886604058000,-0.006283185307179587,0.020943951023931952,0.07749261878854824,9.07115125,0.392266,-3.6039438749999997
1403715886609058000,-0.004886921905584123,0.016755160819145562,0.07330382858376185,9.144701125,0.40861041666666664,-3.6284604999999996
1403715886614058000,-0.0041887902047863905,0.01884955592153876,0.07120943348136866,9.103840083333333,0.4494714583333333,-3.6448049166666663
1403715886619058000,-0.004886921905584123,0.02024581932313422,0.07749261878854824,9.103840083333333,0.40861041666666664,-3.6611493333333334
1403715886624058000,-0.0020943951023931952,0.01884955592153876,0.07539822368615504,9.112012291666666,0.40861041666666664,-3.6448049166666663
1403715886629058000,-0.0020943951023931952,0.016057029118347832,0.07539822368615504,9.062979041666667,0.3840937916666667,-3.6529771249999996
1403715886634058000,-0.0013962634015954637,0.016755160819145562,0.07400196028455958,9.079323458333333,0.3759215833333333,-3.6856659583333333
1403715886639058000,0.0,0.01815142422074103,0.07888888219014369,9.030290208333332,0.40861041666666664,-3.6611493333333334
1403715886644058000,-0.0020943951023931952,0.02024581932313422,0.07819075048934597,9.022118,0.43312704166666666,-3.6284604999999996
1403715886649058000,-0.003490658503988659,0.019547687622336492,0.08098327729253688,9.087495666666666,0.43312704166666666,-3.6448049166666663
1403715886654058000,-0.0013962634015954637,0.020943951023931952,0.08098327729253688,9.087495666666666,0.416782625,-3.6284604999999996
1403715886659058000,0.0006981317007977319,0.02234021442552742,0.08028514559173915,9.054806833333332,0.3840937916666667,-3.6448049166666663
1403715886664058000,-0.0041887902047863905,0.02024581932313422,0.07749261878854824,9.087495666666666,0.3840937916666667,-3.6693215416666662
1403715886669058000,-0.0020943951023931952,0.020943951023931952,0.07958701389094143,9.095667875,0.392266,-3.6202882916666663
1403715886674058000,-0.0020943951023931952,0.02024581932313422,0.07609635538695278,9.1201845,0.3840937916666667,-3.6366327083333334
1403715886679058000,-0.004886921905584123,0.016057029118347832,0.07819075048934597,9.087495666666666,0.392266,-3.6202882916666663
1403715886684058000,-0.003490658503988659,0.019547687622336492,0.07819075048934597,9.038462416666666,0.3840937916666667,-3.6202882916666663
1403715886689058000,-0.003208637237548828,0.020494095981121063,0.07654310762882233,9.069976806640625,0.41962727904319763,-3.6619410514831543
1403715886694058000,-0.0010803565382957458,0.01982026919722557,0.07794345170259476,9.061714172363281,0.4278865158557892,-3.653951406478882
1403715886699058000,-0.0032494068145751953,0.023262910544872284,0.07305954396724701,9.069852828979492,0.3626053035259247,-3.6295242309570312
1403715886704058000,-0.0018071793019771576,0.0211932435631752,0.07446892559528351,9.094362258911133,0.44393759965896606,-3.6539838314056396
1403715886709058000,-0.0011022090911865234,0.01699615642428398,0.0766095221042633,9.069806098937988,0.43618136644363403,-3.654006004333496
1403715886714058000,-0.0018306002020835876,0.020443271845579147,0.07448630034923553,9.053400993347168,0.35437241196632385,-3.645829439163208
1403715886719058000,-0.0018063411116600037,0.022619515657424927,0.07585977017879486,9.143380165100098,0.4600673317909241,-3.7029919624328613
1403715886724058000,-0.0011169873178005219,0.019833732396364212,0.07725910097360611,9.069518089294434,0.38733017444610596,-3.6786081790924072
1403715886729058000,-0.003231637179851532,0.023248109966516495,0.0772518441081047,9.110538482666016,0.3543294370174408,-3.6624915599823
1403715886734058000,-0.00040987133979797363,0.017681773751974106,0.07865047454833984,9.110486030578613,0.4111741781234741,-3.6623175144195557
1403715886739058000,-0.0011304467916488647,0.021849311888217926,0.07867925614118576,9.094111442565918,0.38730281591415405,-3.645728349685669
1403715886744058000,-0.0018191039562225342,0.02395130693912506,0.07939068228006363,9.118712425231934,0.3707871735095978,-3.637671709060669
1403715886749058000,0.0009835399687290192,0.020527809858322144,0.08004863560199738,9.053262710571289,0.4193795323371887,-3.6375579833984375
1403715886754058000,-0.0011366121470928192,0.023999657481908798,0.0772208720445633,9.053608894348145,0.4280375838279724,-3.653820753097534
1403715886759058000,-0.002515465021133423,0.02187085524201393,0.07794567942619324,9.03725528717041,0.4441973865032196,-3.678485631942749
1403715886764058000,0.0002808570861816406,0.022560011595487595,0.07797349244356155,9.037469863891602,0.4359159469604492,-3.637749433517456
1403715886769058000,-0.0018299072980880737,0.02117355540394783,0.0751442238688469,9.045452117919922,0.4033201336860657,-3.6538684368133545
1403715886774058000,-0.0025147832930088043,0.022591259330511093,0.07375184446573257,9.086413383483887,0.41148310899734497,-3.6621594429016113
1403715886779058000,-0.0032432004809379578,0.023291926831007004,0.07378707081079483,9.094325065612793,0.3952181339263916,-3.6213219165802
1403715886784058000,-0.001812223345041275,0.02186066284775734,0.07519758492708206,9.094200134277344,0.4115111827850342,-3.6130692958831787
1403715886789058000,-0.003920398652553558,0.01976463571190834,0.07518242299556732,9.053277015686035,0.4196988046169281,-3.6456985473632812
1403715886794058000,0.0017057880759239197,0.017683789134025574,0.07798270881175995,9.053577423095703,0.4115029275417328,-3.6458451747894287
1403715886799058000,-0.0011316537857055664,0.01907171681523323,0.07728075236082077,9.078004837036133,0.37883520126342773,-3.645796060562134
1403715886804058000,-0.0011038929224014282,0.018408074975013733,0.07722607254981995,9.086130142211914,0.4440609812736511,-3.64589524269104
1403715886809058000,-0.0025529488921165466,0.021206147968769073,0.07583673298358917,9.086115837097168,0.40364232659339905,-3.629535436630249
1403715886814058000,-0.0011195279657840729,0.019804697483778,0.07588236033916473,9.094219207763672,0.40328332781791687,-3.6295013427734375
1403715886819058000,-0.00252436101436615,0.01907435804605484,0.07519309967756271,9.077869415283203,0.4032980799674988,-3.629335880279541
1403715886824058000,-0.00041745975613594055,0.02115500345826149,0.07516825199127197,9.069564819335938,0.3543693423271179,-3.6945960521698
1403715886829058000,-0.003921136260032654,0.0191141739487648,0.08007273077964783,9.119081497192383,0.4521994888782501,-3.6706202030181885
1403715886834058000,-0.004622932523488998,0.019109267741441727,0.07515477389097214,9.085891723632812,0.41176533699035645,-3.629610061645508
1403715886839058000,-0.002521239221096039,0.024677228182554245,0.0765245333313942,9.069636344909668,0.3788616359233856,-3.6458590030670166
1403715886844058000,0.0003053918480873108,0.019801858812570572,0.07937686145305634,9.06991958618164,0.39499661326408386,-3.637594223022461
1403715886849058000,-0.0025064274668693542,0.018368840217590332,0.07656760513782501,9.061599731445312,0.4115643799304962,-3.6700940132141113
1403715886854058000,-0.0032177306711673737,0.021862566471099854,0.0744430348277092,9.078222274780273,0.4687548875808716,-3.654053211212158
1403715886859058000,-0.003222361207008362,0.021907512098550797,0.0758775994181633,9.077950477600098,0.4279108941555023,-3.654083728790283
1403715886864058000,-0.004626169800758362,0.021192725747823715,0.07378526777029037,9.094422340393066,0.3951757550239563,-3.621450185775757
1403715886869058000,-0.005314437672495842,0.017678532749414444,0.07796245068311691,9.077719688415527,0.3869357109069824,-3.662034034729004
1403715886874058000,-0.0017928406596183777,0.017686225473880768,0.07727080583572388,9.069896697998047,0.3870040476322174,-3.662177562713623
1403715886879058000,-0.003214620053768158,0.019769009202718735,0.07446742802858353,9.037144660949707,0.40331345796585083,-3.6376378536224365
1403715886884058000,-0.0018058419227600098,0.017695538699626923,0.07794763147830963,9.094629287719727,0.4605378806591034,-3.6295387744903564
1403715886889058000,0.00027833878993988037,0.0198262557387352,0.07724118232727051,9.06151008605957,0.4280437231063843,-3.6375656127929688
1403715886894058000,-0.003930024802684784,0.021213136613368988,0.07516653835773468,9.069808959960938,0.38691583275794983,-3.6621880531311035
1403715886899058000,0.0002987608313560486,0.018376614898443222,0.07308079302310944,9.069916725158691,0.4113350212574005,-3.6458537578582764
1403715886904058000,0.0009658895432949066,0.01976098120212555,0.07587377727031708,9.045286178588867,0.43612638115882874,-3.64574933052063
1403715886909058000,0.0009875744581222534,0.015612896531820297,0.07657261937856674,9.102692604064941,0.42796963453292847,-3.64593505859375
1403715886914058000,-0.0018543154001235962,0.01841021701693535,0.07655031234025955,9.094106674194336,0.4032430350780487,-3.6540369987487793
1403715886919058000,0.0016562528908252716,0.018393564969301224,0.0765705555677414,9.04526424407959,0.3869594931602478,-3.6213226318359375
1403715886924058000,-0.0025472119450569153,0.016999471932649612,0.07657293975353241,9.1026029586792,0.4033639132976532,-3.645711660385132
1403715886929058000,-0.003218546509742737,0.017707720398902893,0.07792459428310394,9.07783317565918,0.4360252618789673,-3.6621813774108887
1403715886934058000,0.0009759366512298584,0.019074752926826477,0.07585091143846512,9.045207977294922,0.3707692623138428,-3.6458799839019775
1403715886939058000,-0.00041408464312553406,0.01909029856324196,0.07448746263980865,9.078084945678711,0.3868371248245239,-3.6622161865234375
1403715886944058000,-0.003241889178752899,0.017694324254989624,0.0765937939286232,9.037196159362793,0.36259570717811584,-3.6213278770446777
1403715886949058000,-0.003952451050281525,0.018391773104667664,0.0737486332654953,9.09435749053955,0.37067911028862,-3.6457486152648926
1403715886954058000,-0.004603255540132523,0.022599104791879654,0.07444269955158234,9.086124420166016,0.4196353852748871,-3.6539812088012695
1403715886959058000,-0.004594795405864716,0.017706118524074554,0.07659146934747696,9.036975860595703,0.4115910530090332,-3.670391798019409
1403715886964058000,-0.0024963729083538055,0.01977338269352913,0.07798682153224945,9.053672790527344,0.4033178687095642,-3.6787304878234863
1403715886969058000,-0.0010790303349494934,0.02329694852232933,0.080756776034832,9.078094482421875,0.4440208971500397,-3.670433282852173
1403715886974058000,-0.001809239387512207,0.02049901708960533,0.07653555274009705,9.1107177734375,0.411716490983963,-3.6214520931243896
1403715886979058000,-0.00042466819286346436,0.016269993036985397,0.07582658529281616,9.094003677368164,0.4114268720149994,-3.645815134048462
1403715886984058000,-0.003943406045436859,0.01906636729836464,0.07656735926866531,9.078022956848145,0.41963157057762146,-3.6294972896575928
1403715886989058000,-0.003209143877029419,0.019807279109954834,0.07728280872106552,9.094246864318848,0.4034455418586731,-3.6293013095855713
1403715886994058000,-0.0032126158475875854,0.01979988068342209,0.0779993087053299,9.110518455505371,0.44409772753715515,-3.662092924118042
1403715886999058000,-0.0018008649349212646,0.023285232484340668,0.07938693463802338,9.06960391998291,0.43603089451789856,-3.6703662872314453
1403715887004058000,-0.00393151119351387,0.021213162690401077,0.07651977986097336,9.102517127990723,0.3789343237876892,-3.662324905395508
1403715887009058000,-0.0017969831824302673,0.018381722271442413,0.07578525692224503,9.134984970092773,0.45213356614112854,-3.678605318069458
1403715887014058000,-0.00040613114833831787,0.022529050707817078,0.07445283979177475,9.118635177612305,0.45261111855506897,-3.6376776695251465
1403715887019058000,0.000994369387626648,0.022612571716308594,0.07733401656150818,9.094045639038086,0.42796051502227783,-3.637586832046509
1403715887024058000,-0.0011288747191429138,0.01913772150874138,0.0787295252084732,9.086152076721191,0.4277034401893616,-3.6457266807556152
1403715887029058000,-0.0032377131283283234,0.021858733147382736,0.07584691792726517,9.053424835205078,0.41159212589263916,-3.653700590133667
1403715887034058000,-0.005335859954357147,0.02396545186638832,0.07511171698570251,9.061734199523926,0.3871057629585266,-3.6783759593963623
1403715887039058000,-0.0032028928399086,0.0177050419151783,0.07442206889390945,9.086356163024902,0.4521632790565491,-3.6705291271209717
1403715887044058000,0.0031159035861492157,0.021840687841176987,0.07727687805891037,9.077980041503906,0.4035882353782654,-3.6459648609161377
1403715887049058000,0.002383951097726822,0.023301701992750168,0.07662199437618256,9.061650276184082,0.41961756348609924,-3.6376898288726807
1403715887054058000,0.002358999103307724,0.019815154373645782,0.07941269874572754,9.0455322265625,0.4033791422843933,-3.5967049598693848
1403715887059058000,-0.0004675351083278656,0.021838374435901642,0.08076442033052444,9.061602592468262,0.37889426946640015,-3.6699447631835938
1403715887064058000,-0.0018402636051177979,0.01838819310069084,0.07225880026817322,9.061796188354492,0.39511838555336,-3.678553819656372
1403715887069058000,-0.0018270164728164673,0.019799742847681046,0.08072241395711899,9.061810493469238,0.4115762412548065,-3.6215291023254395
1403715887074058000,-0.005324026569724083,0.023961856961250305,0.07593021541833878,9.110523223876953,0.41165459156036377,-3.678562641143799
1403715887079058000,-0.0045971497893333435,0.01842549443244934,0.07657460868358612,9.102483749389648,0.4686312675476074,-3.637946367263794
1403715887084058000,-0.0032369308173656464,0.019788220524787903,0.0751788318157196,9.053238868713379,0.37908935546875,-3.588588237762451
1403715887089058000,-0.0060203708708286285,0.01906426250934601,0.07444661855697632,9.094304084777832,0.4194619953632355,-3.6537272930145264
1403715887094058000,-0.00036215782165527344,0.019778534770011902,0.07725538313388824,9.13519287109375,0.43612951040267944,-3.653913736343384
1403715887099058000,-0.00039748847484588623,0.019806452095508575,0.07657075673341751,9.061301231384277,0.4361441433429718,-3.6213603019714355
1403715887104058000,-0.001801520586013794,0.023295853286981583,0.07307397574186325,9.094265937805176,0.39515459537506104,-3.653987407684326
1403715887109058000,-0.003237515687942505,0.017720229923725128,0.07730506360530853,9.102559089660645,0.4276987910270691,-3.621351718902588
1403715887114058000,-0.0011200085282325745,0.021838143467903137,0.07726769149303436,9.1104154586792,0.41175976395606995,-3.6292340755462646
1403715887119058000,-0.003932148218154907,0.019064560532569885,0.07514318823814392,9.110612869262695,0.4115302264690399,-3.621213674545288
1403715887124058000,-0.003933358937501907,0.021202486008405685,0.07799805700778961,9.053339004516602,0.41969606280326843,-3.612980604171753
1403715887129058000,-0.0025231242179870605,0.0212056003510952,0.07728460431098938,9.045392036437988,0.4115866720676422,-3.661874532699585
1403715887134058000,-0.0010897256433963776,0.015609774738550186,0.0793309211730957,9.078344345092773,0.46052464842796326,-3.6540181636810303
1403715887139058000,-0.0004127286374568939,0.018373504281044006,0.07863489538431168,9.069857597351074,0.43609917163848877,-3.6376774311065674
1403715887144058000,-0.00395110622048378,0.02047174796462059,0.07655435055494308,9.037200927734375,0.38703465461730957,-3.6458230018615723
1403715887149058000,-0.0024985074996948242,0.01912035048007965,0.0765647143125534,9.070066452026367,0.4113721549510956,-3.670346736907959
1403715887154058000,-0.0018097981810569763,0.023311030119657516,0.07584095746278763,9.053627014160156,0.4442920982837677,-3.645768165588379
1403715887159058000,-0.0025131702423095703,0.023294255137443542,0.07797296345233917,9.094348907470703,0.4116976857185364,-3.6621501445770264
1403715887164058000,-0.0017974302172660828,0.018394656479358673,0.0815119743347168,9.102457046508789,0.452168345451355,-3.678767204284668
1403715887169058000,-0.0025214627385139465,0.021142587065696716,0.07654587179422379,9.053377151489258,0.4361661374568939,-3.645989418029785
1403715887174058000,0.00028852373361587524,0.021885283291339874,0.07720443606376648,9.078024864196777,0.40345892310142517,-3.6377127170562744
1403715887179058000,-0.003239244222640991,0.01774432882666588,0.07934364676475525,9.053377151489258,0.42768722772598267,-3.6621339321136475
1403715887184058000,-0.00040765851736068726,0.018366634845733643,0.07727347314357758,9.078184127807617,0.39533352851867676,-3.629499673843384
1403715887189058000,-0.001123819500207901,0.01907789707183838,0.07165554165840149,9.04513168334961,0.4278143346309662,-3.6620821952819824
1403715887194058000,-0.000408221036195755,0.019099175930023193,0.0772901102900505,9.086345672607422,0.39520061016082764,-3.678650379180908
1403715887199058000,-0.0011455044150352478,0.02186645194888115,0.07730378955602646,9.053394317626953,0.38697075843811035,-3.63783597946167
1403715887204058000,-0.005343103781342506,0.019803978502750397,0.07793799787759781,9.110668182373047,0.3870660960674286,-3.6540510654449463
1403715887209058000,-0.00390644371509552,0.01911427080631256,0.07794724404811859,9.102435111999512,0.4279211163520813,-3.621406078338623
1403715887214058000,-0.003920979797840118,0.016964249312877655,0.07938671857118607,9.053162574768066,0.40350592136383057,-3.645796060562134
1403715887219058000,-0.0017892979085445404,0.01907680556178093,0.0751238465309143,9.045443534851074,0.41953518986701965,-3.662160634994507
1403715887224058000,-0.00602535717189312,0.019130248576402664,0.08072803169488907,9.061907768249512,0.4279431998729706,-3.6213252544403076
1403715887229058000,-0.0024817660450935364,0.02121162787079811,0.08152849972248077,9.09422492980957,0.4115903377532959,-3.6702399253845215
1403715887234058000,-0.0032174289226531982,0.017694711685180664,0.07728329300880432,9.086228370666504,0.4033128023147583,-3.6378698348999023
1403715887239058000,-0.003199376165866852,0.019063491374254227,0.0771927759051323,9.10241413116455,0.42781558632850647,-3.6295340061187744
1403715887244058000,0.0038250312209129333,0.023261580616235733,0.0800369381904602,9.126770973205566,0.40347564220428467,-3.678393840789795
1403715887249058000,-0.0018221139907836914,0.019129235297441483,0.08006911724805832,9.102153778076172,0.4440149962902069,-3.703155040740967
1403715887254058000,-0.0018304772675037384,0.020496420562267303,0.07796458154916763,9.05344295501709,0.395287424325943,-3.6297075748443604
1403715887259058000,-0.00257067009806633,0.017683565616607666,0.07726330310106277,9.086113929748535,0.3788047134876251,-3.6457228660583496
1403715887264058000,-0.003212355077266693,0.020470157265663147,0.07937439531087875,9.110716819763184,0.4115120768547058,-3.645782470703125
1403715887269058000,-0.0018154643476009369,0.023962505161762238,0.07371681183576584,9.077746391296387,0.38718217611312866,-3.6374728679656982
1403715887274058000,-0.0018257126212120056,0.022607672959566116,0.07654697448015213,9.08617877960205,0.41147100925445557,-3.654000759124756
1403715887279058000,0.0003027617931365967,0.020506754517555237,0.07524393498897552,9.110675811767578,0.42783620953559875,-3.6540024280548096
1403715887284058000,-0.0018490590155124664,0.019734006375074387,0.07448574900627136,9.077777862548828,0.3626919090747833,-3.621351718902588
1403715887289058000,-0.00040565431118011475,0.016966506838798523,0.07792645692825317,9.0859375,0.44386667013168335,-3.702989101409912
1403715887294058000,-0.0011181682348251343,0.021192748099565506,0.07797538489103317,9.078269958496094,0.428059458732605,-3.6459784507751465
1403715887299058000,-0.005328157916665077,0.021926149725914,0.08008798211812973,9.077879905700684,0.4034821093082428,-3.621283531188965
1403715887304058000,-0.0010880716145038605,0.017040349543094635,0.08073919266462326,9.086125373840332,0.4521024525165558,-3.6866109371185303
1403715887309058000,0.0010054409503936768,0.01766684278845787,0.0800103098154068,9.086220741271973,0.452393501996994,-3.703068971633911
1403715887314058000,-0.001122802495956421,0.022536396980285645,0.0779518112540245,9.09444808959961,0.3953591585159302,-3.6215896606445312
1403715887319058000,0.005890104919672012,0.017719358205795288,0.07864926755428314,9.069528579711914,0.3948608934879303,-3.6457407474517822
1403715887324058000,0.0016285814344882965,0.01769838109612465,0.07586463540792465,9.070045471191406,0.37076428532600403,-3.6130833625793457
1403715887329058000,0.0002686828374862671,0.02329312264919281,0.07587462663650513,9.077825546264648,0.4115397036075592,-3.6536965370178223
1403715887334058000,-0.001166854053735733,0.021914668381214142,0.07727421820163727,9.078154563903809,0.42790651321411133,-3.6376450061798096
1403715887339058000,-0.0011379942297935486,0.02603951469063759,0.07376807183027267,9.053409576416016,0.41159605979919434,-3.6130483150482178
1403715887344058000,0.00028679147362709045,0.02256780117750168,0.07234741747379303,9.11069393157959,0.39520344138145447,-3.645756959915161
1403715887349058000,-0.0032486245036125183,0.019811227917671204,0.07728330045938492,9.045123100280762,0.4441065788269043,-3.6457788944244385
1403715887354058000,0.0016894340515136719,0.022526815533638,0.08224498480558395,9.06190013885498,0.3954550325870514,-3.6049604415893555
1403715887359058000,-0.0004248879849910736,0.020457029342651367,0.0821910947561264,9.09430980682373,0.4032436013221741,-3.6456191539764404
1403715887364058000,-0.001113738864660263,0.017729170620441437,0.0736895278096199,9.094371795654297,0.44416287541389465,-3.621267557144165
1403715887369058000,-0.002539563924074173,0.02118348330259323,0.07580125331878662,9.045113563537598,0.4117046594619751,-3.6292927265167236
1403715887374058000,-0.0032063573598861694,0.019776221364736557,0.07727271318435669,9.094574928283691,0.41958674788475037,-3.637678861618042
1403715887379058000,-0.0031974278390407562,0.02048320695757866,0.0758868157863617,9.102384567260742,0.4686075747013092,-3.645735263824463
1403715887384058000,0.0016908608376979828,0.01977389305830002,0.07663986831903458,9.077869415283203,0.39548832178115845,-3.6294515132904053
1403715887389058000,0.0016918294131755829,0.01772075891494751,0.07589155435562134,9.077832221984863,0.427566796541214,-3.678504228591919
1403715887394058000,-0.00183921679854393,0.017705336213111877,0.07366403937339783,9.070032119750977,0.4278676509857178,-3.629577398300171
1403715887399058000,-0.0032411105930805206,0.02187316119670868,0.07508224993944168,9.10226821899414,0.41167348623275757,-3.6783273220062256
1403715887404058000,-0.002518642693758011,0.021224770694971085,0.07802823185920715,9.069738388061523,0.3950938284397125,-3.686849594116211
1403715887409058000,-0.001800786703824997,0.019810792058706284,0.075966477394104,9.069900512695312,0.4114156663417816,-3.6459717750549316
1403715887414058000,-0.005338026210665703,0.01974848285317421,0.07726013660430908,9.078063011169434,0.3627815246582031,-3.621342182159424
1403715887419058000,0.0003075823187828064,0.019762996584177017,0.07791587710380554,9.069697380065918,0.39503994584083557,-3.645704507827759
1403715887424058000,-0.0032389797270298004,0.016995634883642197,0.07513047009706497,9.045448303222656,0.41971656680107117,-3.6376540660858154
1403715887429058000,-0.0025100409984588623,0.020488642156124115,0.07726521790027618,9.102663040161133,0.40355026721954346,-3.6457881927490234
1403715887434058000,-0.0025272108614444733,0.022618409246206284,0.07449235022068024,9.110491752624512,0.4033335745334625,-3.645925521850586
1403715887439058000,-0.001088026911020279,0.01770537719130516,0.07517975568771362,9.094115257263184,0.4196237027645111,-3.637744426727295
1403715887444058000,-0.001107681542634964,0.0183367021381855,0.07868112623691559,9.110596656799316,0.4116928279399872,-3.629546642303467
1403715887449058000,-0.0011336654424667358,0.019079096615314484,0.08006724715232849,9.069608688354492,0.44413456320762634,-3.6293952465057373
1403715887454058000,-0.0018339306116104126,0.021207548677921295,0.07654866576194763,9.061601638793945,0.38707613945007324,-3.6537344455718994
1403715887459058000,-0.003931112587451935,0.021898914128541946,0.07793442159891129,9.09443473815918,0.3869071900844574,-3.6620516777038574
1403715887464058000,-0.0004116445779800415,0.01910310983657837,0.080060675740242,9.077949523925781,0.3951680362224579,-3.6376733779907227
1403715887469058000,-0.0018353015184402466,0.021867435425519943,0.07938547432422638,9.069873809814453,0.38711580634117126,-3.6131248474121094
1403715887474058000,-0.003209199756383896,0.019752763211727142,0.07655482739210129,9.10241985321045,0.3951463997364044,-3.6702213287353516
1403715887479058000,-0.0039198026061058044,0.020479019731283188,0.08007396757602692,9.094348907470703,0.4441574215888977,-3.6622157096862793
1403715887484058000,-0.0018070153892040253,0.019116848707199097,0.07795911282300949,9.086064338684082,0.4117295444011688,-3.6458539962768555
1403715887489058000,-0.0018048584461212158,0.019107848405838013,0.07509296387434006,9.09431266784668,0.427724689245224,-3.645921230316162
1403715887494058000,-0.003210596740245819,0.019090238958597183,0.07444203644990921,9.061537742614746,0.4767935872077942,-3.6621224880218506
1403715887499058000,-0.002516739070415497,0.0197732113301754,0.07241196930408478,9.053611755371094,0.4117444157600403,-3.6457831859588623
1403715887504058000,-0.0018015876412391663,0.019111625850200653,0.07588259875774384,9.086197853088379,0.435772567987442,-3.678466558456421
1403715887509058000,-0.0018177404999732971,0.019804682582616806,0.07657827436923981,9.078115463256836,0.4196690320968628,-3.645895481109619
1403715887514058000,-0.0025292858481407166,0.01908126100897789,0.07939665019512177,9.077916145324707,0.3789660334587097,-3.64585280418396
1403715887519058000,-0.001812949776649475,0.01768719032406807,0.07867076247930527,9.094500541687012,0.4195617735385895,-3.6132822036743164
1403715887524058000,-0.0004046633839607239,0.015608225017786026,0.07788868248462677,9.0778169631958,0.46871042251586914,-3.6456408500671387
1403715887529058000,-0.0018272772431373596,0.023983731865882874,0.07652652263641357,9.110623359680176,0.4036441445350647,-3.6866466999053955
1403715887534058000,-0.0018208213150501251,0.020530838519334793,0.07587836682796478,9.061270713806152,0.3785661458969116,-3.7113595008850098
1403715887539058000,-0.003224208950996399,0.01909688115119934,0.07729758322238922,9.061857223510742,0.41960886120796204,-3.654315710067749
1403715887544058000,-0.003214813768863678,0.02255277708172798,0.07799306511878967,9.077927589416504,0.39551493525505066,-3.65396785736084
1403715887549058000,-0.0053239017724990845,0.021890532225370407,0.07794321328401566,9.077986717224121,0.42778855562210083,-3.6540989875793457
1403715887554058000,-0.00038722530007362366,0.01908550038933754,0.07722162455320358,9.086246490478516,0.42785337567329407,-3.6294212341308594
1403715887559058000,-0.00251605361700058,0.018375001847743988,0.07442474365234375,9.118828773498535,0.4116663634777069,-3.6375553607940674
1403715887564058000,-0.0017986111342906952,0.015621528029441833,0.07796631753444672,9.118574142456055,0.4196144938468933,-3.6622507572174072
1403715887569058000,-0.00042904168367385864,0.021171845495700836,0.08012918382883072,9.061477661132812,0.41151514649391174,-3.6296229362487793
1403715887574058000,0.002394195646047592,0.01907731220126152,0.08009566366672516,9.053475379943848,0.41973620653152466,-3.6376054286956787
1403715887579058000,-0.00042607635259628296,0.020514771342277527,0.0765315517783165,9.11078929901123,0.42788535356521606,-3.65388560295105
1403715887584058000,-0.002545692026615143,0.019116681069135666,0.07509563118219376,9.077835083007812,0.4441981017589569,-3.6375691890716553
1403715887589058000,-0.0025435276329517365,0.021841347217559814,0.07584886252880096,9.110685348510742,0.37081778049468994,-3.6294238567352295
1403715887594058000,-0.003917485475540161,0.020487874746322632,0.07870255410671234,9.110424995422363,0.4276330769062042,-3.6784539222717285
1403715887599058000,-0.0018161088228225708,0.02120024338364601,0.07943505793809891,9.069777488708496,0.39540284872055054,-3.637697219848633
1403715887604058000,-0.0011217780411243439,0.020495999604463577,0.07446770370006561,9.085933685302734,0.34618404507637024,-3.6702210903167725
1403715887609058000,0.0010112151503562927,0.017697583884000778,0.07577986270189285,9.045437812805176,0.460202157497406,-3.645923137664795
1403715887614058000,0.0002657845616340637,0.021149471402168274,0.07582622766494751,9.070082664489746,0.44457337260246277,-3.604832649230957
1403715887619058000,-0.0018471293151378632,0.02048317715525627,0.07589242607355118,9.061589241027832,0.37896230816841125,-3.6375346183776855
1403715887624058000,-0.0011087842285633087,0.019119761884212494,0.08155451714992523,9.086370468139648,0.443798691034317,-3.645799160003662
1403715887629058000,-0.0025184601545333862,0.023278944194316864,0.08081509917974472,9.07807731628418,0.44453153014183044,-3.629366159439087
1403715887634058000,-0.00041805580258369446,0.021872572600841522,0.07718154788017273,9.045082092285156,0.3381885290145874,-3.670295238494873
1403715887639058000,0.0002822801470756531,0.01909000799059868,0.07645948231220245,9.110899925231934,0.43546193838119507,-3.662417411804199
1403715887644058000,-0.0004260428249835968,0.021163899451494217,0.07726432383060455,9.086007118225098,0.4281904697418213,-3.629380464553833
1403715887649058000,-0.004643596708774567,0.019101187586784363,0.07592493295669556,9.134928703308105,0.39536869525909424,-3.678548574447632
1403715887654058000,-0.005332175642251968,0.017001371830701828,0.07589844614267349,9.07780647277832,0.40305739641189575,-3.6297476291656494
1403715887659058000,-0.00390925258398056,0.018360387533903122,0.07728409022092819,9.077898025512695,0.3871161937713623,-3.6211135387420654
1403715887664058000,-0.0024798959493637085,0.0218982994556427,0.07514145225286484,9.135114669799805,0.41169989109039307,-3.662014961242676
1403715887669058000,-0.003199797123670578,0.014928646385669708,0.0743941217660904,9.126717567443848,0.4196259677410126,-3.6541059017181396
1403715887674058000,0.0016999058425426483,0.019038856029510498,0.07798868417739868,9.094009399414062,0.36256393790245056,-3.6459336280822754
1403715887679058000,-0.0004274807870388031,0.01979488879442215,0.07663069665431976,9.09414291381836,0.38684508204460144,-3.686683177947998
1403715887684058000,-0.0011165328323841095,0.017736881971359253,0.07585526257753372,9.102470397949219,0.4278278052806854,-3.6786186695098877
1403715887689058000,-0.0025485381484031677,0.02117025852203369,0.07724771648645401,9.053305625915527,0.3708263635635376,-3.645814895629883
1403715887694058000,-0.0032170936465263367,0.02399309352040291,0.07797370851039886,9.102641105651855,0.3868437111377716,-3.6539480686187744
1403715887699058000,-0.0025117918848991394,0.021223876625299454,0.07654637843370438,9.069806098937988,0.42783260345458984,-3.65386700630188
1403715887704058000,-0.0011273026466369629,0.021141115576028824,0.07514358311891556,9.06989860534668,0.4117153584957123,-3.653925657272339
1403715887709058000,0.0009985268115997314,0.019069664180278778,0.07939063012599945,9.086321830749512,0.45217883586883545,-3.645916700363159
1403715887714058000,0.0009658150374889374,0.01909756287932396,0.0744757205247879,9.078079223632812,0.4115867614746094,-3.5967490673065186
1403715887719058000,-0.0039611682295799255,0.019072186201810837,0.07652851939201355,9.077832221984863,0.37073326110839844,-3.6374404430389404
1403715887724058000,-0.003222346305847168,0.01629815250635147,0.08009520173072815,9.069958686828613,0.4113488793373108,-3.645781993865967
1403715887729058000,-0.003213837742805481,0.020500410348176956,0.08079717308282852,9.045365333557129,0.4197690486907959,-3.637540102005005
1403715887734058000,-0.0039009153842926025,0.0246739499270916,0.07862716168165207,9.102606773376465,0.3952980935573578,-3.6621270179748535
1403715887739058000,-0.002497360110282898,0.02119934931397438,0.0744023248553276,9.118646621704102,0.435822457075119,-3.6785950660705566
1403715887744058000,-0.0011167675256729126,0.022573061287403107,0.07656519114971161,9.053271293640137,0.39532867074012756,-3.637769937515259
1403715887749058000,-0.0011144205927848816,0.019085124135017395,0.07659170031547546,9.069842338562012,0.4114329516887665,-3.6539878845214844
1403715887754058000,-0.00040972232818603516,0.021875333040952682,0.07868492603302002,9.110719680786133,0.42782530188560486,-3.670281171798706
1403715887759058000,-0.00042325258255004883,0.021880213171243668,0.07731086015701294,9.077869415283203,0.4116675853729248,-3.621262788772583
1403715887764058000,-0.0018275268375873566,0.017009519040584564,0.07513441890478134,9.05339241027832,0.38700780272483826,-3.629441261291504
1403715887769058000,-0.002533525228500366,0.01558663323521614,0.07859410345554352,9.086358070373535,0.37872782349586487,-3.6458017826080322
1403715887774058000,0.00027315691113471985,0.01555442065000534,0.08006647229194641,9.045318603515625,0.419667512178421,-3.6212997436523438
1403715887779058000,0.0002670660614967346,0.02116703987121582,0.0794203132390976,9.05369758605957,0.411670982837677,-3.6048572063446045
1403715887784058000,-0.0004326850175857544,0.016349688172340393,0.07657702267169952,9.06178092956543,0.42776480317115784,-3.6293716430664062
1403715887789058000,-0.0032468661665916443,0.02052433043718338,0.07933223247528076,9.053704261779785,0.46053722500801086,-3.6212377548217773
1403715887794058000,-0.0018146634101867676,0.02189936861395836,0.07863082736730576,9.053557395935059,0.4361748993396759,-3.645643711090088
1403715887799058000,-0.0032038092613220215,0.02119068056344986,0.0786425992846489,9.086337089538574,0.4848872423171997,-3.6704025268554688
1403715887804058000,-0.002507321536540985,0.021171122789382935,0.075887531042099,9.094407081604004,0.43619465827941895,-3.61322283744812
1403715887809058000,-0.0011011362075805664,0.020509660243988037,0.07727954536676407,9.102218627929688,0.42783322930336,-3.645724296569824
1403715887814058000,-0.0011065155267715454,0.019810188561677933,0.07794376462697983,9.110660552978516,0.4359950125217438,-3.637641668319702
1403715887819058000,-0.002526119351387024,0.019058335572481155,0.07794298231601715,9.077657699584961,0.41976258158683777,-3.6538751125335693
1403715887824058000,-0.0032308250665664673,0.02465081959962845,0.07799837738275528,9.102518081665039,0.38712021708488464,-3.64581561088562
1403715887829058000,-0.002487868070602417,0.017739802598953247,0.07727053016424179,9.118562698364258,0.4521927833557129,-3.6866726875305176
1403715887834058000,-0.0011028200387954712,0.02046419307589531,0.0730079934000969,9.053260803222656,0.3954564034938812,-3.6705193519592285
1403715887839058000,-0.002528540790081024,0.023943603038787842,0.07795725762844086,9.069836616516113,0.3706382215023041,-3.6622958183288574
1403715887844058000,-0.00040977075695991516,0.022602688521146774,0.07662376016378403,9.127123832702637,0.40330034494400024,-3.645869731903076
1403715887849058000,0.0009723156690597534,0.017691537737846375,0.07588643580675125,9.061415672302246,0.40357616543769836,-3.6130058765411377
1403715887854058000,-0.001138441264629364,0.019058942794799805,0.07303919643163681,9.069745063781738,0.3788992166519165,-3.670258045196533
1403715887859058000,-0.0039554983377456665,0.01838754117488861,0.07655017077922821,9.070098876953125,0.3542347252368927,-3.6213932037353516
1403715887864058000,-0.0025345832109451294,0.019068993628025055,0.07728681713342667,9.028878211975098,0.3707120418548584,-3.6048078536987305
1403715887869058000,-0.0011171996593475342,0.020473051816225052,0.07728461921215057,9.053647994995117,0.32995229959487915,-3.6538245677948
1403715887874058000,0.0031032785773277283,0.019830353558063507,0.08079785108566284,9.0863618850708,0.40311703085899353,-3.645933151245117
1403715887879058000,-0.00044088810682296753,0.018390633165836334,0.08287650346755981,9.045207977294922,0.4197823703289032,-3.6540510654449463
1403715887884058000,-0.0018412694334983826,0.018322061747312546,0.07647541165351868,9.086256980895996,0.3218192756175995,-3.6622703075408936
1403715887889058000,-0.003948498517274857,0.01630227267742157,0.07719122618436813,9.094261169433594,0.39476171135902405,-3.637862205505371
1403715887894058000,-0.0018250495195388794,0.017719998955726624,0.07660795003175735,9.06153678894043,0.378998339176178,-3.6129908561706543
1403715887899058000,-0.0011112764477729797,0.019790779799222946,0.07942231744527817,9.1024808883667,0.35444918274879456,-3.637545347213745
1403715887904058000,0.0010046958923339844,0.016308046877384186,0.07656429708003998,9.126914978027344,0.4193446636199951,-3.637664794921875
1403715887909058000,-0.001136094331741333,0.018378447741270065,0.07513836026191711,9.085809707641602,0.41977590322494507,-3.645681619644165
1403715887914058000,-0.003255315124988556,0.02116972580552101,0.07655772566795349,9.06152629852295,0.3707473576068878,-3.6540684700012207
1403715887919058000,-0.005338858813047409,0.015618622303009033,0.07512839138507843,9.094377517700195,0.40295925736427307,-3.6540937423706055
1403715887924058000,-0.0010936260223388672,0.017678167670965195,0.0786762535572052,9.06159496307373,0.37894245982170105,-3.621211528778076
1403715887929058000,-0.0003984086215496063,0.019086599349975586,0.08015928417444229,9.086204528808594,0.370704710483551,-3.6374948024749756
1403715887934058000,-0.0011205747723579407,0.01911891996860504,0.07726650685071945,9.03725528717041,0.4194669723510742,-3.621232271194458
1403715887939058000,-0.005361156538128853,0.017682496458292007,0.07438070327043533,9.07827091217041,0.4116220474243164,-3.621077299118042
1403715887944058000,-0.0025132298469543457,0.017680704593658447,0.07723040133714676,9.11071491241455,0.4115402102470398,-3.6375677585601807
1403715887949058000,-0.0018149986863136292,0.019099406898021698,0.07942402362823486,9.077876091003418,0.40324971079826355,-3.621305465698242
1403715887954058000,0.0024126581847667694,0.02187226340174675,0.07661047577857971,9.102534294128418,0.41968828439712524,-3.621234893798828
1403715887959058000,-0.0011289939284324646,0.020497918128967285,0.0744381844997406,9.069558143615723,0.4197201430797577,-3.670140504837036
1403715887964058000,-0.001125827431678772,0.01771659404039383,0.07513321191072464,9.086143493652344,0.39509594440460205,-3.678542137145996
1403715887969058000,0.0009617805480957031,0.02396552637219429,0.07584558427333832,9.102580070495605,0.4522475004196167,-3.6213395595550537
1403715887974058000,-0.003251791000366211,0.02117764577269554,0.07727627456188202,9.069607734680176,0.4280450940132141,-3.637465238571167
1403715887979058000,0.00029549747705459595,0.019084978848695755,0.07241109013557434,9.078038215637207,0.39509519934654236,-3.6539580821990967
1403715887984058000,0.0002757348120212555,0.021187011152505875,0.07377775758504868,9.078027725219727,0.4357922077178955,-3.653837203979492
1403715887989058000,-0.004633352160453796,0.019098516553640366,0.0765458270907402,9.110722541809082,0.41175124049186707,-3.653900384902954
1403715887994058000,0.00028875842690467834,0.018378056585788727,0.0800614207983017,9.094253540039062,0.4605080187320709,-3.6378226280212402
1403715887999058000,0.00027236342430114746,0.02256382629275322,0.07941007614135742,9.078001976013184,0.45242390036582947,-3.621328592300415
1403715888004058000,-0.0011013597249984741,0.021221544593572617,0.07726819068193436,9.102433204650879,0.38714131712913513,-3.6456360816955566
1403715888009058000,-0.0039407238364219666,0.017703350633382797,0.07790355384349823,9.086069107055664,0.41137373447418213,-3.6457507610321045
1403715888014058000,-0.004630114883184433,0.015549372881650925,0.07510276883840561,9.05351448059082,0.4360805153846741,-3.629378080368042
1403715888019058000,-0.0024957843124866486,0.021172400563955307,0.0779852345585823,9.086267471313477,0.39539626240730286,-3.6539220809936523
1403715888024058000,-0.004618838429450989,0.019841548055410385,0.07453589141368866,9.086116790771484,0.41950419545173645,-3.6622262001037598
1403715888029058000,-0.00039025023579597473,0.021195847541093826,0.07798599451780319,9.086161613464355,0.3952983319759369,-3.6376452445983887
1403715888034058000,-0.0032154060900211334,0.02119426429271698,0.07933425903320312,9.086002349853516,0.38706573843955994,-3.678454637527466
1403715888039058000,-0.0017862766981124878,0.019795283675193787,0.07720491290092468,9.118901252746582,0.4685620367527008,-3.6787283420562744
1403715888044058000,-0.002524271607398987,0.01905994862318039,0.07653690874576569,9.069575309753418,0.4688965082168579,-3.670438051223755
1403715888049058000,-0.00250263512134552,0.018385544419288635,0.07869024574756622,9.069863319396973,0.40346410870552063,-3.662344455718994
1403715888054058000,-0.0004064291715621948,0.020527951419353485,0.07517148554325104,9.078055381774902,0.38678258657455444,-3.629498243331909
1403715888059058000,0.0016701295971870422,0.022597141563892365,0.0744580328464508,9.061604499816895,0.3870336413383484,-3.6291940212249756
1403715888064058000,0.000256858766078949,0.01976362243294716,0.07729475945234299,9.078104972839355,0.3789779841899872,-3.637519121170044
1403715888069058000,-0.003959096968173981,0.02046375721693039,0.07518518716096878,9.069802284240723,0.41958335041999817,-3.6458323001861572
1403715888074058000,-0.006036851555109024,0.023975174874067307,0.07654067873954773,9.094365119934082,0.4361334443092346,-3.662165403366089
1403715888079058000,-0.0024989619851112366,0.021192830055952072,0.07796213775873184,9.094206809997559,0.39533281326293945,-3.65415358543396
1403715888084058000,-0.0017876699566841125,0.022586394101381302,0.07868854701519012,9.110515594482422,0.4358520209789276,-3.654143810272217
1403715888089058000,-0.003214515745639801,0.022583607584238052,0.07866397500038147,9.07784366607666,0.4035438597202301,-3.629439115524292
1403715888094058000,-0.003918848931789398,0.02048797905445099,0.07652860879898071,9.069685935974121,0.4278814494609833,-3.653869390487671
1403715888099058000,0.0010118335485458374,0.019061915576457977,0.0765540674328804,9.053528785705566,0.43595585227012634,-3.670243740081787
1403715888104058000,0.0009814724326133728,0.017665784806013107,0.07938889414072037,9.086389541625977,0.38707655668258667,-3.629504680633545
1403715888109058000,-0.002531878650188446,0.020498190075159073,0.07937365025281906,9.118778228759766,0.3869633674621582,-3.6213157176971436
1403715888114058000,0.0002857223153114319,0.017001744359731674,0.07514867186546326,9.126766204833984,0.3869709074497223,-3.645761013031006
1403715888119058000,-0.003959771245718002,0.01906665414571762,0.07584865391254425,9.069609642028809,0.37897610664367676,-3.6213581562042236
1403715888124058000,-0.0018355324864387512,0.018390938639640808,0.07936984300613403,9.045268058776855,0.37066709995269775,-3.621206760406494
1403715888129058000,0.0002655535936355591,0.016993794590234756,0.07867587357759476,9.102672576904297,0.38698554039001465,-3.637484550476074
1403715888134058000,0.0024125464260578156,0.01769416034221649,0.0765644907951355,9.094243049621582,0.4605296850204468,-3.6375603675842285
1403715888139058000,-0.003953650593757629,0.021904196590185165,0.07657702267169952,9.06156063079834,0.4117388129234314,-3.6458072662353516
1403715888144058000,-0.0018377751111984253,0.01982741802930832,0.07865716516971588,9.086262702941895,0.3868577480316162,-3.6540842056274414
1403715888149058000,-0.002520255744457245,0.021879024803638458,0.07793111354112625,9.102434158325195,0.4114115834236145,-3.662073850631714
1403715888154058000,-0.0039028599858283997,0.021860305219888687,0.0751619040966034,9.085896492004395,0.34636253118515015,-3.678389072418213
1403715888159058000,-0.002506207674741745,0.020488932728767395,0.07660872489213943,9.102611541748047,0.4357747733592987,-3.637864589691162
1403715888164058000,-0.003915451467037201,0.019078999757766724,0.07656485587358475,9.077836036682129,0.4442915618419647,-3.645740032196045
1403715888169058000,-0.0010840706527233124,0.02047865092754364,0.07792764902114868,9.118915557861328,0.4279922544956207,-3.6458351612091064
1403715888174058000,-0.003242097795009613,0.02050032466650009,0.07868670672178268,9.110408782958984,0.378775954246521,-3.637632369995117
1403715888179058000,0.0010028965771198273,0.017688479274511337,0.07518024742603302,9.045137405395508,0.4112968444824219,-3.637545347213745
1403715888184058000,-0.001823820173740387,0.018357619643211365,0.07723937183618546,9.08636474609375,0.3872503936290741,-3.653899908065796
1403715888189058000,-0.005324477329850197,0.020492620766162872,0.07935143262147903,9.094318389892578,0.4196254014968872,-3.654036045074463
1403715888194058000,-0.00041335076093673706,0.02120620384812355,0.07727375626564026,9.0697660446167,0.4441886246204376,-3.6376330852508545
1403715888199058000,-0.003933846950531006,0.023282483220100403,0.07939587533473969,9.094432830810547,0.395335853099823,-3.6457529067993164
1403715888204058000,-0.0031819455325603485,0.01982198655605316,0.08076374977827072,9.110665321350098,0.4766824543476105,-3.6622118949890137
1403715888209058000,-0.004626154899597168,0.017701469361782074,0.07579624652862549,9.086127281188965,0.5096439123153687,-3.64581561088562
1403715888214058000,-0.0017942823469638824,0.019050996750593185,0.0793287605047226,9.069878578186035,0.4281572103500366,-3.613142728805542
1403715888219058000,-0.0011096447706222534,0.01699671894311905,0.0765874981880188,9.086101531982422,0.3949260413646698,-3.645695924758911
1403715888224058000,-0.0032180994749069214,0.02052946388721466,0.07657737284898758,9.078019142150879,0.4440790116786957,-3.670124053955078
1403715888229058000,-0.0011060386896133423,0.024003397673368454,0.07656843215227127,9.061720848083496,0.41185376048088074,-3.6457738876342773
1403715888234058000,-0.003931477665901184,0.02188195288181305,0.07656025141477585,9.094342231750488,0.3787558972835541,-3.6459357738494873
1403715888239058000,-0.003209110349416733,0.018363501876592636,0.07937559485435486,9.069782257080078,0.44401052594184875,-3.6458609104156494
1403715888244058000,-0.003228224813938141,0.019052457064390182,0.07584511488676071,9.037090301513672,0.40367066860198975,-3.6784017086029053
1403715888249058000,-0.0032049231231212616,0.019104167819023132,0.07582702487707138,9.053689956665039,0.37061548233032227,-3.678683042526245
1403715888254058000,-0.0039171501994132996,0.019124209880828857,0.07517758011817932,9.05363941192627,0.4194547235965729,-3.6459434032440186
1403715888259058000,-0.003231629729270935,0.0211934894323349,0.07728005945682526,9.037271499633789,0.3710695505142212,-3.621281147003174
1403715888264058000,-0.005320016294717789,0.017701640725135803,0.08079966902732849,9.094535827636719,0.3870585858821869,-3.6295812129974365
1403715888269058000,-0.003184370696544647,0.02186138555407524,0.0772772952914238,9.08616828918457,0.4930558204650879,-3.6212961673736572
1403715888274058000,0.0010138414800167084,0.018369071185588837,0.07651387155056,9.094198226928711,0.44454512000083923,-3.65389084815979
1403715888279058000,-0.0018195398151874542,0.019099369645118713,0.0772252082824707,9.094125747680664,0.37874338030815125,-3.6705708503723145
1403715888284058000,-0.0018239282071590424,0.018418997526168823,0.07865754514932632,9.077823638916016,0.4030141234397888,-3.6459853649139404
1403715888289058000,0.0009678751230239868,0.019092172384262085,0.07589215785264969,9.08602237701416,0.39538607001304626,-3.653899908065796
1403715888294058000,-0.0004218965768814087,0.019085731357336044,0.07799812406301498,9.12689208984375,0.39523881673812866,-3.662245035171509
1403715888299058000,-0.001827523112297058,0.016996439546346664,0.07865992188453674,9.077609062194824,0.4194449782371521,-3.6785781383514404
1403715888304058000,-0.004651125520467758,0.020491432398557663,0.07791277766227722,9.069964408874512,0.42796769738197327,-3.6458771228790283
1403715888309058000,-0.003214888274669647,0.01839727908372879,0.0765216052532196,9.086114883422852,0.3708060383796692,-3.6458001136779785
1403715888314058000,-0.0025198422372341156,0.016992829740047455,0.07939798384904861,9.061728477478027,0.4275999367237091,-3.6131889820098877
1403715888319058000,0.00028186291456222534,0.021173160523176193,0.07519275695085526,9.0535306930542,0.3872520923614502,-3.621021270751953
1403715888324058000,-0.00252716988325119,0.019102785736322403,0.0772402286529541,9.094482421875,0.3462502956390381,-3.6457481384277344
1403715888329058000,0.0024088844656944275,0.01908378303050995,0.07727429270744324,9.086006164550781,0.3786068856716156,-3.6539971828460693
1403715888334058000,-0.002548322081565857,0.02607065811753273,0.07728899270296097,9.086181640625,0.4605793058872223,-3.6458256244659424
1403715888339058000,-0.0039314404129981995,0.02261028066277504,0.0772576853632927,9.053388595581055,0.4036894738674164,-3.629552125930786
1403715888344058000,-0.003226645290851593,0.02256474271416664,0.07655280828475952,9.086181640625,0.3949209153652191,-3.629483938217163
1403715888349058000,-0.004613451659679413,0.019044313579797745,0.07727119326591492,9.102497100830078,0.4033612310886383,-3.629209518432617
1403715888354058000,-0.00461471825838089,0.02046213299036026,0.08009116351604462,9.086026191711426,0.3709266781806946,-3.6292989253997803
1403715888359058000,-0.0039209648966789246,0.019795726984739304,0.08006490021944046,9.053428649902344,0.42767593264579773,-3.64585018157959
1403715888364058000,-0.0031861625611782074,0.017700660973787308,0.07864727079868317,9.078216552734375,0.4605131447315216,-3.653980016708374
1403715888369058000,-0.003199540078639984,0.017006468027830124,0.07581793516874313,9.077837944030762,0.3790284991264343,-3.67850923538208
1403715888374058000,0.00031275302171707153,0.016990039497613907,0.07581938803195953,9.118805885314941,0.40295881032943726,-3.6869192123413086
1403715888379058000,0.002403099089860916,0.01768309250473976,0.07797727733850479,9.045305252075195,0.47677376866340637,-3.629636764526367
1403715888384058000,-0.001844063401222229,0.019099615514278412,0.07801292091608047,9.061809539794922,0.40375322103500366,-3.6212589740753174
1403715888389058000,-0.006748795509338379,0.01914968714118004,0.0779733806848526,9.11069393157959,0.4520697295665741,-3.678417444229126
1403715888394058000,-0.003923524171113968,0.017023414373397827,0.07722790539264679,9.05347728729248,0.43605664372444153,-3.645765542984009
1403715888399058000,-0.0018018782138824463,0.020461149513721466,0.07791509479284286,9.078031539916992,0.3790028691291809,-3.6621780395507812
1403715888404058000,-0.0010934211313724518,0.019791260361671448,0.08006022870540619,9.135229110717773,0.39496639370918274,-3.6706130504608154
1403715888409058000,-0.0011267662048339844,0.019805874675512314,0.07729244232177734,9.061243057250977,0.39518308639526367,-3.645902156829834
1403715888414058000,-0.003250114619731903,0.019778653979301453,0.07939295470714569,9.012702941894531,0.34641653299331665,-3.6131534576416016
1403715888419058000,-0.002529636025428772,0.021173205226659775,0.07514789700508118,9.045552253723145,0.37863704562187195,-3.6374168395996094
1403715888424058000,-0.00041360408067703247,0.017682749778032303,0.07651081681251526,9.078166007995605,0.39521896839141846,-3.653811454772949
1403715888429058000,-0.002498641610145569,0.023959696292877197,0.07657645642757416,9.110648155212402,0.42799684405326843,-3.66219425201416
1403715888434058000,-0.00039887428283691406,0.02330329269170761,0.07659949362277985,9.085917472839355,0.38706642389297485,-3.662443161010742
1403715888439058000,0.0009690187871456146,0.01911068707704544,0.08078868687152863,9.037054061889648,0.435793936252594,-3.6542258262634277
1403715888444058000,0.0009588934481143951,0.020438123494386673,0.07865791767835617,9.070052146911621,0.4035705327987671,-3.6212680339813232
1403715888449058000,-0.0018494762480258942,0.02256026118993759,0.07580557465553284,9.09419059753418,0.39512506127357483,-3.6373801231384277
1403715888454058000,-0.003227613866329193,0.01911710947751999,0.07654254883527756,9.11068344116211,0.4522172808647156,-3.637571096420288
1403715888459058000,-0.0011032149195671082,0.02397741749882698,0.07939732819795609,9.053359985351562,0.46067535877227783,-3.6375629901885986
1403715888464058000,-0.002533573657274246,0.018408488482236862,0.07378271967172623,9.05353832244873,0.3952234983444214,-3.6458702087402344
1403715888469058000,-0.001810610294342041,0.02187996730208397,0.07375483214855194,9.094407081604004,0.4519883990287781,-3.6457724571228027
1403715888474058000,-0.0018238350749015808,0.018349573016166687,0.07587594538927078,9.061454772949219,0.37907537817955017,-3.661999225616455
1403715888479058000,0.001006539911031723,0.016283292323350906,0.07515888661146164,9.143380165100098,0.3705648183822632,-3.686875104904175
1403715888484058000,-0.002539161592721939,0.014920607209205627,0.07443755120038986,9.143152236938477,0.4032488763332367,-3.6297736167907715
1403715888489058000,-0.002529378980398178,0.020486600697040558,0.07519542425870895,9.036576271057129,0.40350037813186646,-3.6375339031219482
1403715888494058000,0.00027669593691825867,0.017004769295454025,0.07591044902801514,9.045512199401855,0.3299178183078766,-3.6376352310180664
1403715888499058000,-0.0018233954906463623,0.0169929638504982,0.07865221798419952,9.086255073547363,0.3703419268131256,-3.645660877227783
1403715888504058000,-0.001127675175666809,0.022572338581085205,0.07935569435358047,9.077991485595703,0.38723915815353394,-3.6374757289886475
1403715888509058000,0.00026942789554595947,0.022597786039114,0.08149922639131546,9.077903747558594,0.3626623749732971,-3.6704046726226807
1403715888514058000,0.0023964643478393555,0.02327655255794525,0.07935648411512375,9.11076831817627,0.38683104515075684,-3.646155834197998
1403715888519058000,0.0009633637964725494,0.023979824036359787,0.07859209179878235,9.069564819335938,0.44418588280677795,-3.6293752193450928
1403715888524058000,0.004465207457542419,0.023286305367946625,0.07865271717309952,9.06981086730957,0.379116952419281,-3.6293179988861084
1403715888529058000,-0.0018510855734348297,0.02395528554916382,0.07939525693655014,9.094310760498047,0.43566036224365234,-3.662001609802246
1403715888534058000,0.0002851560711860657,0.0176580511033535,0.07796767354011536,9.094359397888184,0.4360652565956116,-3.653923988342285
1403715888539058000,-0.002574123442173004,0.021167106926441193,0.07865804433822632,9.028886795043945,0.379010409116745,-3.621272563934326
1403715888544058000,-0.003219880163669586,0.017699889838695526,0.07934867590665817,9.070080757141113,0.403067022562027,-3.62947154045105
1403715888549058000,-0.0025131814181804657,0.019058633595705032,0.07934495061635971,9.102560043334961,0.3788568675518036,-3.6456053256988525
1403715888554058000,-0.0018097274005413055,0.01978956162929535,0.07864759862422943,9.069682121276855,0.4278492331504822,-3.653958797454834
1403715888559058000,-0.003195822238922119,0.018417663872241974,0.07866974174976349,9.118887901306152,0.4196738600730896,-3.6868104934692383
1403715888564058000,-0.004605218768119812,0.01631772518157959,0.07514725625514984,9.077947616577148,0.5012404322624207,-3.646130323410034
1403715888569058000,0.00030126050114631653,0.019758157432079315,0.07374760508537292,9.069733619689941,0.37918248772621155,-3.6049821376800537
1403715888574058000,-0.0025201253592967987,0.018411435186862946,0.0702626183629036,9.094106674194336,0.3458453118801117,-3.670100450515747
1403715888579058000,-0.0046071261167526245,0.015636511147022247,0.07239170372486115,9.110685348510742,0.4276629090309143,-3.6784651279449463
1403715888584058000,-0.004633970558643341,0.020480629056692123,0.07663009315729141,9.061537742614746,0.41189369559288025,-3.637697219848633
1403715888589058000,-0.00109906867146492,0.017006397247314453,0.07518332451581955,9.053428649902344,0.37877920269966125,-3.6541731357574463
1403715888594058000,-0.0004101209342479706,0.01628628373146057,0.07443228363990784,9.094457626342773,0.37851300835609436,-3.654064893722534
1403715888599058000,0.0002851337194442749,0.02466777339577675,0.07724800705909729,9.094195365905762,0.436150461435318,-3.6620190143585205
1403715888604058000,-0.003941543400287628,0.02262992039322853,0.08007332682609558,9.086092948913574,0.3791094422340393,-3.662231922149658
1403715888609058000,-0.006030824035406113,0.021889541298151016,0.07938239723443985,9.094237327575684,0.3786330223083496,-3.662360668182373
1403715888614058000,-0.00180782750248909,0.01834316924214363,0.08007653057575226,9.086090087890625,0.40335988998413086,-3.6540160179138184
1403715888619058000,-0.003913164138793945,0.021158557385206223,0.07936229556798935,9.102423667907715,0.38727378845214844,-3.6457672119140625
1403715888624058000,-0.002480439841747284,0.02188488095998764,0.07860526442527771,9.143142700195312,0.38691702485084534,-3.6622190475463867
1403715888629058000,-0.0032249130308628082,0.020494364202022552,0.07931338995695114,9.094106674194336,0.4440327286720276,-3.637683868408203
1403715888634058000,-0.0018206201493740082,0.02189517393708229,0.08010462671518326,9.06152057647705,0.37918224930763245,-3.629380464553833
1403715888639058000,-0.0011129230260849,0.020478088408708572,0.08009932935237885,9.102498054504395,0.38679707050323486,-3.6702346801757812
1403715888644058000,0.000298965722322464,0.019043032079935074,0.07580526173114777,9.06971549987793,0.435834139585495,-3.6702613830566406
1403715888649058000,-0.0004092007875442505,0.02256973460316658,0.07510378956794739,9.06180191040039,0.4607064425945282,-3.645814895629883
1403715888654058000,-0.0011376626789569855,0.019132789224386215,0.07447967678308487,9.086244583129883,0.37893062829971313,-3.6458840370178223
1403715888659058000,-0.0011425800621509552,0.019113264977931976,0.07660659402608871,9.061634063720703,0.43559855222702026,-3.645796060562134
1403715888664058000,-0.0011448673903942108,0.01906166970729828,0.07450450956821442,9.053722381591797,0.41176092624664307,-3.6129343509674072
1403715888669058000,-0.003933820873498917,0.020474903285503387,0.07588134706020355,9.102599143981934,0.4034050405025482,-3.637476921081543
1403715888674058000,-0.006738778203725815,0.017008386552333832,0.07303730398416519,9.061534881591797,0.4031918942928314,-3.6458165645599365
1403715888679058000,-0.0038975775241851807,0.019090373069047928,0.07723882049322128,9.069927215576172,0.43601754307746887,-3.6539931297302246
1403715888684058000,-0.0024910271167755127,0.023293573409318924,0.07589459419250488,9.126994132995605,0.3872646987438202,-3.6704134941101074
1403715888689058000,-0.0010875910520553589,0.018411949276924133,0.07940538227558136,9.069397926330566,0.38674119114875793,-3.6705403327941895
1403715888694058000,0.0002883300185203552,0.01906168833374977,0.07938145846128464,9.02083969116211,0.3951360583305359,-3.645925760269165
1403715888699058000,0.0030951909720897675,0.01978132501244545,0.0786181315779686,9.078336715698242,0.4116346836090088,-3.629394769668579
1403715888704058000,-0.0004477091133594513,0.020506419241428375,0.07861224561929703,9.05344009399414,0.4197257459163666,-3.6211612224578857
1403715888709058000,-0.0011368468403816223,0.02118637040257454,0.0786568820476532,9.086255073547363,0.4359457194805145,-3.66200852394104
1403715888714058000,-0.003246992826461792,0.01769920065999031,0.0758628323674202,9.078088760375977,0.4034602642059326,-3.645934581756592
1403715888719058000,-0.001810181885957718,0.023286830633878708,0.07938437163829803,9.077817916870117,0.40326952934265137,-3.6622486114501953
1403715888724058000,-0.002531304955482483,0.02397565171122551,0.08219139277935028,9.069916725158691,0.4360274076461792,-3.637759208679199
1403715888729058000,-0.0025302842259407043,0.018381301313638687,0.07512377947568893,9.045248985290527,0.42797228693962097,-3.6294171810150146
1403715888734058000,0.0010067448019981384,0.018376823514699936,0.07861046493053436,9.102522850036621,0.37881869077682495,-3.678452491760254
1403715888739058000,0.0002800747752189636,0.01838618889451027,0.07656645029783249,9.094264030456543,0.386806458234787,-3.654049873352051
1403715888744058000,-0.0011226609349250793,0.020488973706960678,0.07656644284725189,9.053319931030273,0.4360308051109314,-3.6458566188812256
1403715888749058000,0.00027378275990486145,0.01629619300365448,0.07658470422029495,9.069962501525879,0.38718706369400024,-3.6377620697021484
1403715888754058000,-0.0004137977957725525,0.017016910016536713,0.07658636569976807,9.06974983215332,0.4439150094985962,-3.6540229320526123
1403715888759058000,-0.0011306032538414001,0.019797615706920624,0.07446135580539703,9.086234092712402,0.40351566672325134,-3.6457359790802
1403715888764058000,-0.003252260386943817,0.01976827159523964,0.07090708613395691,9.110564231872559,0.39521411061286926,-3.645833730697632
1403715888769058000,-0.0011067241430282593,0.020491980016231537,0.07446292042732239,9.135025978088379,0.44408831000328064,-3.6459593772888184
1403715888774058000,-0.003231387585401535,0.01913043111562729,0.07736090570688248,9.036718368530273,0.4034843444824219,-3.6539628505706787
1403715888779058000,-0.004633694887161255,0.01978803053498268,0.07660280168056488,9.078243255615234,0.3788882791996002,-3.621410846710205
1403715888784058000,0.001012410968542099,0.023249033838510513,0.08005572855472565,9.102450370788574,0.41954922676086426,-3.6210362911224365
1403715888789058000,-0.0018108785152435303,0.021196305751800537,0.07934904098510742,9.077957153320312,0.45255109667778015,-3.6210806369781494
1403715888794058000,-0.00040492787957191467,0.02259412407875061,0.08001840859651566,9.077946662902832,0.3871789276599884,-3.6457481384277344
1403715888799058000,0.0002634413540363312,0.01697658747434616,0.07863473892211914,9.110660552978516,0.3622613251209259,-3.6622190475463867
1403715888804058000,-0.0032315999269485474,0.019038930535316467,0.08079557120800018,9.053377151489258,0.4033487141132355,-3.6212706565856934
1403715888809058000,-0.003931991755962372,0.017674174159765244,0.0779900848865509,9.078082084655762,0.3954598903656006,-3.6293766498565674
1403715888814058000,-0.004641488194465637,0.02120353654026985,0.07511409372091293,9.086196899414062,0.3951413929462433,-3.6294312477111816
1403715888819058000,-0.0010844767093658447,0.01703697070479393,0.0751214474439621,9.086130142211914,0.44405537843704224,-3.6375067234039307
1403715888824058000,-0.00041410326957702637,0.019779380410909653,0.07518739998340607,9.037229537963867,0.4362504780292511,-3.621175765991211
1403715888829058000,-0.002542652189731598,0.016972150653600693,0.07658897340297699,9.029143333435059,0.3951515257358551,-3.629415988922119
1403715888834058000,-0.0032182112336158752,0.019090082496404648,0.07588313519954681,9.102865219116211,0.4602918326854706,-3.6376001834869385
1403715888839058000,-0.0011114813387393951,0.018416278064250946,0.07868434488773346,9.061644554138184,0.42816343903541565,-3.6048288345336914
1403715888844058000,-0.00042609870433807373,0.019803259521722794,0.07656285166740417,9.069853782653809,0.36257410049438477,-3.6049301624298096
1403715888849058000,-0.002533402293920517,0.01700398325920105,0.07441890239715576,9.078128814697266,0.41935601830482483,-3.604825496673584
1403715888854058000,-0.0011172108352184296,0.019068177789449692,0.07657982409000397,9.069811820983887,0.4525592625141144,-3.6209747791290283
1403715888859058000,-0.0011363700032234192,0.01907624676823616,0.07522258162498474,9.126995086669922,0.3791171908378601,-3.637582540512085
1403715888864058000,-0.002533331513404846,0.0177052803337574,0.07727684080600739,9.102129936218262,0.394840806722641,-3.654081106185913
1403715888869058000,-0.0004242435097694397,0.021885544061660767,0.07657016813755035,9.10246753692627,0.4198172390460968,-3.6213271617889404
1403715888874058000,-0.00112185999751091,0.02259371429681778,0.07865932583808899,9.061396598815918,0.4036501944065094,-3.6293160915374756
1403715888879058000,-0.003221984952688217,0.020486705005168915,0.08005804568529129,9.086226463317871,0.3950846791267395,-3.637575626373291
1403715888884058000,-0.0018257051706314087,0.01487145945429802,0.07792577147483826,9.077969551086426,0.41957947611808777,-3.6456191539764404
1403715888889058000,-0.0011120103299617767,0.020463276654481888,0.07654587924480438,9.08622932434082,0.4280446469783783,-3.6620678901672363
1403715888894058000,-0.0003995858132839203,0.021905098110437393,0.07868953794240952,9.110633850097656,0.3788682818412781,-3.670459747314453
1403715888899058000,-0.0011166110634803772,0.023314181715250015,0.08288969844579697,9.10244083404541,0.45212501287460327,-3.646019458770752
1403715888904058000,0.0016894042491912842,0.021905578672885895,0.08006178587675095,9.06164836883545,0.4771265387535095,-3.613055944442749
1403715888909058000,-0.00042841583490371704,0.01907285302877426,0.07581257820129395,9.11062240600586,0.4035148024559021,-3.670156478881836
1403715888914058000,-0.004637628793716431,0.016945194453001022,0.07651932537555695,9.118856430053711,0.4438648819923401,-3.6540560722351074
1403715888919058000,-0.003223855048418045,0.018358036875724792,0.07655135542154312,9.077742576599121,0.41983309388160706,-3.653881549835205
1403715888924058000,0.0017165131866931915,0.019848782569169998,0.0786866843700409,9.086213111877441,0.4197499752044678,-3.6704587936401367
1403715888929058000,-0.0039244890213012695,0.01914992928504944,0.07662130147218704,9.126888275146484,0.3869088590145111,-3.686800479888916
1403715888934058000,-0.003222912549972534,0.019790075719356537,0.07516150921583176,9.020687103271484,0.48488691449165344,-3.6295664310455322
1403715888939058000,-0.0018301308155059814,0.019047144800424576,0.07791430503129959,9.021080017089844,0.3955952525138855,-3.637457847595215
1403715888944058000,-0.007408251985907555,0.02258157730102539,0.07651626318693161,9.078375816345215,0.44391268491744995,-3.670304775238037
1403715888949058000,-0.003900095820426941,0.017024189233779907,0.07588397711515427,9.053711891174316,0.4443094730377197,-3.6049535274505615
1403715888954058000,0.0003070048987865448,0.021893374621868134,0.08084986358880997,9.053515434265137,0.4035649597644806,-3.637507438659668
1403715888959058000,-0.0024876073002815247,0.02050013095140457,0.07656408846378326,9.102622985839844,0.36246320605278015,-3.6786298751831055
1403715888964058000,0.0002806447446346283,0.017674267292022705,0.08070631325244904,9.102398872375488,0.37870684266090393,-3.6296799182891846
1403715888969058000,0.0002482868731021881,0.020453307777643204,0.07935591042041779,9.085917472839355,0.4199335277080536,-3.6212880611419678
1403715888974058000,-0.003223773092031479,0.019092176109552383,0.07796132564544678,9.09421443939209,0.3953145146369934,-3.6376402378082275
1403715888979058000,0.000990070402622223,0.017703328281641006,0.07725715637207031,9.118659019470215,0.41138485074043274,-3.6458563804626465
1403715888984058000,-0.0025567784905433655,0.01837838813662529,0.07584524899721146,9.053264617919922,0.43606680631637573,-3.6293418407440186
1403715888989058000,-0.0011092424392700195,0.019090685993433,0.07657884061336517,9.086214065551758,0.38723450899124146,-3.637563467025757
1403715888994058000,-0.003957182168960571,0.021208684891462326,0.07519063353538513,9.118873596191406,0.42770636081695557,-3.6213130950927734
1403715888999058000,-0.005338555201888084,0.019093718379735947,0.07585512101650238,9.028719902038574,0.43610715866088867,-3.621089458465576
1403715889004058000,0.0010154172778129578,0.02117263898253441,0.07728802412748337,9.07824993133545,0.37899231910705566,-3.6538472175598145
1403715889009058000,-0.0011125318706035614,0.019799519330263138,0.07585358619689941,9.086162567138672,0.3948768675327301,-3.670283794403076
1403715889014058000,-0.0025116577744483948,0.019781704992055893,0.07373460382223129,9.061705589294434,0.4441516399383545,-3.6295008659362793
1403715889019058000,-0.0025320015847682953,0.019085660576820374,0.07588350772857666,9.069864273071289,0.4199349880218506,-3.645789384841919
1403715889024058000,-0.0018161945044994354,0.01978817954659462,0.07871242612600327,9.110705375671387,0.34612593054771423,-3.6540989875793457
1403715889029058000,-0.0004141181707382202,0.019786175340414047,0.07516784220933914,9.094079971313477,0.3785967528820038,-3.645770311355591
1403715889034058000,-0.0025518834590911865,0.016973990947008133,0.07725696265697479,9.045512199401855,0.4118075370788574,-3.5558979511260986
1403715889039058000,-0.003221087157726288,0.02046317607164383,0.07798226177692413,9.118755340576172,0.39538246393203735,-3.629166841506958
1403715889044058000,-0.002512585371732712,0.0219045989215374,0.07794321328401566,9.110461235046387,0.41947710514068604,-3.6784512996673584
1403715889049058000,-0.0032376721501350403,0.01840483397245407,0.07513149082660675,9.03695011138916,0.39525023102760315,-3.645853281021118
1403715889054058000,-0.0011038891971111298,0.02255970612168312,0.07799355685710907,9.11080551147461,0.3707410395145416,-3.6622540950775146
1403715889059058000,-0.001106254756450653,0.019099660217761993,0.0772995799779892,9.094220161437988,0.4195047616958618,-3.6295695304870605
1403715889064058000,-0.002527974545955658,0.017678208649158478,0.07794411480426788,9.077911376953125,0.4116991460323334,-3.596710205078125
1403715889069058000,-0.0018384791910648346,0.020447615534067154,0.07936239242553711,9.102540016174316,0.3626526892185211,-3.6128463745117188
1403715889074058000,-0.0025259368121623993,0.016322873532772064,0.07516592741012573,9.102404594421387,0.42756250500679016,-3.645573854446411
1403715889079058000,-0.001813642680644989,0.017004862427711487,0.07583396881818771,9.045295715332031,0.41166508197784424,-3.6293601989746094
1403715889084058000,-0.0025280416011810303,0.019770871847867966,0.07796961069107056,9.061930656433105,0.4441980719566345,-3.6049704551696777
1403715889089058000,-0.0011108070611953735,0.021902263164520264,0.0765964612364769,9.094305038452148,0.41966933012008667,-3.6538243293762207
1403715889094058000,-0.0018111318349838257,0.01773090288043022,0.08008935302495956,9.094408988952637,0.46861690282821655,-3.662144899368286
1403715889099058000,-0.0011190921068191528,0.016275636851787567,0.07654383778572083,9.061634063720703,0.42800793051719666,-3.6458637714385986
1403715889104058000,-0.0025246143341064453,0.019083812832832336,0.07720980793237686,9.09435749053955,0.395009845495224,-3.6785025596618652
1403715889109058000,-0.0025124475359916687,0.019121676683425903,0.07724364101886749,9.061767578125,0.46038296818733215,-3.629544496536255
1403715889114058000,-0.0011195018887519836,0.01910262182354927,0.07587012648582458,9.045361518859863,0.4281100332736969,-3.621108055114746
1403715889119058000,-0.0046278685331344604,0.021210264414548874,0.0751955509185791,9.11078929901123,0.4033394455909729,-3.6783947944641113
1403715889124058000,-0.0024996399879455566,0.014907069504261017,0.0779852643609047,9.118714332580566,0.3786698281764984,-3.678652286529541
1403715889129058000,-0.0018100626766681671,0.019037947058677673,0.07795172929763794,9.085981369018555,0.4442283511161804,-3.6542139053344727
1403715889134058000,-0.00322028249502182,0.019073542207479477,0.07724621146917343,9.08614730834961,0.3873681426048279,-3.6215014457702637
1403715889139058000,0.0002982728183269501,0.018438704311847687,0.07795034348964691,9.126729965209961,0.37866920232772827,-3.662179470062256
1403715889144058000,-0.0004242360591888428,0.019813869148492813,0.07585947215557098,9.069597244262695,0.4196236729621887,-3.653897285461426
1403715889149058000,-0.0011226609349250793,0.021868251264095306,0.07937555015087128,9.037250518798828,0.4117928445339203,-3.6211965084075928
1403715889154058000,-0.0032364018261432648,0.021181676536798477,0.07587166875600815,9.15165901184082,0.4115298092365265,-3.67031192779541
1403715889159058000,-0.0011118650436401367,0.022568777203559875,0.08078177273273468,9.06950569152832,0.41957080364227295,-3.6458544731140137
1403715889164058000,-0.0039324164390563965,0.019789379090070724,0.07586696743965149,9.069801330566406,0.40351101756095886,-3.6458144187927246
1403715889169058000,0.0017201192677021027,0.021205011755228043,0.07860620319843292,9.078082084655762,0.45223185420036316,-3.6784889698028564
1403715889174058000,-0.002553679049015045,0.020474787801504135,0.07514776289463043,9.045404434204102,0.41975682973861694,-3.629483461380005
1403715889179058000,-0.0032348111271858215,0.023963671177625656,0.08010009676218033,8.996601104736328,0.41972851753234863,-3.555791139602661
1403715889184058000,-0.003230571746826172,0.021903816610574722,0.07799550145864487,9.078296661376953,0.4196901321411133,-3.6534645557403564
1403715889189058000,-0.0010940469801425934,0.0183766707777977,0.0779528021812439,9.13544750213623,0.4115838408470154,-3.6458215713500977
1403715889194058000,-0.003921005874872208,0.018351931124925613,0.07372990250587463,9.061348915100098,0.4441957175731659,-3.5968737602233887
1403715889199058000,-0.001821570098400116,0.01627039909362793,0.07444752752780914,9.069806098937988,0.37078365683555603,-3.629474401473999
1403715889204058000,-0.004625454545021057,0.017704982310533524,0.07939717173576355,9.110663414001465,0.41137632727622986,-3.654017925262451
1403715889209058000,-0.004620492458343506,0.019123010337352753,0.07872211933135986,9.02880859375,0.4198354184627533,-3.604882001876831
1403715889214058000,-0.001110956072807312,0.019122600555419922,0.07867448776960373,9.053744316101074,0.44428810477256775,-3.6047441959381104
1403715889219058000,0.0010121054947376251,0.01558905839920044,0.07511184364557266,9.102495193481445,0.3951717019081116,-3.6865391731262207
1403715889224058000,-0.0032110363245010376,0.019066445529460907,0.07508490979671478,9.094321250915527,0.4521721601486206,-3.662339210510254
1403715889229058000,-0.0032306313514709473,0.02051393687725067,0.0772649273276329,9.077776908874512,0.4280969500541687,-3.670431613922119
1403715889234058000,-0.004644397646188736,0.02121889591217041,0.07593753188848495,9.110722541809082,0.3543827533721924,-3.6460607051849365
1403715889239058000,-0.0046068355441093445,0.014214184135198593,0.07520654797554016,9.085829734802246,0.39492058753967285,-3.6458778381347656
1403715889244058000,-0.0003902837634086609,0.016971644014120102,0.078653484582901,9.061639785766602,0.4197973310947418,-3.6620371341705322
1403715889249058000,-0.0011120513081550598,0.021873872727155685,0.07650177925825119,9.06170654296875,0.40351083874702454,-3.6703171730041504
1403715889254058000,-0.0010999031364917755,0.023304153233766556,0.07792846113443375,9.118866920471191,0.4112960696220398,-3.68685245513916
1403715889259058000,0.0009823590517044067,0.019148148596286774,0.08008945733308792,9.036985397338867,0.49310025572776794,-3.6786818504333496
1403715889264058000,-0.0004371143877506256,0.019783373922109604,0.07798737287521362,9.045568466186523,0.4037260413169861,-3.6460578441619873
1403715889269058000,-0.0032290928065776825,0.021141692996025085,0.07863615453243256,9.069924354553223,0.3785983622074127,-3.6458683013916016
1403715889274058000,-0.004649922251701355,0.01835346221923828,0.07793586701154709,9.012813568115234,0.39509353041648865,-3.596627950668335
1403715889279058000,-0.003929905593395233,0.01699906960129738,0.07515818625688553,9.06200885772705,0.38729462027549744,-3.6046555042266846
1403715889284058000,0.00028995051980018616,0.020520921796560287,0.07447493821382523,9.094504356384277,0.3788627088069916,-3.5967118740081787
1403715889289058000,0.00027557089924812317,0.01770022138953209,0.07447146624326706,9.094022750854492,0.4112792909145355,-3.645707845687866
1403715889294058000,-0.00041367486119270325,0.020444653928279877,0.07307660579681396,9.0532808303833,0.4361133277416229,-3.694939136505127
1403715889299058000,-0.0018223300576210022,0.019796401262283325,0.07799093425273895,9.094459533691406,0.44426193833351135,-3.6625266075134277
1403715889304058000,-0.0004154779016971588,0.016336433589458466,0.07446123659610748,9.110352516174316,0.4196312129497528,-3.654195547103882
1403715889309058000,0.0009915903210639954,0.020477596670389175,0.08147114515304565,9.102402687072754,0.4523446559906006,-3.6213126182556152
1403715889314058000,-0.00042782723903656006,0.021877847611904144,0.07797463238239288,9.102334976196289,0.4117570221424103,-3.621079921722412
1403715889319058000,-0.0032283514738082886,0.02053004503250122,0.07581037282943726,9.143141746520996,0.4277161657810211,-3.6782844066619873
1403715889324058000,-0.00043004006147384644,0.016996312886476517,0.07444750517606735,9.077763557434082,0.4277975857257843,-3.6376492977142334
1403715889329058000,0.00027321651577949524,0.02184613049030304,0.08081355690956116,9.094237327575684,0.41159412264823914,-3.6458005905151367
1403715889334058000,-0.004633314907550812,0.021889042109251022,0.0794031023979187,9.102470397949219,0.4033730626106262,-3.6540281772613525
1403715889339058000,-0.002496667206287384,0.02189761772751808,0.0786467120051384,9.086054801940918,0.46046969294548035,-3.6458096504211426
1403715889344058000,-0.0017999783158302307,0.023298833519220352,0.08073104918003082,9.069873809814453,0.45263272523880005,-3.65386962890625
1403715889349058000,-0.0010957419872283936,0.021200664341449738,0.07791882008314133,9.078062057495117,0.41153809428215027,-3.6621313095092773
1403715889354058000,-0.00041878223419189453,0.01695222780108452,0.07649607956409454,9.110757827758789,0.4114112854003906,-3.6458842754364014
1403715889359058000,-0.00040625035762786865,0.018345896154642105,0.07869245111942291,9.085999488830566,0.4360886216163635,-3.6620664596557617
1403715889364058000,0.0009971149265766144,0.017022818326950073,0.07663950324058533,9.127013206481934,0.3871936798095703,-3.670477867126465
1403715889369058000,-0.0018560811877250671,0.018426701426506042,0.07374468445777893,9.077720642089844,0.3949809670448303,-3.645965337753296
1403715889374058000,-0.0018373318016529083,0.016993477940559387,0.07300154864788055,9.069838523864746,0.42788195610046387,-3.629422903060913
1403715889379058000,-0.0018190741539001465,0.020479001104831696,0.07659274339675903,9.118926048278809,0.41995516419410706,-3.6293628215789795
1403715889384058000,-0.0053185634315013885,0.01841648295521736,0.07661367207765579,9.126812934875488,0.4768127501010895,-3.6458165645599365
1403715889389058000,-0.005320364609360695,0.02328363060951233,0.07657113671302795,9.077855110168457,0.4688698351383209,-3.629459857940674
1403715889394058000,-0.002506144344806671,0.021213389933109283,0.0744643583893776,9.069831848144531,0.42801228165626526,-3.6294009685516357
1403715889399058000,-0.0039015747606754303,0.020497571676969528,0.07726462185382843,9.09438705444336,0.38697367906570435,-3.629347562789917
1403715889404058000,-0.0010975971817970276,0.019071217626333237,0.07795295119285583,9.045278549194336,0.4277590811252594,-3.6128852367401123
1403715889409058000,-0.003930259495973587,0.023268435150384903,0.07798746228218079,9.053906440734863,0.4852858781814575,-3.58835506439209
1403715889414058000,-0.0018066540360450745,0.019787326455116272,0.07730664312839508,9.061755180358887,0.3546173572540283,-3.612825393676758
1403715889419058000,-0.003923576325178146,0.015589680522680283,0.07443013787269592,9.110674858093262,0.40291154384613037,-3.6783952713012695
1403715889424058000,-0.0011066719889640808,0.019758060574531555,0.08002936840057373,9.086265563964844,0.4035968482494354,-3.6131772994995117
1403715889429058000,-0.0032340623438358307,0.020483937114477158,0.08220019191503525,9.061448097229004,0.38731035590171814,-3.6213300228118896
1403715889434058000,-0.002514585852622986,0.021185312420129776,0.08009066432714462,9.127103805541992,0.3869566321372986,-3.6459031105041504
1403715889439058000,-0.0025371909141540527,0.02049918845295906,0.08074630051851273,9.012365341186523,0.4196985363960266,-3.621110439300537
1403715889444058000,-0.0011153742671012878,0.016306985169649124,0.08211921155452728,9.061936378479004,0.3791317045688629,-3.6538541316986084
1403715889449058000,-0.0025062114000320435,0.018370777368545532,0.07789549231529236,9.102673530578613,0.4439186155796051,-3.6704025268554688
1403715889454058000,-0.0018102005124092102,0.019078120589256287,0.07654022425413132,9.077875137329102,0.45244768261909485,-3.6541483402252197
1403715889459058000,-0.0018203184008598328,0.02332717925310135,0.07943163812160492,9.078030586242676,0.4116906523704529,-3.637784242630005
1403715889464058000,-0.001122996211051941,0.024022463709115982,0.07801471650600433,9.110610961914062,0.3624536991119385,-3.6376662254333496
1403715889469058000,-0.003230653703212738,0.021167956292629242,0.07791681587696075,9.094115257263184,0.4113290309906006,-3.6456682682037354
1403715889474058000,-0.0025267936289310455,0.01832740381360054,0.07442271709442139,9.061620712280273,0.4036099314689636,-3.621201992034912
1403715889479058000,-0.0018170848488807678,0.022525455802679062,0.07729484885931015,9.143317222595215,0.3543735444545746,-3.6457910537719727
1403715889484058000,-0.0011151321232318878,0.02051534503698349,0.07799381017684937,9.094015121459961,0.411282479763031,-3.6295127868652344
1403715889489058000,-0.004635997116565704,0.01842811331152916,0.077971450984478,9.094276428222656,0.44442257285118103,-3.621238946914673
1403715889494058000,-0.0018099211156368256,0.02256793901324272,0.07659376412630081,9.069592475891113,0.3708597719669342,-3.6620521545410156
1403715889499058000,-0.003920160233974457,0.023970317095518112,0.07656365633010864,9.094359397888184,0.4111515283584595,-3.670318603515625
1403715889504058000,-0.0025071948766708374,0.016269680112600327,0.08002946525812149,9.04537296295166,0.39535799622535706,-3.6212637424468994
1403715889509058000,0.0009896717965602875,0.019042856991291046,0.080774687230587,9.070106506347656,0.4198131859302521,-3.5967109203338623
1403715889514058000,-0.0011166110634803772,0.02120981365442276,0.07797342538833618,9.102392196655273,0.3787475824356079,-3.678253412246704
1403715889519058000,-0.0004167519509792328,0.017729464918375015,0.07865363359451294,9.094446182250977,0.4031682014465332,-3.6458919048309326
1403715889524058000,-0.00044989213347435,0.02186477556824684,0.07793319970369339,9.045282363891602,0.45247721672058105,-3.604914426803589
1403715889529058000,-0.0011278875172138214,0.023290812969207764,0.07794305682182312,9.110799789428711,0.3790414333343506,-3.6375155448913574
1403715889534058000,-0.0011166036128997803,0.021215416491031647,0.08150019496679306,9.069622039794922,0.4357258379459381,-3.6539628505706787
1403715889539058000,-0.0018289163708686829,0.02113906294107437,0.08080673217773438,9.053640365600586,0.46064114570617676,-3.6375648975372314
1403715889544058000,0.00029129162430763245,0.016973081976175308,0.07931982725858688,9.078057289123535,0.38723257184028625,-3.6702611446380615
1403715889549058000,-0.002529248595237732,0.018428578972816467,0.07717312127351761,9.06978988647461,0.4274323284626007,-3.686858892440796
1403715889554058000,-0.003222249448299408,0.019099656492471695,0.07723309844732285,9.086338996887207,0.44425371289253235,-3.645925521850586
1403715889559058000,-0.000403575599193573,0.021194208413362503,0.07590314000844955,9.102415084838867,0.42808711528778076,-3.6458468437194824
1403715889564058000,-0.0018166229128837585,0.017714224755764008,0.07449599355459213,9.102402687072754,0.3950621783733368,-3.6295697689056396
1403715889569058000,-0.0011102668941020966,0.019765298813581467,0.07518724352121353,9.094204902648926,0.44405707716941833,-3.6293394565582275
1403715889574058000,-0.0011358298361301422,0.02325226366519928,0.07799046486616135,9.077947616577148,0.39554932713508606,-3.621119260787964
1403715889579058000,-0.0018115043640136719,0.01980578899383545,0.07443545758724213,9.143147468566895,0.39506807923316956,-3.6702914237976074
1403715889584058000,-0.001117028295993805,0.01700625941157341,0.07724197208881378,9.085870742797852,0.41142913699150085,-3.6541459560394287
1403715889589058000,-0.0004339255392551422,0.019086625427007675,0.07730801403522491,9.069928169250488,0.45255520939826965,-3.5805225372314453
1403715889594058000,-0.00041897594928741455,0.021184206008911133,0.07727783173322678,9.077865600585938,0.40355384349823,-3.629211664199829
1403715889599058000,0.0023889169096946716,0.02048799768090248,0.07725682854652405,9.094528198242188,0.4521107077598572,-3.621079206466675
1403715889604058000,0.003758832812309265,0.01769208535552025,0.07586859911680222,9.077991485595703,0.428075909614563,-3.596471071243286
1403715889609058000,-0.0018615946173667908,0.021887261420488358,0.08008711040019989,9.086251258850098,0.419791042804718,-3.6210548877716064
1403715889614058000,-0.0018287599086761475,0.01978520303964615,0.0793580561876297,9.10241985321045,0.42776697874069214,-3.678417682647705
1403715889619058000,-0.003932449966669083,0.023272860795259476,0.07862789183855057,9.07809829711914,0.4932366907596588,-3.637733221054077
1403715889624058000,-0.003904469311237335,0.020522698760032654,0.0779600515961647,9.077990531921387,0.4527057111263275,-3.6212289333343506
1403715889629058000,-0.0018087849020957947,0.023301035165786743,0.07655111700296402,9.086209297180176,0.4195849299430847,-3.6212050914764404
1403715889634058000,-0.001808207482099533,0.017674461007118225,0.0758441761136055,9.102654457092285,0.4686497151851654,-3.596543550491333
1403715889639058000,0.001710887998342514,0.01973642036318779,0.07729526609182358,9.077781677246094,0.41182413697242737,-3.6454386711120605
1403715889644058000,-0.0039566196501255035,0.017695456743240356,0.07730957120656967,9.094407081604004,0.3625049591064453,-3.6540303230285645
1403715889649058000,-0.0039013847708702087,0.01982104778289795,0.08007083833217621,9.086073875427246,0.4521210491657257,-3.662238597869873
1403715889654058000,-0.0003914050757884979,0.021903179585933685,0.07932712137699127,9.045377731323242,0.46092864871025085,-3.6458606719970703
1403715889659058000,-0.004621565341949463,0.0176868736743927,0.07932721823453903,9.078051567077637,0.3545459806919098,-3.6541452407836914
1403715889664058000,-0.0039062462747097015,0.02046836167573929,0.08006368577480316,9.118890762329102,0.39480310678482056,-3.6540627479553223
1403715889669058000,-0.005335969850420952,0.02049075812101364,0.0730365589261055,9.061504364013672,0.4607643187046051,-3.6456358432769775
1403715889674058000,-0.0003795251250267029,0.022599797695875168,0.07585925608873367,9.053561210632324,0.42009058594703674,-3.654064893722534
1403715889679058000,-0.0011185258626937866,0.02050422877073288,0.07872350513935089,9.086197853088379,0.37043389678001404,-3.6704771518707275
1403715889684058000,-0.002523459494113922,0.018386397510766983,0.07938683032989502,9.03704833984375,0.36234694719314575,-3.6540114879608154
1403715889689058000,0.0002896338701248169,0.02254953235387802,0.08005762100219727,9.061903953552246,0.3627636134624481,-3.6294684410095215
1403715889694058000,0.002399362623691559,0.021180853247642517,0.08072012662887573,9.053290367126465,0.39499765634536743,-3.7193784713745117
1403715889699058000,-0.0011353343725204468,0.024009309709072113,0.07929868996143341,8.988423347473145,0.484835147857666,-3.6870219707489014
1403715889704058000,-0.008809346705675125,0.017092127352952957,0.08560879528522491,9.070528030395508,0.7138305306434631,-3.7033674716949463
1403715889709058000,-0.02140127494931221,0.01493903249502182,0.08916810899972916,9.127285957336426,0.6245599985122681,-3.7526309490203857
1403715889714058000,-0.02841748669743538,0.022545035928487778,0.0877884030342102,9.037102699279785,0.39519378542900085,-3.6220710277557373
1403715889719058000,-0.011506987735629082,0.005746535956859589,0.09472155570983887,9.208573341369629,-0.09488924592733383,-3.6622135639190674
1403715889724058000,0.01643941178917885,0.0433124378323555,0.06946296989917755,9.053525924682617,-0.6586406826972961,-3.3843953609466553
1403715889729058000,0.06837427616119385,0.00856434553861618,0.05751205235719681,9.231865882873535,-0.24352696537971497,-3.6121621131896973
1403715889734058000,0.08495663851499557,0.014170758426189423,0.05066101998090744,9.020347595214844,0.672669529914856,-3.653625726699829
1403715889739058000,0.04968177527189255,0.038828566670417786,0.03663783520460129,8.849902153015137,1.654404878616333,-3.6376802921295166
1403715889744058000,-0.01976221799850464,-0.0006066560745239258,0.0694141760468483,9.05637264251709,2.2261765003204346,-3.9014971256256104
1403715889749058000,-0.09890557080507278,0.004758313298225403,0.08001105487346649,8.884300231933594,2.022427558898926,-3.6322662830352783
1403715889754058000,-0.13839933276176453,0.014893773943185806,0.1130279153585434,9.332098007202148,0.389035701751709,-3.8174221515655518
1403715889759058000,-0.113451287150383,0.029543984681367874,0.09314613044261932,8.899354934692383,-0.9137812852859497,-3.441311836242676
1403715889764058000,-0.031730830669403076,0.0006970241665840149,0.11753441393375397,9.063145637512207,-1.0441689491271973,-3.3830132484436035
1403715889769058000,0.03534291684627533,0.017965886741876602,0.09258858114480972,9.397344589233398,-0.910049557685852,-3.5543272495269775
1403715889774058000,0.07966889441013336,0.05461324006319046,0.06320350617170334,9.10009479522705,-0.41370323300361633,-3.3281948566436768
1403715889779058000,0.09833796322345734,-0.010822908021509647,0.06541692465543747,9.247943878173828,0.5976132750511169,-3.654963970184326
1403715889784058000,0.08355984836816788,0.026643134653568268,0.07825103402137756,9.55164623260498,1.1327369213104248,-3.892425537109375
1403715889789058000,0.027081526815891266,0.05657166987657547,0.06452852487564087,8.44631576538086,1.458739161491394,-3.6966354846954346
1403715889794058000,-0.016300827264785767,0.00919272005558014,0.10150526463985443,9.213374137878418,1.4909100532531738,-3.785761594772339
1403715889799058000,-0.05764783173799515,0.03356994688510895,0.09186010807752609,9.037447929382324,0.9364099502563477,-3.7428362369537354
1403715889804058000,-0.0784606859087944,0.018401991575956345,0.0965990498661995,9.136011123657227,0.7051656246185303,-3.735084295272827
1403715889809058000,-0.0796719342470169,0.01782996580004692,0.08403134346008301,8.91642951965332,0.17360466718673706,-3.4977707862854004
1403715889814058000,-0.04628384858369827,0.031248018145561218,0.0871836245059967,9.446881294250488,-0.5288125872612,-3.5468599796295166
1403715889819058000,0.003776632249355316,0.015402242541313171,0.06922022998332977,8.553374290466309,-0.5472491979598999,-3.3837625980377197
1403715889824058000,0.04078514128923416,0.02895021066069603,0.054185282438993454,9.962323188781738,-0.3229674696922302,-3.7841806411743164
1403715889829058000,0.06642699241638184,0.05103309452533722,0.05976787954568863,8.615514755249023,0.1998293399810791,-3.5244998931884766
1403715889834058000,0.07308176159858704,0.033680740743875504,0.05362149327993393,8.842217445373535,0.812593400478363,-3.4995129108428955
1403715889839058000,0.04702446609735489,0.022141944617033005,0.07717163115739822,9.357712745666504,1.1891530752182007,-3.8338863849639893
1403715889844058000,-0.0031126290559768677,0.04229148477315903,0.062496691942214966,8.782623291015625,1.3278416395187378,-3.6213808059692383
1403715889849058000,-0.04091334342956543,-0.00033137761056423187,0.0975784882903099,8.908916473388672,0.9758162498474121,-3.6540796756744385
1403715889854058000,-0.0616525337100029,0.025308821350336075,0.09060260653495789,9.015588760375977,0.6317906379699707,-3.530611515045166
1403715889859058000,-0.058545470237731934,0.007201656699180603,0.10720905661582947,9.069777488708496,0.10911472141742706,-3.636183261871338
1403715889864058000,-0.040123000741004944,0.013513308018445969,0.09194932132959366,9.316146850585938,-0.12013668566942215,-3.4984261989593506
1403715889869058000,-0.009114626795053482,0.03003814071416855,0.08701945096254349,9.157978057861328,-0.3159351050853729,-3.5147392749786377
1403715889874058000,0.027997292578220367,0.020253993570804596,0.07086491584777832,8.938102722167969,-0.35700124502182007,-3.483259677886963
1403715889879058000,0.05172167718410492,0.021177899092435837,0.06531382352113724,9.542781829833984,0.0031038697343319654,-3.817441940307617
1403715889884058000,0.05919550359249115,0.054051704704761505,0.06479337811470032,8.969245910644531,0.6979912519454956,-3.5160605907440186
1403715889889058000,0.04140961170196533,0.02765464037656784,0.08169742673635483,8.946876525878906,0.8953219652175903,-3.6457202434539795
1403715889894058000,0.014619920402765274,0.03109709918498993,0.07652837783098221,8.91682243347168,1.0326621532440186,-3.5888938903808594
1403715889899058000,-0.025448698550462723,0.005127914249897003,0.08262830972671509,8.924138069152832,0.9754881262779236,-3.570758581161499
1403715889904058000,-0.0434623658657074,0.005039012059569359,0.0715063214302063,9.259162902832031,0.4122525155544281,-3.734403371810913
1403715889909058000,-0.02776050753891468,0.02318350225687027,0.06601124256849289,9.347248077392578,0.08357629925012589,-3.7354629039764404
1403715889914058000,-0.010782426223158836,0.010058209300041199,0.0844687819480896,8.905348777770996,0.18948137760162354,-3.5811562538146973
1403715889919058000,-0.006406696513295174,0.03394118696451187,0.09160599857568741,9.42222785949707,0.6324134469032288,-3.7437615394592285
1403715889924058000,-0.02052280679345131,0.038785554468631744,0.09482134878635406,8.9379243850708,0.9350628852844238,-3.5320820808410645
1403715889929058000,-0.04372655227780342,0.020381037145853043,0.09388267248868942,8.841577529907227,0.6164460182189941,-3.4495890140533447
1403715889934058000,-0.04501597210764885,0.017482690513134003,0.07899881899356842,9.014182090759277,-0.012896561063826084,-3.571319818496704
1403715889939058000,-0.0035753920674324036,0.01259489357471466,0.06656497716903687,9.25821590423584,-0.960109531879425,-3.6365551948547363
1403715889944058000,0.06718601286411285,0.01547381654381752,0.06483064591884613,9.248687744140625,-0.8557385206222534,-3.6294918060302734
1403715889949058000,0.12156933546066284,0.036532215774059296,0.05941475182771683,9.354413032531738,0.3048473596572876,-3.793210029602051
1403715889954058000,0.1000281572341919,0.03977806866168976,0.0788218230009079,8.604065895080566,1.6792962551116943,-3.5083110332489014
1403715889959058000,0.013537324965000153,0.017501715570688248,0.07757027447223663,9.121984481811523,2.300410270690918,-3.908310651779175
1403715889964058000,-0.0704675167798996,0.02689259499311447,0.07743372023105621,8.90845012664795,1.8748586177825928,-3.5741777420043945
1403715889969058000,-0.11560725420713425,-0.010981190949678421,0.09319838136434555,8.858248710632324,0.8204555511474609,-3.6368601322174072
1403715889974058000,-0.10724493116140366,0.012750785797834396,0.07863524556159973,9.21967887878418,-0.3072803318500519,-3.6939034461975098
1403715889979058000,-0.046668171882629395,0.011376060545444489,0.09623974561691284,9.315019607543945,-0.9447454214096069,-3.5227527618408203
1403715889984058000,0.005799129605293274,0.011400043964385986,0.09499429911375046,9.166268348693848,-0.5779368877410889,-3.5475943088531494
1403715889989058000,0.04753565788269043,0.03915940970182419,0.07092589139938354,9.101978302001953,-0.1679866909980774,-3.4660837650299072
1403715889994058000,0.06756975501775742,0.02028302475810051,0.08556191623210907,9.109601020812988,0.17443068325519562,-3.409811496734619
1403715889999058000,0.057773761451244354,0.0037104953080415726,0.07151731848716736,8.92122745513916,0.7534660696983337,-3.8089406490325928
1403715890004058000,0.03799038380384445,0.015581224113702774,0.059631068259477615,9.00639533996582,0.7649891376495361,-3.573214054107666
1403715890009058000,0.018968984484672546,0.00820343941450119,0.0906832218170166,9.282133102416992,0.9927025437355042,-3.793473482131958
1403715890014058000,-0.019082091748714447,0.018098019063472748,0.08500537276268005,8.972211837768555,1.221308946609497,-3.73689866065979
1403715890019058000,-0.04852394014596939,0.02693454548716545,0.09959377348423004,9.153101921081543,0.9605277180671692,-3.5967979431152344
1403715890024058000,-0.07077495753765106,0.014314219355583191,0.10299064218997955,8.972099304199219,0.6720943450927734,-3.645176410675049
1403715890029058000,-0.067580446600914,0.0034799277782440186,0.08125179260969162,9.030547142028809,-0.05527069792151451,-3.4159085750579834
1403715890034058000,-0.03002796322107315,0.018674198538064957,0.09544084966182709,9.249788284301758,-0.5208383798599243,-3.538259267807007
1403715890039058000,0.014906167984008789,0.016290687024593353,0.0710095763206482,9.060942649841309,-0.36572426557540894,-3.5879385471343994
1403715890044058000,0.049131251871585846,0.019888613373041153,0.06962786614894867,9.412097930908203,-0.012608668766915798,-3.752800941467285
1403715890049058000,0.0648413822054863,0.042159490287303925,0.06769130378961563,8.896309852600098,0.5021331906318665,-3.5491809844970703
1403715890054058000,0.05195067077875137,0.023449890315532684,0.0617104172706604,9.037104606628418,1.0489706993103027,-3.760519027709961
1403715890059058000,0.013834383338689804,0.03373322635889053,0.062425803393125534,8.850601196289062,0.985061526298523,-3.53177809715271
1403715890064058000,-0.013451281934976578,0.012819226831197739,0.08288893103599548,8.768950462341309,1.0894498825073242,-3.6362967491149902
1403715890069058000,-0.04557924345135689,0.0031566452234983444,0.07868068665266037,9.01584529876709,0.7552518844604492,-3.710635185241699
1403715890074058000,-0.051631707698106766,0.012139812111854553,0.08918340504169464,9.136322975158691,0.403494268655777,-3.661648750305176
1403715890079058000,-0.047313202172517776,0.01140855997800827,0.08349372446537018,9.176112174987793,0.19847939908504486,-3.621793270111084
1403715890084058000,-0.02536565065383911,0.02396395057439804,0.08491707593202591,9.412332534790039,-0.13584133982658386,-3.6541340351104736
1403715890089058000,0.0027105510234832764,0.029446646571159363,0.08572783321142197,8.9207124710083,-0.18549439311027527,-3.442476987838745
1403715890094058000,0.024390455335378647,0.02447616308927536,0.07729746401309967,9.265336990356445,-0.1767045110464096,-3.563877820968628
1403715890099058000,0.04816168546676636,0.014765560626983643,0.08291727304458618,8.937508583068848,0.17466744780540466,-3.60465669631958
1403715890104058000,0.05145075172185898,0.021899133920669556,0.08285583555698395,8.947575569152832,0.7794478535652161,-3.6703975200653076
1403715890109058000,0.02812407910823822,0.01379423588514328,0.08752846717834473,9.096161842346191,1.1152898073196411,-3.687403917312622
1403715890114058000,-0.018997259438037872,0.017988894134759903,0.0854642316699028,9.16015338897705,1.1964291334152222,-3.8427906036376953
1403715890119058000,-0.055397775024175644,0.017137721180915833,0.09539437294006348,9.038257598876953,0.975658655166626,-3.647019386291504
1403715890124058000,-0.06784342229366302,0.016216382384300232,0.09269336611032486,9.09526538848877,0.2081097960472107,-3.4492087364196777
1403715890129058000,-0.03525936231017113,0.011121626943349838,0.08981962502002716,9.029297828674316,-0.6349837183952332,-3.456505537033081
1403715890134058000,0.0265805721282959,-0.00011175498366355896,0.0744159147143364,9.258482933044434,-0.8724485039710999,-3.489180326461792
1403715890139058000,0.07627338171005249,0.0196831151843071,0.06254785507917404,9.329544067382812,-0.2183699607849121,-3.750943183898926
1403715890144058000,0.0871620923280716,0.029789406806230545,0.03799505531787872,9.182987213134766,0.7548698782920837,-3.6472253799438477
1403715890149058000,0.05198405683040619,0.032094407826662064,0.06039881333708763,9.33871078491211,1.7521287202835083,-3.925726890563965
1403715890154058000,-0.022572673857212067,0.04823382943868637,0.05912809446454048,8.368377685546875,2.1530065536499023,-3.5752811431884766
1403715890159058000,-0.09532985091209412,0.019956115633249283,0.07659754902124405,9.057611465454102,1.3697723150253296,-3.6859779357910156
1403715890164058000,-0.12451966851949692,0.005572110414505005,0.10534307360649109,8.654999732971191,-0.04577028006315231,-3.5216500759124756
1403715890169058000,-0.0791781097650528,0.0025887414813041687,0.09605492651462555,8.910385131835938,-0.9705526828765869,-3.300947904586792
1403715890174058000,0.00513438880443573,-0.0069511160254478455,0.09794943034648895,9.578807830810547,-1.3442342281341553,-3.5707287788391113
1403715890179058000,0.07076659798622131,0.045558057725429535,0.06453058123588562,9.352934837341309,-0.6269458532333374,-3.65417742729187
1403715890184058000,0.09635236859321594,0.022029634565114975,0.05766570568084717,9.001665115356445,0.4189760088920593,-3.6072490215301514
1403715890189058000,0.07926232367753983,0.03453478217124939,0.058610156178474426,9.05364990234375,1.123240351676941,-3.5326831340789795
1403715890194058000,0.03357948362827301,0.037945546209812164,0.06759976595640182,9.003180503845215,1.2377015352249146,-3.7686595916748047
1403715890199058000,-0.007088508456945419,0.01433001458644867,0.0821833461523056,8.752401351928711,1.22895085811615,-3.736370325088501
1403715890204058000,-0.043440818786621094,0.013019457459449768,0.0988297313451767,8.983564376831055,1.2709556818008423,-3.596567153930664
1403715890209058000,-0.08269251883029938,0.013712882995605469,0.09293346107006073,8.899554252624512,0.6991245746612549,-3.6287457942962646
1403715890214058000,-0.07822972536087036,-0.00032276101410388947,0.08741693198680878,9.512012481689453,-0.06314586102962494,-3.8982226848602295
1403715890219058000,-0.040898341685533524,0.02020224928855896,0.08219663798809052,9.314608573913574,-0.43210795521736145,-3.417647123336792
1403715890224058000,4.938989877700806e-05,0.04182060807943344,0.06984925270080566,9.271492004394531,-0.5450869798660278,-3.579517126083374
1403715890229058000,0.032301805913448334,0.014878489077091217,0.06419839709997177,8.922191619873047,-0.19389082491397858,-3.4748551845550537
1403715890234058000,0.044744156301021576,0.037111081182956696,0.0661991685628891,8.979312896728516,0.4443266689777374,-3.5062265396118164
1403715890239058000,0.04868113994598389,0.011366590857505798,0.08291186392307281,8.710525512695312,0.5197870135307312,-3.5228283405303955
1403715890244058000,0.03233049064874649,0.012218646705150604,0.06588537991046906,9.365495681762695,0.7876337170600891,-3.817695140838623
1403715890249058000,0.005529481917619705,-0.003084372729063034,0.08042100071907043,8.91450309753418,1.0489479303359985,-3.7212047576904297
1403715890254058000,-0.0197710283100605,0.016426023095846176,0.07097373902797699,8.948805809020996,0.8132318258285522,-3.5317981243133545
1403715890259058000,-0.03357686102390289,-0.00023283995687961578,0.0878128856420517,9.389533996582031,0.5988369584083557,-3.743558406829834
1403715890264058000,-0.039817485958337784,0.01409122720360756,0.0963171124458313,8.938359260559082,0.3941592872142792,-3.579336404800415
1403715890269058000,-0.033304497599601746,0.009185031056404114,0.0948820486664772,9.168992042541504,0.08483988791704178,-3.5304625034332275
1403715890274058000,-0.010676119476556778,0.0043957531452178955,0.099607914686203,8.792632102966309,0.010170127265155315,-3.318739175796509
1403715890279058000,0.010446831583976746,0.011995043605566025,0.07346504926681519,9.306425094604492,-0.09536558389663696,-3.7508296966552734
1403715890284058000,0.026446208357810974,0.007208656519651413,0.05941835045814514,9.403857231140137,-0.0374026820063591,-3.712118625640869
1403715890289058000,0.04100459814071655,0.02692527323961258,0.06060565263032913,9.026135444641113,0.5094336867332458,-3.6223978996276855
1403715890294058000,0.03660677373409271,0.03244979307055473,0.070623017847538,9.037047386169434,0.5189447999000549,-3.7366433143615723
1403715890299058000,0.019651807844638824,0.021988235414028168,0.07465952634811401,8.890798568725586,0.876887857913971,-3.605036973953247
1403715890304058000,-0.009895365685224533,0.012824922800064087,0.08350889384746552,8.924442291259766,0.9839453101158142,-3.5220112800598145
1403715890309058000,-0.03147953003644943,0.01971374824643135,0.07701149582862854,9.169358253479004,0.6492968797683716,-3.7257914543151855
1403715890314058000,-0.03559489548206329,0.009989745914936066,0.08123885840177536,8.792680740356445,0.1413545310497284,-3.5561842918395996
1403715890319058000,-0.020661611109972,0.0022774357348680496,0.05689384415745735,9.308119773864746,-0.06349735707044601,-3.6046981811523438
1403715890324058000,0.008960727602243423,0.016295555979013443,0.06625795364379883,9.125628471374512,0.23146796226501465,-3.6944055557250977
1403715890329058000,0.015200898051261902,0.018488168716430664,0.0671459212899208,9.241063117980957,0.6159005165100098,-3.6303904056549072
1403715890334058000,-0.007293630391359329,0.0303337462246418,0.07802291959524155,9.224284172058105,0.9427310228347778,-3.7121217250823975
1403715890339058000,-0.047354742884635925,0.03602800890803337,0.09184252470731735,8.824631690979004,1.1637336015701294,-3.6955931186676025
1403715890344058000,-0.06902915239334106,0.021984916180372238,0.10172974318265915,8.949468612670898,0.47905033826828003,-3.3845696449279785
1403715890349058000,-0.04635611176490784,0.025141477584838867,0.11210966110229492,9.225076675415039,-0.6175886988639832,-3.6276490688323975
1403715890354058000,0.010473556816577911,0.031293511390686035,0.08827923238277435,8.997074127197266,-0.9462686777114868,-3.465023994445801
1403715890359058000,0.07968007773160934,-0.00629819929599762,0.07643332332372665,9.021832466125488,-0.9766947627067566,-3.3351006507873535
1403715890364058000,0.12623581290245056,0.03985738009214401,0.0697346106171608,9.355669021606445,0.07605475932359695,-3.5147533416748047
1403715890369058000,0.098713219165802,0.009805973619222641,0.05675698071718216,8.815803527832031,1.9466001987457275,-3.8668391704559326
1403715890374058000,0.016500383615493774,0.01539745181798935,0.060054853558540344,9.358614921569824,2.4908742904663086,-3.968287229537964
1403715890379058000,-0.07755609601736069,0.017246391624212265,0.08986496925354004,8.360015869140625,1.8507016897201538,-3.477478504180908
1403715890384058000,-0.12396538257598877,0.0002984721213579178,0.10608929395675659,9.171277046203613,0.43563562631607056,-3.6616060733795166
1403715890389058000,-0.0925925001502037,0.010550834238529205,0.1035919338464737,9.316974639892578,-0.9277596473693848,-3.487926483154297
1403715890394058000,-0.02925942838191986,0.004845626652240753,0.07201507687568665,8.970879554748535,-0.9951179027557373,-3.3582541942596436
1403715890399058000,0.03654669225215912,0.007116250693798065,0.05120735988020897,9.454708099365234,-0.7566683888435364,-3.644775867462158
1403715890404058000,0.08738413453102112,0.035072341561317444,0.052300892770290375,9.304370880126953,-0.21818037331104279,-3.5977184772491455
1403715890409058000,0.08914211392402649,0.012819595634937286,0.037715643644332886,8.747967720031738,0.5732752680778503,-3.5735771656036377
1403715890414058000,0.07233402878046036,0.02828522026538849,0.05527427792549133,9.104520797729492,1.1719383001327515,-3.678966760635376
1403715890419058000,0.03365422785282135,0.012381576001644135,0.09146847575902939,8.686444282531738,1.3934966325759888,-3.7692174911499023
1403715890424058000,-0.02111487090587616,0.0018329564481973648,0.07813212275505066,8.93429946899414,1.3851115703582764,-3.736816883087158
1403715890429058000,-0.06040094420313835,-0.0024249367415905,0.08777136355638504,9.1622953414917,1.026067852973938,-3.612929105758667
1403715890434058000,-0.08622468262910843,0.008735448122024536,0.08272066712379456,9.265471458435059,0.5340659022331238,-3.841478109359741
1403715890439058000,-0.07675530761480331,0.0010048896074295044,0.0879848301410675,9.037550926208496,-0.1779422014951706,-3.5970730781555176
1403715890444058000,-0.04131311550736427,0.023116186261177063,0.0859123170375824,9.421089172363281,-0.3748183846473694,-3.6370909214019775
1403715890449058000,-0.004667047411203384,0.0224430114030838,0.0836644247174263,8.928972244262695,-0.30823346972465515,-3.596158504486084
1403715890454058000,0.038001276552677155,0.025920648127794266,0.08996647596359253,9.037392616271973,-0.3067757487297058,-3.4585416316986084
1403715890459058000,0.06576254963874817,0.027314379811286926,0.08547832071781158,9.18321418762207,-0.013261493295431137,-3.629791021347046
1403715890464058000,0.0618814155459404,0.02331237867474556,0.04803413525223732,9.043946266174316,0.5590053796768188,-3.6950788497924805
1403715890469058000,0.04970424622297287,0.01366511732339859,0.052637502551078796,9.061731338500977,0.8626263737678528,-3.7040209770202637
1403715890474058000,0.02435610443353653,0.025495626032352448,0.06077047809958458,9.266624450683594,1.1798555850982666,-3.720217227935791
1403715890479058000,-0.016323193907737732,0.03050965815782547,0.0739426389336586,8.914196014404297,1.3022668361663818,-3.752119541168213
1403715890484058000,-0.05760534852743149,0.02555014193058014,0.0893334373831749,9.088665962219238,1.0006039142608643,-3.6455166339874268
1403715890489058000,-0.07841329276561737,0.020397566258907318,0.1046253964304924,8.79289722442627,0.41114693880081177,-3.5219969749450684
1403715890494058000,-0.06328072398900986,0.009064573794603348,0.09309093654155731,8.990558624267578,-0.2186906784772873,-3.391277551651001
1403715890499058000,-0.025816231966018677,0.011174548417329788,0.07326139509677887,9.380559921264648,-0.4875865876674652,-3.635836124420166
1403715890504058000,0.016275424510240555,0.017549127340316772,0.06459761410951614,9.108684539794922,-0.45477020740509033,-3.719486713409424
1403715890509058000,0.05109916627407074,0.019100796431303024,0.06866574287414551,8.971054077148438,-0.15234342217445374,-3.517108678817749
1403715890514058000,0.0628519207239151,0.02482340857386589,0.06776084750890732,9.412220001220703,0.623708188533783,-3.8673107624053955
1403715890519058000,0.03020058572292328,0.031817011535167694,0.07719247788190842,8.74201488494873,1.1890732049942017,-3.6063215732574463
1403715890524058000,-0.004263453185558319,0.019176259636878967,0.08410847187042236,8.973679542541504,1.172744631767273,-3.6704514026641846
1403715890529058000,-0.027438826858997345,0.025992006063461304,0.08263794332742691,9.129149436950684,0.3308173716068268,-3.449282646179199
1403715890534058000,-0.019560303539037704,0.0036480873823165894,0.0756145641207695,8.848225593566895,-0.16165345907211304,-3.4641284942626953
1403715890539058000,0.0058181509375572205,0.007817637175321579,0.06822048872709274,9.455621719360352,-0.10353178530931473,-3.7258195877075195
1403715890544058000,0.027589812874794006,0.005157629027962685,0.06698576360940933,8.954133033752441,0.582259476184845,-3.5722196102142334
1403715890549058000,0.010144330561161041,0.013710059225559235,0.07314155250787735,9.299044609069824,1.2118414640426636,-3.884143114089966
1403715890554058000,-0.03331974893808365,0.024315163493156433,0.07999470084905624,9.282916069030762,1.4332365989685059,-3.697148561477661
1403715890559058000,-0.07606884837150574,0.016478456556797028,0.09120184183120728,8.839728355407715,1.0658560991287231,-3.614013195037842
1403715890564058000,-0.08136554807424545,0.02597007155418396,0.08626033365726471,9.19417953491211,0.028339708223938942,-3.5881693363189697
1403715890569058000,-0.03908166661858559,0.011842809617519379,0.08336828649044037,8.865944862365723,-0.8959147930145264,-3.366677761077881
1403715890574058000,0.02040211856365204,0.007646456360816956,0.07513368874788284,8.915950775146484,-0.7250686883926392,-3.4070775508880615
1403715890579058000,0.05999835580587387,0.011989284306764603,0.05351558327674866,9.373372077941895,-0.17542827129364014,-3.578988790512085
1403715890584058000,0.07231523096561432,0.015056300908327103,0.05845942720770836,9.043262481689453,0.7133527994155884,-3.728447914123535
1403715890589058000,0.05173349380493164,0.024893667548894882,0.05991819500923157,8.87433910369873,1.122128963470459,-3.713036298751831
1403715890594058000,0.01538991928100586,0.021396923810243607,0.051250845193862915,9.267641067504883,1.4085613489151,-3.8023009300231934
1403715890599058000,-0.04138413816690445,0.016444988548755646,0.0813794732093811,8.963047981262207,1.1565226316452026,-3.7204065322875977
1403715890604058000,-0.05806168168783188,0.03162400424480438,0.08365581929683685,8.899083137512207,0.46167296171188354,-3.539313793182373
1403715890609058000,-0.05231303721666336,0.0037035420536994934,0.08767618238925934,8.940869331359863,0.15779952704906464,-3.4566802978515625
1403715890614058000,-0.04091758280992508,0.007863357663154602,0.06940096616744995,9.02942180633545,0.06797199696302414,-3.6679787635803223
1403715890619058000,-0.012772902846336365,0.01203792542219162,0.06951312720775604,9.397051811218262,-0.17676718533039093,-3.7842824459075928
1403715890624058000,0.015287522226572037,0.019033119082450867,0.06483295559883118,8.977861404418945,-0.18707481026649475,-3.679746389389038
1403715890629058000,0.031402602791786194,0.03509010374546051,0.048658374696969986,9.167566299438477,0.16552866995334625,-3.704310655593872
1403715890634058000,0.03758983314037323,0.03590485081076622,0.06973135471343994,9.16693115234375,0.5598267912864685,-3.7282564640045166
1403715890639058000,0.02963787317276001,0.037326373159885406,0.08665838837623596,8.807182312011719,0.6333643198013306,-3.629978895187378
1403715890644058000,0.017558135092258453,0.03438916057348251,0.08128798753023148,8.769303321838379,0.6896390914916992,-3.4738354682922363
1403715890649058000,-0.007106885313987732,0.009293220937252045,0.08319912105798721,8.876251220703125,0.8615391850471497,-3.480901002883911
1403715890654058000,-0.023824434727430344,0.010030705481767654,0.0834878534078598,9.324138641357422,0.5514701008796692,-3.759234666824341
1403715890659058000,-0.026491664350032806,0.021232035011053085,0.08361037075519562,9.142618179321289,0.3449637293815613,-3.6711132526397705
1403715890664058000,-0.022812332957983017,0.019839663058519363,0.07660794258117676,9.15949821472168,0.3369601368904114,-3.589224338531494
1403715890669058000,-0.021281959488987923,0.03300278261303902,0.08445010334253311,9.412591934204102,0.2651289105415344,-3.6049304008483887
1403715890674058000,-0.010004881769418716,0.036467261612415314,0.08796842396259308,9.058679580688477,0.19065222144126892,-3.669912815093994
1403715890679058000,0.010992087423801422,0.03500733524560928,0.08060826361179352,8.906448364257812,0.027059460058808327,-3.482238292694092
1403715890684058000,0.022837262600660324,0.029387369751930237,0.06646668910980225,9.070144653320312,0.18281686305999756,-3.5383963584899902
1403715890689058000,0.027644053101539612,0.011391747742891312,0.059019509702920914,9.069517135620117,0.45273035764694214,-3.669736623764038
1403715890694058000,0.02820802479982376,0.010116688907146454,0.061281874775886536,9.012781143188477,0.6404412984848022,-3.670687675476074
1403715890699058000,0.007779855281114578,0.015012383460998535,0.05916040018200874,9.0954008102417,0.8851128816604614,-3.695457935333252
1403715890704058000,-0.023093849420547485,0.009435098618268967,0.07040918618440628,9.193202018737793,0.8858985304832458,-3.678837299346924
1403715890709058000,-0.03699600696563721,0.017103850841522217,0.08019097149372101,9.02876091003418,0.7630264759063721,-3.7031195163726807
1403715890714058000,-0.034036945551633835,0.027412764728069305,0.08210726082324982,9.209824562072754,0.16679343581199646,-3.506824493408203
1403715890719058000,-0.014981279149651527,0.0196550190448761,0.07285244017839432,9.060579299926758,-0.24272577464580536,-3.473344564437866
1403715890724058000,0.010971643030643463,0.013355337083339691,0.05688002333045006,9.15954303741455,-0.022212322801351547,-3.595641851425171
1403715890729058000,0.025636151432991028,0.022570408880710602,0.06833159178495407,8.963217735290527,0.3710332214832306,-3.5635974407196045
1403715890734058000,0.01228632777929306,0.011691294610500336,0.06477711349725723,9.029400825500488,1.040279507637024,-3.8262252807617188
1403715890739058000,-0.0214911550283432,0.018580131232738495,0.07657767832279205,8.989862442016602,1.1477603912353516,-3.6720409393310547
1403715890744058000,-0.04804117605090141,0.02058112621307373,0.09975670278072357,9.159750938415527,0.7637040615081787,-3.8754379749298096
1403715890749058000,-0.04945943504571915,0.03577224910259247,0.10594384372234344,8.875631332397461,-0.17593547701835632,-3.222296953201294
1403715890754058000,-0.008604813367128372,-0.002170473337173462,0.08317359536886215,9.216841697692871,-1.0835870504379272,-3.448260545730591
1403715890759058000,0.07412607967853546,0.039623744785785675,0.07348421216011047,9.323201179504395,-0.5865386128425598,-3.6926701068878174
1403715890764058000,0.10033182799816132,0.010128073394298553,0.0654485821723938,8.701305389404297,0.5425264239311218,-3.293705940246582
1403715890769058000,0.06449726223945618,0.021437332034111023,0.057723015546798706,9.479775428771973,1.4338828325271606,-3.9974782466888428
1403715890774058000,0.004633232951164246,0.021626312285661697,0.06454966962337494,8.653801918029785,2.0615499019622803,-3.5600621700286865
1403715890779058000,-0.05966050922870636,-0.0036856550723314285,0.06744799017906189,9.243088722229004,1.515792727470398,-3.8342583179473877
1403715890784058000,-0.08443321287631989,0.05751410871744156,0.09482225775718689,9.340337753295898,0.5268405675888062,-3.7523789405822754
1403715890789058000,-0.07868485152721405,0.007896512746810913,0.0678674578666687,8.994109153747559,-0.18571774661540985,-3.6041030883789062
1403715890794058000,-0.0307850893586874,0.035655464977025986,0.08056268095970154,9.06367301940918,-0.5359441637992859,-3.432304620742798
1403715890799058000,0.006187863647937775,0.04480241984128952,0.07055208832025528,8.939398765563965,-0.038250721991062164,-3.324812173843384
1403715890804058000,0.02785075455904007,0.005028128623962402,0.06900843977928162,9.436710357666016,0.13360019028186798,-3.8492400646209717
1403715890809058000,0.0361049622297287,0.038446441292762756,0.0774288922548294,8.832113265991211,0.41892337799072266,-3.508176803588867
1403715890814058000,0.029836975038051605,0.024030622094869614,0.06195046380162239,9.06140422821045,0.6157243251800537,-3.7856266498565674
1403715890819058000,0.023436635732650757,0.02068023383617401,0.0708434134721756,9.07887077331543,0.5519856810569763,-3.680022716522217
1403715890824058000,0.014864444732666016,0.04005204886198044,0.08276036381721497,9.07691478729248,0.9270686507225037,-3.7602710723876953
1403715890829058000,-0.009161625057458878,0.02751091495156288,0.07923014461994171,9.087349891662598,0.8217419981956482,-3.638012170791626
1403715890834058000,-0.03021450713276863,0.019215833395719528,0.09414505958557129,9.004940032958984,0.7795534729957581,-3.5634422302246094
1403715890839058000,-0.0476175993680954,0.04345487803220749,0.09627054631710052,8.874899864196777,0.6722012758255005,-3.547037124633789
1403715890844058000,-0.03956812620162964,0.004393024370074272,0.104468435049057,9.030394554138184,0.051943689584732056,-3.5790159702301025
