#timestamp [ns],w_RS_S_x [rad s^-1],w_RS_S_y [rad s^-1],w_RS_S_z [rad s^-1],a_RS_S_x [m s^-2],a_RS_S_y [m s^-2],a_RS_S_z [m s^-2]
1403715886544058000,-0.0020943951023931952,0.01884955592153876,0.07609635538695278,9.062979041666667,0.4494714583333333,-3.6529771249999996
1403715886549058000,-0.003490658503988659,0.021642082724729686,0.07609635538695278,9.062979041666667,0.416782625,-3.6366327083333334
1403715886554058000,-0.0027925268031909274,0.01884955592153876,0.0767944870877505,9.062979041666667,0.367749375,-3.6611493333333334
1403715886559058000,0.0006981317007977319,0.016057029118347832,0.07958701389094143,9.054806833333332,0.4004382083333333,-3.6202882916666663
1403715886564058000,-0.0013962634015954637,0.01884955592153876,0.07749261878854824,9.062979041666667,0.367749375,-3.6121160833333334
1403715886569058000,-0.0006981317007977319,0.013962634015954637,0.07749261878854824,9.095667875,0.40861041666666664,-3.6284604999999996
1403715886574058000,-0.0020943951023931952,0.013962634015954637,0.07749261878854824,9.079323458333333,0.392266,-3.6121160833333334
1403715886579058000,-0.0020943951023931952,0.0153588974175501,0.07609635538695278,9.062979041666667,0.40861041666666664,-3.6202882916666663
1403715886584058000,-0.0020943951023931952,0.012566370614359173,0.07819075048934597,9.054806833333332,0.40861041666666664,-3.6529771249999996
1403715886589058000,-0.0006981317007977319,0.01815142422074103,0.07819075048934597,9.046634625,0.392266,-3.6448049166666663
1403715886594058000,-0.0020943951023931952,0.01815142422074103,0.07609635538695278,9.112012291666666,0.4739880833333333,-3.693838166666666
1403715886599058000,-0.003490658503988659,0.01815142422074103,0.07749261878854824,9.062979041666667,0.416782625,-3.6448049166666663
1403715886604058000,-0.006283185307179587,0.020943951023931952,0.07749261878854824,9.07115125,0.392266,-3.6039438749999997
1403715886609058000,-0.004886921905584123,0.016755160819145562,0.07330382858376185,9.144701125,0.40861041666666664,-3.6284604999999996
1403715886614058000,-0.0041887902047863905,0.01884955592153876,0.07120943348136866,9.103840083333333,0.4494714583333333,-3.6448049166666663
1403715886619058000,-0.004886921905584123,0.02024581932313422,0.07749261878854824,9.103840083333333,0.40861041666666664,-3.6611493333333334
1403715886624058000,-0.0020943951023931952,0.01884955592153876,0.07539822368615504,9.112012291666666,0.40861041666666664,-3.6448049166666663
1403715886629058000,-0.0020943951023931952,0.016057029118347832,0.07539822368615504,9.062979041666667,0.3840937916666667,-3.6529771249999996
1403715886634058000,-0.0013962634015954637,0.016755160819145562,0.07400196028455958,9.079323458333333,0.3759215833333333,-3.6856659583333333
1403715886639058000,0.0,0.01815142422074103,0.07888888219014369,9.030290208333332,0.40861041666666664,-3.6611493333333334
1403715886644058000,-0.0020943951023931952,0.02024581932313422,0.07819075048934597,9.022118,0.43312704166666666,-3.6284604999999996
1403715886649058000,-0.003490658503988659,0.019547687622336492,0.08098327729253688,9.087495666666666,0.43312704166666666,-3.6448049166666663
1403715886654058000,-0.0013962634015954637,0.020943951023931952,0.08098327729253688,9.087495666666666,0.416782625,-3.6284604999999996
1403715886659058000,0.0006981317007977319,0.02234021442552742,0.08028514559173915,9.054806833333332,0.3840937916666667,-3.6448049166666663
1403715886664058000,-0.0041887902047863905,0.02024581932313422,0.07749261878854824,9.087495666666666,0.3840937916666667,-3.6693215416666662
1403715886669058000,-0.0020943951023931952,0.020943951023931952,0.07958701389094143,9.095667875,0.392266,-3.6202882916666663
1403715886674058000,-0.0020943951023931952,0.02024581932313422,0.07609635538695278,9.1201845,0.3840937916666667,-3.6366327083333334
1403715886679058000,-0.004886921905584123,0.016057029118347832,0.07819075048934597,9.087495666666666,0.392266,-3.6202882916666663
1403715886684058000,-0.003490658503988659,0.019547687622336492,0.07819075048934597,9.038462416666666,0.3840937916666667,-3.6202882916666663
1403715886689058000,-0.003468945622444153,0.020607203245162964,0.07709681242704391,9.068233489990234,0.4174080789089203,-3.6612915992736816
1403715886694058000,-0.0013758093118667603,0.019909348338842392,0.0784948542714119,9.06010913848877,0.42556867003440857,-3.653139352798462
1403715886699058000,-0.0034635961055755615,0.023398343473672867,0.07360445708036423,9.068277359008789,0.36019766330718994,-3.6285784244537354
1403715886704058000,-0.0020682066679000854,0.021309614181518555,0.07501118630170822,9.092690467834473,0.4419136643409729,-3.6531829833984375
1403715886709058000,-0.0013727247714996338,0.01712084375321865,0.07710141688585281,9.068283081054688,0.4337434470653534,-3.653167724609375
1403715886714058000,-0.0020721107721328735,0.020605403929948807,0.074995256960392,9.051998138427734,0.35204756259918213,-3.644873857498169
1403715886719058000,-0.0020708590745925903,0.02270590513944626,0.07640541344881058,9.141589164733887,0.45829400420188904,-3.7021517753601074
1403715886724058000,-0.0013784617185592651,0.019907880574464798,0.07778768986463547,9.068285942077637,0.38474932312965393,-3.6775496006011963
1403715886729058000,-0.0034657418727874756,0.023398209363222122,0.07778748124837875,9.10910701751709,0.3520366847515106,-3.6612014770507812
1403715886734058000,-0.0006723105907440186,0.017819594591856003,0.07919230312108994,9.10914134979248,0.40922412276268005,-3.6612985134124756
1403715886739058000,-0.0013717114925384521,0.022003283724188805,0.07918950170278549,9.09281063079834,0.38470083475112915,-3.6449296474456787
1403715886744058000,-0.0020661354064941406,0.024097293615341187,0.07988736778497696,9.117308616638184,0.3683389723300934,-3.6367523670196533
1403715886749058000,0.0007181316614151001,0.020605875179171562,0.08058930188417435,9.052009582519531,0.41737958788871765,-3.6368014812469482
1403715886754058000,-0.001378089189529419,0.024094276130199432,0.07779698818922043,9.051895141601562,0.4255741536617279,-3.6531248092651367
1403715886759058000,-0.002779245376586914,0.021999269723892212,0.07849220186471939,9.03553581237793,0.4419391453266144,-3.6776185035705566
1403715886764058000,1.8522143363952637e-05,0.022698726505041122,0.07849790900945663,9.035612106323242,0.43373242020606995,-3.636817216873169
1403715886769058000,-0.0020747631788253784,0.02130342461168766,0.0756993219256401,9.043763160705566,0.4010767936706543,-3.6530990600585938
1403715886774058000,-0.002768397331237793,0.022702718153595924,0.0743066594004631,9.084526062011719,0.4092482030391693,-3.6612839698791504
1403715886779058000,-0.0034587979316711426,0.0234018936753273,0.07431048899888992,9.09274959564209,0.3928593099117279,-3.620483875274658
1403715886784058000,-0.0020619183778762817,0.02200756035745144,0.07570982724428177,9.092782020568848,0.4091881215572357,-3.6123504638671875
1403715886789058000,-0.004165053367614746,0.019909704104065895,0.0757029578089714,9.05191421508789,0.4173993170261383,-3.644982099533081
1403715886794058000,0.0014166682958602905,0.017816223204135895,0.078493632376194,9.052024841308594,0.4092317819595337,-3.644953489303589
1403715886799058000,-0.0013717561960220337,0.01921202801167965,0.07779163867235184,9.076508522033691,0.3765408992767334,-3.6449198722839355
1403715886804058000,-0.0013701468706130981,0.018517667427659035,0.07780274003744125,9.084604263305664,0.4418995678424835,-3.6450271606445312
1403715886809058000,-0.002763703465461731,0.021307500079274178,0.07640283554792404,9.084615707397461,0.4010321795940399,-3.6286494731903076
1403715886814058000,-0.0013663321733474731,0.019913295283913612,0.07640362530946732,9.09281063079834,0.40103474259376526,-3.628652811050415
1403715886819058000,-0.0027634799480438232,0.019214559346437454,0.0757044330239296,9.076468467712402,0.40103867650032043,-3.6286532878875732
1403715886824058000,-0.0006833374500274658,0.02130245789885521,0.07568693906068802,9.068282127380371,0.35210028290748596,-3.6938061714172363
1403715886829058000,-0.004162460565567017,0.019215162843465805,0.08059275895357132,9.117213249206543,0.4500712752342224,-3.6695213317871094
1403715886834058000,-0.004855543375015259,0.019215239211916924,0.07570626586675644,9.084604263305664,0.40919986367225647,-3.6286780834198
1403715886839058000,-0.0027704983949661255,0.024791739881038666,0.07709311693906784,9.06826400756836,0.37654608488082886,-3.6449031829833984
1403715886844058000,2.2932887077331543e-05,0.01990889199078083,0.07988817244768143,9.068359375,0.39286771416664124,-3.636774778366089
1403715886849058000,-0.0027728378772735596,0.018513420596718788,0.07709396630525589,9.060100555419922,0.40925127267837524,-3.6694374084472656
1403715886854058000,-0.0034663379192352295,0.02200658619403839,0.07501400262117386,9.076315879821777,0.46642306447029114,-3.6532177925109863
1403715886859058000,-0.0034667402505874634,0.02200411632657051,0.0764027014374733,9.076376914978027,0.4255707859992981,-3.6531529426574707
1403715886864058000,-0.0048537105321884155,0.021309107542037964,0.07430993765592575,9.092761039733887,0.3928605616092682,-3.6204957962036133
1403715886869058000,-0.0055606067180633545,0.017815735191106796,0.07848720997571945,9.076461791992188,0.38471734523773193,-3.6612629890441895
1403715886874058000,-0.002072736620903015,0.017815785482525826,0.07778967171907425,9.068324089050293,0.3847295343875885,-3.661247730255127
1403715886879058000,-0.0034679025411605835,0.01990809664130211,0.07500269263982773,9.035613059997559,0.40105658769607544,-3.6367926597595215
1403715886884058000,-0.0020642131567001343,0.017821935936808586,0.07850595563650131,9.092781066894531,0.4582163989543915,-3.628749370574951
1403715886889058000,2.288818359375e-05,0.01991058886051178,0.07779986411333084,9.060136795043945,0.4255600571632385,-3.636826276779175
1403715886894058000,-0.004166528582572937,0.021304059773683548,0.07569611817598343,9.068243026733398,0.38473567366600037,-3.661245346069336
1403715886899058000,2.5153160095214844e-05,0.018517207354307175,0.0736100897192955,9.06828498840332,0.40924185514450073,-3.6449711322784424
1403715886904058000,0.0007177740335464478,0.019909735769033432,0.07640364021062851,9.043781280517578,0.43374869227409363,-3.644987106323242
1403715886909058000,0.0007269531488418579,0.015728725120425224,0.07710393518209457,9.100995063781738,0.42556121945381165,-3.6450138092041016
1403715886914058000,-0.002067938446998596,0.01851656660437584,0.07709772139787674,9.092794418334961,0.40105926990509033,-3.653127670288086
1403715886919058000,0.0014200657606124878,0.018513338640332222,0.07709745317697525,9.043901443481445,0.3847044110298157,-3.62044358253479
1403715886924058000,-0.002762734889984131,0.017122380435466766,0.07709936052560806,9.10097599029541,0.401044100522995,-3.644982099533081
1403715886929058000,-0.003466993570327759,0.017817504703998566,0.07849565893411636,9.076425552368164,0.43374204635620117,-3.6613287925720215
1403715886934058000,0.0007181167602539062,0.01920955814421177,0.07639328390359879,9.043869972229004,0.3683905303478241,-3.644888162612915
1403715886939058000,-0.0006753355264663696,0.019212940707802773,0.07499981671571732,9.076458930969238,0.38474223017692566,-3.6612470149993896
1403715886944058000,-0.0034651905298233032,0.01781340315937996,0.07709232717752457,9.035728454589844,0.360181599855423,-3.620420455932617
1403715886949058000,-0.004158735275268555,0.018516693264245987,0.07430263608694077,9.092796325683594,0.36837145686149597,-3.6449334621429443
1403715886954058000,-0.004860803484916687,0.022702451795339584,0.07500603049993515,9.084515571594238,0.417396605014801,-3.6531457901000977
1403715886959058000,-0.004868820309638977,0.01781313307583332,0.07709185034036636,9.03559684753418,0.40925052762031555,-3.66943621635437
1403715886964058000,-0.00277632474899292,0.01990639977157116,0.07848639041185379,9.051933288574219,0.4010857045650482,-3.6775693893432617
1403715886969058000,-0.0013790428638458252,0.023396898061037064,0.0812872126698494,9.076385498046875,0.4419139623641968,-3.6694681644439697
1403715886974058000,-0.0020614564418792725,0.02061247080564499,0.07710496336221695,9.10912799835205,0.40918561816215515,-3.620516538619995
1403715886979058000,-0.0006697326898574829,0.01642519235610962,0.07640277594327927,9.09282398223877,0.40922266244888306,-3.644989490509033
1403715886984058000,-0.0041597336530685425,0.019214283674955368,0.07710240036249161,9.076448440551758,0.41737157106399536,-3.6286816596984863
1403715886989058000,-0.003460496664047241,0.01991226151585579,0.07779868692159653,9.092802047729492,0.4010259211063385,-3.6286582946777344
1403715886994058000,-0.003463849425315857,0.019913263618946075,0.07849910110235214,9.10904598236084,0.4419049918651581,-3.661348819732666
1403715886999058000,-0.00207732617855072,0.02339646779000759,0.07988948374986649,9.06821346282959,0.4337545335292816,-3.6694555282592773
1403715887004058000,-0.004163026809692383,0.021306119859218597,0.07709243148565292,9.10092544555664,0.3765532970428467,-3.6612460613250732
1403715887009058000,-0.00206620991230011,0.018520928919315338,0.07640700787305832,9.133517265319824,0.45009976625442505,-3.677687168121338
1403715887014058000,-0.0006673336029052734,0.02270800806581974,0.07501678913831711,9.117197036743164,0.4500649869441986,-3.636887311935425
1403715887019058000,0.0007235854864120483,0.022703668102622032,0.07780193537473679,9.09277057647705,0.42555466294288635,-3.636829137802124
1403715887024058000,-0.0013712793588638306,0.0192138459533453,0.07919526845216751,9.084630012512207,0.42555785179138184,-3.6449973583221436
1403715887029058000,-0.0034698396921157837,0.02200145088136196,0.07639823108911514,9.051905632019043,0.40924185514450073,-3.6531155109405518
1403715887034058000,-0.005566716194152832,0.024093037471175194,0.07569288462400436,9.060020446777344,0.38475340604782104,-3.677548408508301
1403715887039058000,-0.0034660547971725464,0.01782054267823696,0.07500911504030228,9.084526062011719,0.4501030445098877,-3.6695215702056885
1403715887044058000,0.0028136223554611206,0.02200387790799141,0.07779648154973984,9.076488494873047,0.401061475276947,-3.6449363231658936
1403715887049058000,0.0021150410175323486,0.02339864894747734,0.07710134238004684,9.0601224899292,0.41739916801452637,-3.6367979049682617
1403715887054058000,0.0021199285984039307,0.019909098744392395,0.07989513128995895,9.043927192687988,0.4010070562362671,-3.595989227294922
1403715887059058000,-0.0006826668977737427,0.021998165175318718,0.08127576857805252,9.060157775878906,0.3765636086463928,-3.669360876083374
1403715887064058000,-0.002074122428894043,0.01851480081677437,0.07290435582399368,9.060074806213379,0.39293745160102844,-3.6775729656219482
1403715887069058000,-0.0020691901445388794,0.019908569753170013,0.081288181245327,9.060187339782715,0.4091835916042328,-3.6204891204833984
1403715887074058000,-0.005560398101806641,0.02409738302230835,0.07639842480421066,9.108976364135742,0.40924447774887085,-3.677605628967285
1403715887079058000,-0.004854872822761536,0.018520396202802658,0.07711104303598404,9.100876808166504,0.466391384601593,-3.636930227279663
1403715887084058000,-0.0034584254026412964,0.019910458475351334,0.07570519298315048,9.052040100097656,0.37649211287498474,-3.5878217220306396
1403715887089058000,-0.006253555417060852,0.019215265288949013,0.07500622421503067,9.092705726623535,0.4173976182937622,-3.653167486190796
1403715887094058000,-0.0006679445505142212,0.019916199147701263,0.07780344039201736,9.133577346801758,0.43372583389282227,-3.6531832218170166
1403715887099058000,-0.0006721466779708862,0.01991182193160057,0.07710563391447067,9.060135841369629,0.43371444940567017,-3.620528221130371
1403715887104058000,-0.0020686835050582886,0.023400964215397835,0.07360773533582687,9.0927152633667,0.39290231466293335,-3.6531028747558594
1403715887109058000,-0.0034573227167129517,0.017821814864873886,0.07780405133962631,9.100972175598145,0.42552757263183594,-3.6205501556396484
1403715887114058000,-0.0013659745454788208,0.022007020190358162,0.07780123502016068,9.10911750793457,0.4091959297657013,-3.628661870956421
1403715887119058000,-0.004153534770011902,0.01921798288822174,0.0757087841629982,9.109113693237305,0.40919044613838196,-3.6205286979675293
1403715887124058000,-0.004161819815635681,0.021304568275809288,0.07849850505590439,9.051968574523926,0.41735580563545227,-3.6123476028442383
1403715887129058000,-0.0027751177549362183,0.021302053704857826,0.07779140025377274,9.0437593460083,0.4092472493648529,-3.661262035369873
1403715887134058000,-0.0013725906610488892,0.015725955367088318,0.07989653199911118,9.076462745666504,0.45824486017227173,-3.6532084941864014
1403715887139058000,-0.000673934817314148,0.018515676259994507,0.07919681817293167,9.068315505981445,0.4337225556373596,-3.6368470191955566
1403715887144058000,-0.004168063402175903,0.020603515207767487,0.07709188014268875,9.03563117980957,0.38472267985343933,-3.644918441772461
1403715887149058000,-0.0027719736099243164,0.0192115418612957,0.07709463685750961,9.068255424499512,0.40925273299217224,-3.6694395542144775
1403715887154058000,-0.0020739585161209106,0.023398134857416153,0.07640480250120163,9.051871299743652,0.44191285967826843,-3.64500093460083
1403715887159058000,-0.0027698278427124023,0.023398693650960922,0.07849303632974625,9.092721939086914,0.4092312753200531,-3.6612775325775146
1403715887164058000,-0.0020733028650283813,0.01851554587483406,0.08198636025190353,9.100913047790527,0.4500892460346222,-3.677664041519165
1403715887169058000,-0.0027707666158676147,0.02130482718348503,0.07710131257772446,9.05190658569336,0.43373972177505493,-3.6449978351593018
1403715887174058000,2.372264862060547e-05,0.02200358733534813,0.0777972862124443,9.076470375061035,0.40104809403419495,-3.6367886066436768
1403715887179058000,-0.0034710317850112915,0.017814692109823227,0.0798882320523262,9.05195426940918,0.42557457089424133,-3.6613049507141113
1403715887184058000,-0.0006709247827529907,0.018515875563025475,0.07779707759618759,9.07652473449707,0.39286741614341736,-3.628634214401245
1403715887189058000,-0.0013759583234786987,0.019213208928704262,0.07221292704343796,9.043717384338379,0.42560985684394836,-3.661301374435425
1403715887194058000,-0.0006783902645111084,0.0192120224237442,0.07779029756784439,9.084620475769043,0.39291825890541077,-3.677569627761841
1403715887199058000,-0.0013744831085205078,0.02200057916343212,0.07779277116060257,9.051983833312988,0.3847103416919708,-3.6367573738098145
1403715887204058000,-0.0055559128522872925,0.019911298528313637,0.07849099487066269,9.109105110168457,0.3846990168094635,-3.6531143188476562
1403715887209058000,-0.004155561327934265,0.019216343760490417,0.0785020962357521,9.100954055786133,0.4255189597606659,-3.6205475330352783
1403715887214058000,-0.004165828227996826,0.017116587609052658,0.07988641411066055,9.052003860473633,0.401042103767395,-3.6449594497680664
1403715887219058000,-0.002075403928756714,0.019210923463106155,0.07569987326860428,9.043756484985352,0.4174238443374634,-3.6612844467163086
1403715887224058000,-0.006255850195884705,0.019210947677493095,0.08128955215215683,9.060136795043945,0.42551514506340027,-3.6205294132232666
1403715887229058000,-0.002771928906440735,0.021303799003362656,0.08198004215955734,9.092768669128418,0.4092261493206024,-3.6694343090057373
1403715887234058000,-0.0034621208906173706,0.017818551510572433,0.0777968093752861,9.084647178649902,0.4010360538959503,-3.636817216873169
1403715887239058000,-0.0034593194723129272,0.019216438755393028,0.0778031125664711,9.100943565368652,0.4255344867706299,-3.6287014484405518
1403715887244058000,0.003510221838951111,0.023399844765663147,0.0805853083729744,9.125446319580078,0.4010772407054901,-3.677565574645996
1403715887249058000,-0.002077162265777588,0.019212443381547928,0.08058587461709976,9.100872039794922,0.441951721906662,-3.702116012573242
1403715887254058000,-0.0020709633827209473,0.020605716854333878,0.07849293202161789,9.052001953125,0.39286670088768005,-3.6286189556121826
1403715887259058000,-0.0027657300233840942,0.017817530781030655,0.07779213041067123,9.084677696228027,0.37653788924217224,-3.6449360847473145
1403715887264058000,-0.0034622102975845337,0.020609727129340172,0.0798918828368187,9.109111785888672,0.40920087695121765,-3.6449832916259766
1403715887269058000,-0.0020687729120254517,0.024096859619021416,0.07430557161569595,9.076416015625,0.38471508026123047,-3.6367685794830322
1403715887274058000,-0.0020705759525299072,0.022701656445860863,0.07709840685129166,9.084574699401855,0.40922781825065613,-3.6531219482421875
1403715887279058000,2.7179718017578125e-05,0.020612701773643494,0.07570793479681015,9.109075546264648,0.42557254433631897,-3.65316104888916
1403715887284058000,-0.0020647794008255005,0.019911393523216248,0.07500200718641281,9.076520919799805,0.360183984041214,-3.6204326152801514
1403715887289058000,-0.0006819218397140503,0.01711977832019329,0.07849211245775223,9.084563255310059,0.4419633150100708,-3.7021143436431885
1403715887294058000,-0.0013728439807891846,0.02130618691444397,0.0784972682595253,9.076436042785645,0.42555758357048035,-3.644986867904663
1403715887299058000,-0.005556613206863403,0.022002147510647774,0.08058913797140121,9.076467514038086,0.4010055959224701,-3.6204886436462402
1403715887304058000,-0.0013780593872070312,0.01711919903755188,0.08128645271062851,9.084593772888184,0.45010390877723694,-3.6858153343200684
1403715887309058000,0.0007120966911315918,0.01781657338142395,0.08058679848909378,9.084577560424805,0.45013362169265747,-3.7021172046661377
1403715887314058000,-0.001367524266242981,0.022702496498823166,0.07849689573049545,9.092817306518555,0.3928496241569519,-3.6204710006713867
1403715887319058000,0.005604863166809082,0.0178169384598732,0.07919120043516159,9.068419456481934,0.39289554953575134,-3.644925594329834
1403715887324058000,0.0014246553182601929,0.017818275839090347,0.07640030235052109,9.068424224853516,0.368351012468338,-3.6122798919677734
1403715887329058000,2.1517276763916016e-05,0.02339901402592659,0.07640091329813004,9.07641315460205,0.4092392325401306,-3.6531102657318115
1403715887334058000,-0.0013711750507354736,0.022004300728440285,0.07780089229345322,9.076431274414062,0.4255515933036804,-3.6368305683135986
1403715887339058000,-0.001370266079902649,0.026189573109149933,0.07431202381849289,9.051908493041992,0.40920498967170715,-3.6123199462890625
1403715887344058000,2.9146671295166016e-05,0.022705860435962677,0.07291311770677567,9.109074592590332,0.39289379119873047,-3.6449499130249023
1403715887349058000,-0.0034690499305725098,0.01990906335413456,0.07779981940984726,9.043750762939453,0.44190338253974915,-3.6450095176696777
1403715887354058000,0.0014202296733856201,0.02269849367439747,0.08268404752016068,9.06024169921875,0.3928285837173462,-3.604125499725342
1403715887359058000,-0.0006746500730514526,0.02060713618993759,0.08268066495656967,9.092844009399414,0.40103137493133545,-3.6449482440948486
1403715887364058000,-0.0013629049062728882,0.017823953181505203,0.0743185356259346,9.09277629852295,0.44188380241394043,-3.620570659637451
1403715887369058000,-0.0027686655521392822,0.021304205060005188,0.07640164345502853,9.043785095214844,0.4092152714729309,-3.6286427974700928
1403715887374058000,-0.003461480140686035,0.019912535324692726,0.07779998332262039,9.0927734375,0.41737478971481323,-3.6368370056152344
1403715887379058000,-0.0034614354372024536,0.02061324380338192,0.07641210407018661,9.100847244262695,0.4664081037044525,-3.645073175430298
1403715887384058000,0.001421898603439331,0.01991153508424759,0.07709950953722,9.076520919799805,0.39287522435188293,-3.6286213397979736
1403715887389058000,0.0014151036739349365,0.017818570137023926,0.07639964669942856,9.076440811157227,0.42561203241348267,-3.6776154041290283
1403715887394058000,-0.002065315842628479,0.017820341512560844,0.07431261986494064,9.068284034729004,0.4255580008029938,-3.628692388534546
1403715887399058000,-0.0034672021865844727,0.022004825994372368,0.07570027559995651,9.100851058959961,0.40925732254981995,-3.6776037216186523
1403715887404058000,-0.002776235342025757,0.02130221575498581,0.07848484069108963,9.068244934082031,0.392926424741745,-3.685713768005371
1403715887409058000,-0.0020700693130493164,0.01991058886051178,0.07640085369348526,9.068279266357422,0.4092298746109009,-3.644969940185547
1403715887414058000,-0.005554899573326111,0.019909370690584183,0.07779208570718765,9.07651138305664,0.36016765236854553,-3.620439052581787
1403715887419058000,2.2172927856445312e-05,0.019909217953681946,0.0784919485449791,9.068336486816406,0.39288201928138733,-3.64493465423584
1403715887424058000,-0.0034658312797546387,0.017118992283940315,0.07570364326238632,9.043798446655273,0.41739150881767273,-3.6368296146392822
1403715887429058000,-0.0027644336223602295,0.020610012114048004,0.07779685407876968,9.100943565368652,0.40104037523269653,-3.644968032836914
1403715887434058000,-0.0027629733085632324,0.022704681381583214,0.07500653713941574,9.109055519104004,0.40104782581329346,-3.644970178604126
1403715887439058000,-0.00136643648147583,0.017821215093135834,0.07570735365152359,9.092796325683594,0.41738513112068176,-3.636842727661133
1403715887444058000,-0.001365378499031067,0.018518447875976562,0.07919669896364212,9.109169006347656,0.40918833017349243,-3.628671646118164
1403715887449058000,-0.0013713091611862183,0.019213112071156502,0.08059478551149368,9.068316459655762,0.44187504053115845,-3.6287002563476562
1403715887454058000,-0.0020734816789627075,0.021303363144397736,0.07709255069494247,9.060125350952148,0.3847270607948303,-3.653076410293579
1403715887459058000,-0.0041648149490356445,0.022002391517162323,0.07848856598138809,9.092757225036621,0.3847196102142334,-3.6612486839294434
1403715887464058000,-0.0006738007068634033,0.0192117802798748,0.08058641105890274,9.076532363891602,0.3928621709346771,-3.636782169342041
1403715887469058000,-0.0020675063133239746,0.022001933306455612,0.07989024370908737,9.068354606628418,0.38466840982437134,-3.612292766571045
1403715887474058000,-0.0034656524658203125,0.019911255687475204,0.07709423452615738,9.10091781616211,0.39290013909339905,-3.6694283485412598
1403715887479058000,-0.004165351390838623,0.02060845121741295,0.08059098571538925,9.092723846435547,0.44189900159835815,-3.661337375640869
1403715887484058000,-0.0020686089992523193,0.01921347714960575,0.07849501818418503,9.084634780883789,0.4092139005661011,-3.6449756622314453
1403715887489058000,-0.0020664483308792114,0.019216271117329597,0.07570730894804001,9.092751502990723,0.42556333541870117,-3.6450090408325195
1403715887494058000,-0.0034687817096710205,0.019214892759919167,0.07501273602247238,9.059999465942383,0.4746084213256836,-3.6613881587982178
1403715887499058000,-0.0027683526277542114,0.019910937175154686,0.07291064411401749,9.051910400390625,0.40924346446990967,-3.6449687480926514
1403715887504058000,-0.0020732134580612183,0.019214089959859848,0.07640085369348526,9.08454418182373,0.43377235531806946,-3.6776387691497803
1403715887509058000,-0.002069339156150818,0.01991124264895916,0.07710028439760208,9.07643985748291,0.41739457845687866,-3.6449854373931885
1403715887514058000,-0.00276830792427063,0.019210750237107277,0.07988438755273819,9.076515197753906,0.3765333890914917,-3.64492130279541
1403715887519058000,-0.0020621120929718018,0.01782040297985077,0.07919926196336746,9.092854499816895,0.4173465967178345,-3.6123716831207275
1403715887524058000,-0.0006727725267410278,0.015727490186691284,0.07850395888090134,9.076457023620605,0.46641305088996887,-3.645068645477295
1403715887529058000,-0.0020738691091537476,0.024096792563796043,0.07709383219480515,9.109015464782715,0.40109336376190186,-3.685734272003174
1403715887534058000,-0.002082645893096924,0.020603729411959648,0.07638510316610336,9.060068130493164,0.37662792205810547,-3.7101564407348633
1403715887539058000,-0.0034682899713516235,0.01921149343252182,0.07779555767774582,9.060103416442871,0.41740143299102783,-3.6531403064727783
1403715887544058000,-0.0034682005643844604,0.022699307650327682,0.07849069684743881,9.076425552368164,0.392882764339447,-3.6530959606170654
1403715887549058000,-0.005560979247093201,0.02200266905128956,0.07849530130624771,9.076375961303711,0.4255584478378296,-3.6531553268432617
1403715887554058000,-0.000670209527015686,0.019215483218431473,0.07780276983976364,9.084641456604004,0.4255436360836029,-3.6286869049072266
1403715887559058000,-0.002758920192718506,0.018520792946219444,0.07500991970300674,9.117270469665527,0.40921148657798767,-3.636845588684082
1403715887564058000,-0.0020653903484344482,0.015728019177913666,0.07849615067243576,9.117300987243652,0.4173942804336548,-3.661327362060547
1403715887569058000,-0.0006756186485290527,0.021303799003362656,0.08058910816907883,9.060171127319336,0.4091998040676117,-3.6286377906799316
1403715887574058000,0.00211392343044281,0.01921064592897892,0.08058943599462509,9.05203628540039,0.417387992143631,-3.6367998123168945
1403715887579058000,-0.00067119300365448,0.020611772313714027,0.07710292190313339,9.109081268310547,0.42556750774383545,-3.6531600952148438
1403715887584058000,-0.002764582633972168,0.019215652719140053,0.07571015506982803,9.076410293579102,0.44189906120300293,-3.636873245239258
1403715887589058000,-0.0027610808610916138,0.02200596034526825,0.07639933377504349,9.109139442443848,0.3683494031429291,-3.628607749938965
1403715887594058000,-0.004164829850196838,0.02060892805457115,0.07919148355722427,9.109037399291992,0.4255819618701935,-3.6776323318481445
1403715887599058000,-0.002071067690849304,0.021303832530975342,0.079887755215168,9.068326950073242,0.3928655982017517,-3.6367766857147217
1403715887604058000,-0.0013744384050369263,0.020607229322195053,0.07499288767576218,9.084644317626953,0.34389981627464294,-3.669342517852783
1403715887609058000,0.0007186233997344971,0.017818350344896317,0.07640761882066727,9.043778419494629,0.4582583010196686,-3.6450321674346924
1403715887614058000,2.9325485229492188e-05,0.021309318020939827,0.07641277462244034,9.068296432495117,0.4418664276599884,-3.6042301654815674
1403715887619058000,-0.002070218324661255,0.02060660347342491,0.07639642804861069,9.060157775878906,0.3765413463115692,-3.6367571353912354
1403715887624058000,-0.0013723373413085938,0.019213050603866577,0.0819888636469841,9.084636688232422,0.4418850541114807,-3.645017385482788
1403715887629058000,-0.002767801284790039,0.023398621007800102,0.08129281550645828,9.076425552368164,0.4418692886829376,-3.6286938190460205
1403715887634058000,-0.0006836652755737305,0.02199729159474373,0.07777970284223557,9.043852806091309,0.3357311189174652,-3.669299364089966
1403715887639058000,2.5898218154907227e-05,0.01921664923429489,0.07710335403680801,9.10908317565918,0.43374869227409363,-3.6613306999206543
1403715887644058000,-0.0006707757711410522,0.021308116614818573,0.07780300825834274,9.084619522094727,0.4255426824092865,-3.6286780834198
1403715887649058000,-0.004857420921325684,0.019216075539588928,0.0763973668217659,9.133550643920898,0.3929009437561035,-3.677607297897339
1403715887654058000,-0.005553826689720154,0.017121033743023872,0.07640189677476883,9.076472282409668,0.40103021264076233,-3.628669023513794
1403715887659058000,-0.004158526659011841,0.018515482544898987,0.07779603451490402,9.076512336730957,0.38468047976493835,-3.620476245880127
1403715887664058000,-0.002762317657470703,0.022008229047060013,0.07570502907037735,9.13353443145752,0.4092286229133606,-3.661304473876953
1403715887669058000,-0.003456488251686096,0.01503291167318821,0.07500892132520676,9.125439643859863,0.4173906147480011,-3.6531877517700195
1403715887674058000,0.0014203637838363647,0.019212810322642326,0.07848822325468063,9.09289264678955,0.36019983887672424,-3.6448919773101807
1403715887679058000,-0.0006789118051528931,0.01990985870361328,0.07709025591611862,9.092771530151367,0.3847569227218628,-3.6857144832611084
1403715887684058000,-0.0013724863529205322,0.017819972708821297,0.07640073448419571,9.100907325744629,0.4255945086479187,-3.677635431289673
1403715887689058000,-0.00277121365070343,0.021301856264472008,0.07778840512037277,9.051992416381836,0.36837396025657654,-3.6448938846588135
1403715887694058000,-0.0034654438495635986,0.02409622259438038,0.07849057763814926,9.10091495513916,0.38470545411109924,-3.6530892848968506
1403715887699058000,-0.0027699917554855347,0.021305568516254425,0.0770997628569603,9.06823444366455,0.425569623708725,-3.6531476974487305
1403715887704058000,-0.0013738125562667847,0.02130589447915554,0.07570206373929977,9.068253517150879,0.4092378318309784,-3.6531190872192383
1403715887709058000,0.0007219761610031128,0.019214902073144913,0.07989775389432907,9.084627151489258,0.45006483793258667,-3.6450297832489014
1403715887714058000,0.0007309168577194214,0.019217215478420258,0.0750141367316246,9.07652759552002,0.40918365120887756,-3.5960330963134766
1403715887719058000,-0.004161134362220764,0.01921199820935726,0.07709348946809769,9.076498031616211,0.3683607280254364,-3.6367623805999756
1403715887724058000,-0.0034660696983337402,0.01642061211168766,0.08058670908212662,9.068344116210938,0.40920761227607727,-3.6449763774871826
1403715887729058000,-0.0034698843955993652,0.020603982731699944,0.08128535002470016,9.043810844421387,0.41737309098243713,-3.6368072032928467
1403715887734058000,-0.004165291786193848,0.024793263524770737,0.07918822020292282,9.100884437561035,0.39288267493247986,-3.6612534523010254
1403715887739058000,-0.0027667880058288574,0.021309781819581985,0.07500775903463364,9.117155075073242,0.43376585841178894,-3.6776487827301025
1403715887744058000,-0.0013745874166488647,0.022698860615491867,0.07709618657827377,9.051961898803711,0.3928823173046112,-3.6367673873901367
1403715887749058000,-0.0013737529516220093,0.01921256259083748,0.07709742337465286,9.068288803100586,0.40923434495925903,-3.653123617172241
1403715887754058000,-0.0006755441427230835,0.022005103528499603,0.07919379323720932,9.109062194824219,0.42557722330093384,-3.669461727142334
1403715887759058000,-0.0006711781024932861,0.022004691883921623,0.07780086249113083,9.076475143432617,0.4091971516609192,-3.6204910278320312
1403715887764058000,-0.002068057656288147,0.01711922138929367,0.07570085674524307,9.052024841308594,0.3847064673900604,-3.6286237239837646
1403715887769058000,-0.002765282988548279,0.0157240591943264,0.0791872963309288,9.084712982177734,0.37653088569641113,-3.6449382305145264
1403715887774058000,2.4184584617614746e-05,0.01572258025407791,0.08059100061655045,9.043910026550293,0.41736432909965515,-3.620501756668091
1403715887779058000,2.561509609222412e-05,0.02130444347858429,0.07989486306905746,9.05203628540039,0.4091774523258209,-3.6041629314422607
1403715887784058000,-0.0006716251373291016,0.01642315462231636,0.07710344344377518,9.060173988342285,0.42555174231529236,-3.6286838054656982
1403715887789058000,-0.003465518355369568,0.020607776939868927,0.07989951223134995,9.051936149597168,0.4582090973854065,-3.620565176010132
1403715887794058000,-0.002074301242828369,0.02200118824839592,0.07919440418481827,9.051921844482422,0.43373292684555054,-3.6449849605560303
1403715887799058000,-0.0034698545932769775,0.021307308226823807,0.07920078188180923,9.084487915039062,0.4827710688114166,-3.6695501804351807
1403715887804058000,-0.002759799361228943,0.021310241892933846,0.07641104608774185,9.092761993408203,0.43369758129119873,-3.612391948699951
1403715887809058000,-0.001369088888168335,0.020611055195331573,0.07780104130506516,9.100926399230957,0.42556115984916687,-3.6450021266937256
1403715887814058000,-0.0013666599988937378,0.019914625212550163,0.07850166410207748,9.109106063842773,0.43371641635894775,-3.636862277984619
1403715887819058000,-0.002768874168395996,0.019212616607546806,0.07849430292844772,9.076443672180176,0.4174008369445801,-3.653141736984253
1403715887824058000,-0.0034647136926651,0.024794185534119606,0.0784917101264,9.10091495513916,0.3847023844718933,-3.644928455352783
1403715887829058000,-0.002767994999885559,0.017820972949266434,0.07779993861913681,9.117194175720215,0.45010924339294434,-3.685838222503662
1403715887834058000,-0.0013778209686279297,0.020606879144906998,0.0736025795340538,9.051913261413574,0.3929345905780792,-3.669403314590454
1403715887839058000,-0.0027735531330108643,0.024092745035886765,0.07848472148180008,9.06827449798584,0.3683897852897644,-3.6612026691436768
1403715887844058000,-0.0006685554981231689,0.02270537056028843,0.07710141688585281,9.125426292419434,0.40104153752326965,-3.644967555999756
1403715887849058000,0.0007261037826538086,0.017818907275795937,0.07640475779771805,9.06021499633789,0.401029497385025,-3.6123275756835938
1403715887854058000,-0.0013748258352279663,0.01921261101961136,0.07360123842954636,9.068277359008789,0.37658390402793884,-3.6693923473358154
1403715887859058000,-0.004159525036811829,0.01851375587284565,0.07709277421236038,9.068380355834961,0.3520036041736603,-3.6204237937927246
1403715887864058000,-0.0027665793895721436,0.019208576530218124,0.07779324799776077,9.027570724487305,0.3683350384235382,-3.604106903076172
1403715887869058000,-0.0013772398233413696,0.020602917298674583,0.07778141647577286,9.052050590515137,0.32753321528434753,-3.652984619140625
1403715887874058000,0.002813860774040222,0.01990988850593567,0.08128555864095688,9.084705352783203,0.40103983879089355,-3.6449382305145264
1403715887879058000,-0.0006811916828155518,0.01850998029112816,0.08337689191102982,9.04386043548584,0.41738376021385193,-3.653111457824707
1403715887884058000,-0.002071186900138855,0.018512818962335587,0.07708331197500229,9.084717750549316,0.3193647861480713,-3.661156177520752
1403715887889058000,-0.0041578710079193115,0.016423769295215607,0.07779639214277267,9.092832565307617,0.3928563892841339,-3.6368160247802734
1403715887894058000,-0.002065330743789673,0.01781681925058365,0.07709807902574539,9.060220718383789,0.37650489807128906,-3.612295627593994
1403715887899058000,-0.0013690590858459473,0.019910041242837906,0.07988373190164566,9.10105037689209,0.3520023822784424,-3.6367311477661133
1403715887904058000,0.000731155276298523,0.016428284347057343,0.07710547000169754,9.125503540039062,0.41737067699432373,-3.636852979660034
1403715887909058000,-0.0013691186904907227,0.01851758360862732,0.07570569962263107,9.084611892700195,0.4173932373523712,-3.6449921131134033
1403715887914058000,-0.0034688562154769897,0.021302422508597374,0.07708989828824997,9.060133934020996,0.3683798015117645,-3.6530561447143555
1403715887919058000,-0.0055548399686813354,0.015726562589406967,0.07570143789052963,9.092781066894531,0.4010513126850128,-3.653151750564575
1403715887924058000,-0.0013699829578399658,0.01781563088297844,0.07918962091207504,9.060236930847168,0.376510888338089,-3.6204447746276855
1403715887929058000,-0.0006731897592544556,0.019211262464523315,0.08058283478021622,9.084723472595215,0.3683476746082306,-3.6367478370666504
1403715887934058000,-0.0013727694749832153,0.01921073906123638,0.07779914885759354,9.03567123413086,0.41737157106399536,-3.6204943656921387
1403715887939058000,-0.005552366375923157,0.01781982183456421,0.0750088021159172,9.076452255249023,0.4091942310333252,-3.6205248832702637
1403715887944058000,-0.0027608871459960938,0.017820999026298523,0.07779990881681442,9.109139442443848,0.4091986119747162,-3.6368370056152344
1403715887949058000,-0.0020667463541030884,0.01921263337135315,0.07989200204610825,9.076523780822754,0.4010148048400879,-3.6204872131347656
1403715887954058000,0.0021233409643173218,0.0220076572149992,0.07710609585046768,9.100981712341309,0.4173673987388611,-3.620506525039673
1403715887959058000,-0.001376137137413025,0.02060825005173683,0.07500290125608444,9.068222999572754,0.41743093729019165,-3.6694436073303223
1403715887964058000,-0.0013744533061981201,0.017817871645092964,0.07569689303636551,9.084609985351562,0.3929235637187958,-3.6775782108306885
1403715887969058000,0.0007274597883224487,0.024102075025439262,0.07641366869211197,9.100900650024414,0.4500482678413391,-3.620556354522705
1403715887974058000,-0.003465324640274048,0.021305672824382782,0.07779961079359055,9.068256378173828,0.42555004358291626,-3.636836051940918
1403715887979058000,2.4974346160888672e-05,0.019214952364563942,0.07290931791067123,9.076446533203125,0.3929136395454407,-3.6531054973602295
1403715887984058000,2.3111701011657715e-05,0.021308427676558495,0.07431124895811081,9.076387405395508,0.43375861644744873,-3.6531572341918945
1403715887989058000,-0.0048568397760391235,0.019215429201722145,0.07709944993257523,9.109076499938965,0.409217894077301,-3.6531529426574707
1403715887994058000,2.6479363441467285e-05,0.01851826161146164,0.0805983766913414,9.092802047729492,0.4582233428955078,-3.636892080307007
1403715887999058000,2.5585293769836426e-05,0.02270294539630413,0.07990045100450516,9.076449394226074,0.4500429332256317,-3.6205475330352783
1403715888004058000,-0.0013695359230041504,0.02130710892379284,0.07779451459646225,9.100969314575195,0.3847104012966156,-3.6449365615844727
1403715888009058000,-0.004161268472671509,0.017818234860897064,0.0784946009516716,9.084632873535156,0.40921321511268616,-3.644986867904663
1403715888014058000,-0.004858165979385376,0.01572549343109131,0.07570784538984299,9.051956176757812,0.4337210953235626,-3.628710985183716
1403715888019058000,-0.0027688592672348022,0.021305091679096222,0.07849075645208359,9.084613800048828,0.39288559556007385,-3.65310001373291
1403715888024058000,-0.004861027002334595,0.01991185173392296,0.07500436156988144,9.084537506103516,0.4174122214317322,-3.661311388015747
1403715888029058000,-0.000673145055770874,0.02130611054599285,0.07849376648664474,9.084651947021484,0.3928709328174591,-3.636781692504883
1403715888034058000,-0.0034714341163635254,0.021302983164787292,0.0798811987042427,9.084600448608398,0.3847346603870392,-3.677553653717041
1403715888039058000,-0.0020699352025985718,0.019914884120225906,0.07780402153730392,9.117169380187988,0.46643781661987305,-3.6776978969573975
1403715888044058000,-0.0027723759412765503,0.019213836640119553,0.07710399478673935,9.068188667297363,0.46644118428230286,-3.6695284843444824
1403715888049058000,-0.0027712583541870117,0.018513096496462822,0.07918774336576462,9.068302154541016,0.4010661244392395,-3.6612703800201416
1403715888054058000,-0.0006711483001708984,0.020609332248568535,0.07570246607065201,9.076491355895996,0.38470596075057983,-3.628620147705078
1403715888059058000,0.0014196783304214478,0.02270106039941311,0.0750042125582695,9.060151100158691,0.3847161829471588,-3.628599166870117
1403715888064058000,2.467632293701172e-05,0.019910072907805443,0.07779335230588913,9.07652473449707,0.3765344023704529,-3.6367576122283936
1403715888069058000,-0.004163220524787903,0.02060869336128235,0.0757041797041893,9.068235397338867,0.41739508509635925,-3.6449880599975586
1403715888074058000,-0.0062580108642578125,0.02409730851650238,0.077100969851017,9.09264087677002,0.43373772501945496,-3.6613259315490723
1403715888079058000,-0.00276772677898407,0.021305784583091736,0.07849157601594925,9.092777252197266,0.3928804099559784,-3.6531050205230713
1403715888084058000,-0.0020687133073806763,0.022703595459461212,0.079196996986866,9.109053611755371,0.43372583389282227,-3.653165817260742
1403715888089058000,-0.0034645497798919678,0.022700432687997818,0.07919306308031082,9.076454162597656,0.4010230004787445,-3.6286380290985107
1403715888094058000,-0.00416526198387146,0.020608002319931984,0.07709959894418716,9.068227767944336,0.4255695343017578,-3.653153419494629
1403715888099058000,0.0007145553827285767,0.01921161636710167,0.07709822803735733,9.05193042755127,0.433773010969162,-3.6694576740264893
1403715888104058000,0.0007245689630508423,0.01781783066689968,0.07988936454057693,9.084737777709961,0.3846898078918457,-3.6286189556121826
1403715888109058000,-0.002759784460067749,0.020610878244042397,0.07989203184843063,9.117341041564941,0.38466382026672363,-3.6204781532287598
1403715888114058000,3.2201409339904785e-05,0.01712498627603054,0.07570353895425797,9.125505447387695,0.38470959663391113,-3.6449615955352783
1403715888119058000,-0.0041593462228775024,0.01921255514025688,0.07639893144369125,9.068336486816406,0.3765159845352173,-3.6204581260681152
1403715888124058000,-0.002070307731628418,0.018510892987251282,0.07988493889570236,9.043912887573242,0.36834219098091125,-3.620422840118408
1403715888129058000,2.855062484741211e-05,0.01712149754166603,0.07919127494096756,9.101052284240723,0.38469111919403076,-3.636787176132202
1403715888134058000,0.00212155282497406,0.017822545021772385,0.07711020857095718,9.092796325683594,0.4582361876964569,-3.6368916034698486
1403715888139058000,-0.004165425896644592,0.02200174890458584,0.07709742337465286,9.060078620910645,0.40921974182128906,-3.64496111869812
1403715888144058000,-0.002070605754852295,0.01990925520658493,0.07918743044137955,9.0846529006958,0.3847116529941559,-3.6530885696411133
1403715888149058000,-0.00276811420917511,0.02200406789779663,0.07849349826574326,9.10090446472168,0.40922725200653076,-3.6612844467163086
1403715888154058000,-0.00416778028011322,0.02200111374258995,0.0756886824965477,9.08459758758545,0.34389829635620117,-3.6775004863739014
1403715888159058000,-0.002762824296951294,0.02061200514435768,0.07710587233304977,9.100909233093262,0.433713436126709,-3.6368651390075684
1403715888164058000,-0.00416208803653717,0.019214438274502754,0.07710408419370651,9.076401710510254,0.4418957233428955,-3.6450324058532715
1403715888169058000,-0.0013671964406967163,0.020612094551324844,0.07849986106157303,9.117265701293945,0.42554983496665955,-3.645007848739624
1403715888174058000,-0.0034612417221069336,0.02060931921005249,0.07918990403413773,9.109152793884277,0.3765144646167755,-3.6367781162261963
1403715888179058000,0.0007202327251434326,0.0178169384598732,0.07570309191942215,9.043839454650879,0.40923410654067993,-3.636800527572632
1403715888184058000,-0.002069517970085144,0.018515050411224365,0.0777919813990593,9.08465576171875,0.3847149908542633,-3.653097152709961
1403715888189058000,-0.005558684468269348,0.020607925951480865,0.07989027351140976,9.092745780944824,0.4173799753189087,-3.653151035308838
1403715888194058000,-0.0006745457649230957,0.02130689099431038,0.07780290395021439,9.06826114654541,0.4418964385986328,-3.636852264404297
1403715888199058000,-0.004163384437561035,0.023397788405418396,0.07988763600587845,9.09276294708252,0.39286473393440247,-3.64494252204895
1403715888204058000,-0.003465116024017334,0.019913427531719208,0.08129537850618362,9.109037399291992,0.47457680106163025,-3.66139554977417
1403715888209058000,-0.004858583211898804,0.017823250964283943,0.07641761749982834,9.084495544433594,0.5072599649429321,-3.645146369934082
1403715888214058000,-0.0020662546157836914,0.019213397055864334,0.07989668101072311,9.068339347839355,0.4255237579345703,-3.6123669147491455
1403715888219058000,-0.001369774341583252,0.017121003940701485,0.07709688693284988,9.084671020507812,0.39288800954818726,-3.644958257675171
1403715888224058000,-0.0034693926572799683,0.020608453080058098,0.0771002396941185,9.076359748840332,0.4419330060482025,-3.669489622116089
1403715888229058000,-0.0013754665851593018,0.024094922468066216,0.07709791511297226,9.060080528259277,0.40923207998275757,-3.644947052001953
1403715888234058000,-0.004161760210990906,0.022003596648573875,0.07709448784589767,9.0927734375,0.3765380382537842,-3.644928455352783
1403715888239058000,-0.0034666210412979126,0.018514901399612427,0.0798942819237709,9.068276405334473,0.441895991563797,-3.6450233459472656
1403715888244058000,-0.0034748613834381104,0.019208375364542007,0.07639173418283463,9.035588264465332,0.4011004567146301,-3.6775705814361572
1403715888249058000,-0.00347292423248291,0.01920868456363678,0.07638787478208542,9.051955223083496,0.3684161603450775,-3.677530288696289
1403715888254058000,-0.0041648149490356445,0.01921200007200241,0.07570298761129379,9.051919937133789,0.41739851236343384,-3.644986152648926
1403715888259058000,-0.0034672319889068604,0.02130136638879776,0.0777912363409996,9.03568172454834,0.3683511018753052,-3.6204209327697754
1403715888264058000,-0.005554661154747009,0.017816999927163124,0.0812840387225151,9.092853546142578,0.3846658766269684,-3.6286401748657227
1403715888269058000,-0.0034612417221069336,0.022008636966347694,0.07781415432691574,9.08452320098877,0.49088719487190247,-3.6206328868865967
1403715888274058000,0.000723034143447876,0.018518636003136635,0.07710448652505875,9.092769622802734,0.44191431999206543,-3.653181552886963
1403715888279058000,-0.0020716339349746704,0.019212380051612854,0.07778889685869217,9.09280014038086,0.37656325101852417,-3.6693973541259766
1403715888284058000,-0.0020697563886642456,0.018514474853873253,0.07919060438871384,9.076494216918945,0.4010465741157532,-3.6449596881866455
1403715888289058000,0.0007216334342956543,0.019213946536183357,0.0763988271355629,9.084650039672852,0.3928980827331543,-3.6531002521514893
1403715888294058000,-0.0006706416606903076,0.019215555861592293,0.07849279791116714,9.125467300415039,0.392884224653244,-3.6612746715545654
1403715888299058000,-0.002074524760246277,0.01711873710155487,0.07918859273195267,9.076452255249023,0.41742193698883057,-3.677612066268921
1403715888304058000,-0.004862338304519653,0.020607326179742813,0.07849609106779099,9.068245887756348,0.42555466294288635,-3.6449978351593018
1403715888309058000,-0.003463253378868103,0.018514886498451233,0.0770929679274559,9.08466625213623,0.36836716532707214,-3.6449248790740967
1403715888314058000,-0.002763897180557251,0.01711987890303135,0.07989617437124252,9.060194969177246,0.4255189597606659,-3.6123733520507812
1403715888319058000,2.4899840354919434e-05,0.021304894238710403,0.0757022276520729,9.052006721496582,0.38470038771629333,-3.6204464435577393
1403715888324058000,-0.0027657300233840942,0.01921207830309868,0.07778733223676682,9.092862129211426,0.3438539505004883,-3.6448817253112793
1403715888329058000,0.0021166354417800903,0.019212696701288223,0.07779187709093094,9.084696769714355,0.3765535354614258,-3.653068780899048
1403715888334058000,-0.002768978476524353,0.02619120106101036,0.07780525833368301,9.08448600769043,0.45823371410369873,-3.645030975341797
1403715888339058000,-0.004164338111877441,0.022698648273944855,0.0777958557009697,9.051941871643066,0.4010303020477295,-3.628631353378296
1403715888344058000,-0.003462374210357666,0.02270197495818138,0.07709907740354538,9.08460807800293,0.39285945892333984,-3.6286325454711914
1403715888349058000,-0.004854336380958557,0.019215423613786697,0.0777989849448204,9.100959777832031,0.4010184705257416,-3.6286678314208984
1403715888354058000,-0.004858851432800293,0.020606478676199913,0.08058329671621323,9.08467960357666,0.36833253502845764,-3.628598690032959
1403715888359058000,-0.004167333245277405,0.019907455891370773,0.0805879458785057,9.05195140838623,0.42554837465286255,-3.6449849605560303
1403715888364058000,-0.003466501832008362,0.017818909138441086,0.07919860631227493,9.07641315460205,0.4582403302192688,-3.653210401535034
1403715888369058000,-0.0034691691398620605,0.017118552699685097,0.07639079540967941,9.076458930969238,0.376579225063324,-3.6775600910186768
1403715888374058000,2.3663043975830078e-05,0.017122790217399597,0.07639696449041367,9.11727237701416,0.40109527111053467,-3.6857593059539795
1403715888379058000,0.002115607261657715,0.017818709835410118,0.07850626856088638,9.04381275177002,0.474577397108078,-3.628740072250366
1403715888384058000,-0.002067938446998596,0.019211966544389725,0.07849585264921188,9.060181617736816,0.40102502703666687,-3.620483875274658
1403715888389058000,-0.006955146789550781,0.019214855507016182,0.07849767059087753,9.108991622924805,0.4500882029533386,-3.677687644958496
1403715888394058000,-0.0041649192571640015,0.017118781805038452,0.0777985081076622,9.051947593688965,0.43373459577560425,-3.6450142860412598
1403715888399058000,-0.002073436975479126,0.020605824887752533,0.07848679274320602,9.076472282409668,0.37655943632125854,-3.661229133605957
1403715888404058000,-0.0013699382543563843,0.019912203773856163,0.08058495074510574,9.133625030517578,0.3928847908973694,-3.669430732727051
1403715888409058000,-0.0013741850852966309,0.019908474758267403,0.07779330760240555,9.060153007507324,0.39288824796676636,-3.6449360847473145
1403715888414058000,-0.0034690499305725098,0.019902154803276062,0.07988012582063675,9.011263847351074,0.34383153915405273,-3.6122145652770996
1403715888419058000,-0.0027702152729034424,0.02130277082324028,0.07569745928049088,9.043806076049805,0.37654417753219604,-3.636749505996704
1403715888424058000,-0.0006744414567947388,0.017817504703998566,0.0770956352353096,9.076493263244629,0.39289167523384094,-3.6531052589416504
1403715888429058000,-0.0027671754360198975,0.024098945781588554,0.07710159569978714,9.109007835388184,0.4255678057670593,-3.661308765411377
1403715888434058000,-0.0006769895553588867,0.023398060351610184,0.07709366828203201,9.084595680236816,0.384727418422699,-3.6612324714660645
1403715888439058000,0.0007136315107345581,0.01920890249311924,0.08128618448972702,9.035664558410645,0.4337412416934967,-3.6531341075897217
1403715888444058000,0.0007234513759613037,0.020608024671673775,0.07919501513242722,9.068360328674316,0.4010235667228699,-3.6204729080200195
1403715888449058000,-0.0020666271448135376,0.022702815011143684,0.07640153914690018,9.092767715454102,0.3928713798522949,-3.6367897987365723
1403715888454058000,-0.0034583956003189087,0.019218191504478455,0.07710900157690048,9.109066009521484,0.45005157589912415,-3.6369001865386963
1403715888459058000,-0.0013765543699264526,0.024095259606838226,0.07989788800477982,9.051897048950195,0.45823225378990173,-3.636861562728882
1403715888464058000,-0.0027681589126586914,0.01851452700793743,0.07430358976125717,9.051959991455078,0.3928989768028259,-3.6449458599090576
1403715888469058000,-0.0020667314529418945,0.02200818806886673,0.07431601732969284,9.092679023742676,0.4500814974308014,-3.6450393199920654
1403715888474058000,-0.0020730942487716675,0.018513068556785583,0.07639258354902267,9.060149192810059,0.37656843662261963,-3.6612319946289062
1403715888479058000,0.0007252693176269531,0.016426539048552513,0.07569613307714462,9.141812324523926,0.3684121370315552,-3.685723066329956
1403715888484058000,-0.002752631902694702,0.015034958720207214,0.07501120120286942,9.141825675964355,0.40102246403694153,-3.6287007331848145
1403715888489058000,-0.0027704834938049316,0.020605362951755524,0.07570052891969681,9.035622596740723,0.40105774998664856,-3.636786460876465
1403715888494058000,2.2083520889282227e-05,0.017115790396928787,0.07638811320066452,9.04394817352295,0.32752764225006104,-3.6366806030273438
1403715888499058000,-0.0020682811737060547,0.01711888797581196,0.07918605953454971,9.084712982177734,0.36835986375808716,-3.6449191570281982
1403715888504058000,-0.0013727396726608276,0.02269926480948925,0.07988729327917099,9.076489448547363,0.3846893012523651,-3.6367597579956055
1403715888509058000,1.6286969184875488e-05,0.02269616909325123,0.08197199553251266,9.076513290405273,0.36021146178245544,-3.669337272644043
1403715888514058000,0.002118319272994995,0.02339966595172882,0.07988900691270828,9.109162330627441,0.3846960961818695,-3.6449174880981445
1403715888519058000,0.0007206350564956665,0.024096928536891937,0.07920008152723312,9.068264961242676,0.44188016653060913,-3.62868070602417
1403715888524058000,0.00420968234539032,0.02339743822813034,0.07919075340032578,9.068382263183594,0.3765265941619873,-3.6285691261291504
1403715888529058000,-0.0020727068185806274,0.024096550419926643,0.07989300042390823,9.092708587646484,0.433733731508255,-3.6613080501556396
1403715888534058000,2.5466084480285645e-05,0.017820095643401146,0.07849913090467453,9.092796325683594,0.43373408913612366,-3.6531710624694824
1403715888539058000,-0.002770557999610901,0.02130044251680374,0.07918793708086014,9.0275297164917,0.37651994824409485,-3.620424270629883
1403715888544058000,-0.0034632980823516846,0.01781655289232731,0.07989069074392319,9.068352699279785,0.40102270245552063,-3.6286497116088867
1403715888549058000,-0.002764984965324402,0.019213061779737473,0.07988617569208145,9.101006507873535,0.37652388215065,-3.644930124282837
1403715888554058000,-0.002072572708129883,0.019909514114260674,0.07919318228960037,9.068272590637207,0.42556604743003845,-3.6531436443328857
1403715888559058000,-0.0034666061401367188,0.018516577780246735,0.07918988913297653,9.117231369018555,0.41741594672203064,-3.6857850551605225
1403715888564058000,-0.0048585087060928345,0.016427498310804367,0.07571790367364883,9.076347351074219,0.4990934133529663,-3.6451351642608643
1403715888569058000,3.0338764190673828e-05,0.01991240680217743,0.07430911809206009,9.068367958068848,0.37651774287223816,-3.6041347980499268
1403715888574058000,-0.0027662813663482666,0.01851695030927658,0.070806585252285,9.09277629852295,0.34391331672668457,-3.6693670749664307
1403715888579058000,-0.004857689142227173,0.015729116275906563,0.07291216403245926,9.109025001525879,0.4255983829498291,-3.677664279937744
1403715888584058000,-0.004861503839492798,0.02060689963400364,0.07709863036870956,9.060098648071289,0.40921083092689514,-3.6368155479431152
1403715888589058000,-0.0013746172189712524,0.017117751762270927,0.0756954625248909,9.05201244354248,0.3765641748905182,-3.6530768871307373
1403715888594058000,-0.00067099928855896,0.01642422378063202,0.07500065118074417,9.092838287353516,0.376557320356369,-3.6530981063842773
1403715888599058000,2.0831823348999023e-05,0.024795128032565117,0.07779953628778458,9.09269905090332,0.4337470829486847,-3.661302089691162
1403715888604058000,-0.00416719913482666,0.02269783988595009,0.08057980984449387,9.084612846374512,0.37653762102127075,-3.6612260341644287
1403715888609058000,-0.006258949637413025,0.022001121193170547,0.07988234609365463,9.09276008605957,0.37653592228889465,-3.6612424850463867
1403715888614058000,-0.0020709335803985596,0.018514251336455345,0.08058550208806992,9.084661483764648,0.40104496479034424,-3.6531178951263428
1403715888619058000,-0.0041615962982177734,0.021305818110704422,0.07988712936639786,9.100958824157715,0.38468843698501587,-3.64494252204895
1403715888624058000,-0.002763226628303528,0.022006191313266754,0.07919008284807205,9.141759872436523,0.3847001791000366,-3.6612651348114014
1403715888629058000,-0.0034629851579666138,0.020610157400369644,0.07989726215600967,9.092758178710938,0.4418751895427704,-3.6368720531463623
1403715888634058000,-0.0020716339349746704,0.022000081837177277,0.08058378845453262,9.060188293457031,0.3765147626399994,-3.6285881996154785
1403715888639058000,-0.0013748407363891602,0.02060719020664692,0.08058170229196548,9.100971221923828,0.38472142815589905,-3.6693999767303467
1403715888644058000,1.9177794456481934e-05,0.019213320687413216,0.07640150934457779,9.068245887756348,0.43376752734184265,-3.6694693565368652
1403715888649058000,-0.0006766617298126221,0.022702831774950027,0.07571078091859818,9.06003189086914,0.45825305581092834,-3.6450300216674805
1403715888654058000,-0.0013694465160369873,0.019214238971471786,0.07500160485506058,9.084650039672852,0.37654855847358704,-3.644929885864258
1403715888659058000,-0.0013733208179473877,0.01921313814818859,0.0771021917462349,9.060107231140137,0.4337412416934967,-3.645002603530884
1403715888664058000,-0.001368016004562378,0.01921374723315239,0.07500926405191422,9.051994323730469,0.4092032313346863,-3.612339496612549
1403715888669058000,-0.004158049821853638,0.020610783249139786,0.07640265673398972,9.10092830657959,0.40103569626808167,-3.636819839477539
1403715888674058000,-0.006952732801437378,0.01711997017264366,0.07360702008008957,9.060084342956543,0.4010586142539978,-3.6449832916259766
1403715888679058000,-0.004165023565292358,0.019212661311030388,0.07779843360185623,9.068241119384766,0.4337387681007385,-3.653169631958008
1403715888684058000,-0.0027661770582199097,0.02340099960565567,0.07639684528112411,9.125377655029297,0.3847278654575348,-3.6694114208221436
1403715888689058000,-0.001377686858177185,0.018511876463890076,0.07988161593675613,9.06833267211914,0.38473355770111084,-3.6693952083587646
1403715888694058000,1.5750527381896973e-05,0.019206441938877106,0.07988400012254715,9.019371032714844,0.39289021492004395,-3.644909620285034
1403715888699058000,0.0028165578842163086,0.01991143263876438,0.07919581979513168,9.076534271240234,0.40920621156692505,-3.6286416053771973
1403715888704058000,-0.0006740689277648926,0.020606813952326775,0.07919605821371078,9.052001953125,0.4173656404018402,-3.620495080947876
1403715888709058000,-0.0013746917247772217,0.02130598947405815,0.07919453829526901,9.084573745727539,0.43374305963516235,-3.661313533782959
1403715888714058000,-0.0034634172916412354,0.017818182706832886,0.07640004903078079,9.076462745666504,0.401052325963974,-3.644972324371338
1403715888719058000,-0.0020745396614074707,0.023396259173750877,0.07988641411066055,9.07642650604248,0.40106001496315,-3.6612534523010254
1403715888724058000,-0.0027710646390914917,0.024093950167298317,0.08268534392118454,9.06826400756836,0.43370336294174194,-3.636828899383545
1403715888729058000,-0.0027671754360198975,0.018514975905418396,0.07570671290159225,9.04378890991211,0.4255567789077759,-3.6286799907684326
1403715888734058000,0.0007188022136688232,0.01851489022374153,0.07918434590101242,9.101000785827637,0.3765728771686554,-3.6775472164154053
1403715888739058000,2.498924732208252e-05,0.018516451120376587,0.07709544152021408,9.092830657958984,0.38472288846969604,-3.6530957221984863
1403715888744058000,-0.0013750642538070679,0.02060740627348423,0.07710162550210953,9.05192756652832,0.43373972177505493,-3.6449949741363525
1403715888749058000,2.5779008865356445e-05,0.016422199085354805,0.07709642499685287,9.068382263183594,0.38470807671546936,-3.63677978515625
1403715888754058000,-0.0006750375032424927,0.01712122932076454,0.07710311561822891,9.068279266357422,0.441916823387146,-3.653179883956909
1403715888759058000,-0.0013693273067474365,0.019912447780370712,0.07500538975000381,9.084609031677246,0.4010597765445709,-3.6449639797210693
1403715888764058000,-0.003457769751548767,0.019915714859962463,0.07151710242033005,9.109058380126953,0.39289218187332153,-3.6449763774871826
1403715888769058000,-0.0013628751039505005,0.020615609362721443,0.07501532882452011,9.133540153503418,0.44189614057540894,-3.645045280456543
1403715888774058000,-0.003471285104751587,0.0192085150629282,0.07779096812009811,9.03563117980957,0.4010657072067261,-3.6531014442443848
1403715888779058000,-0.004856541752815247,0.01991034671664238,0.07709679752588272,9.076495170593262,0.37651124596595764,-3.6204617023468018
1403715888784058000,0.0007256418466567993,0.023400774225592613,0.08059442788362503,9.100982666015625,0.41735243797302246,-3.620499610900879
1403715888789058000,-0.0020673424005508423,0.02130737528204918,0.07990006357431412,9.076446533203125,0.45003658533096313,-3.6205577850341797
1403715888794058000,-0.0006768703460693359,0.022698724642395973,0.08058386296033859,9.076491355895996,0.38470259308815,-3.6449108123779297
1403715888799058000,2.504885196685791e-05,0.017120536416769028,0.07918419688940048,9.109216690063477,0.3602104187011719,-3.661221504211426
1403715888804058000,-0.0034656822681427,0.01920970529317856,0.08128585666418076,9.05202865600586,0.4010137915611267,-3.6204774379730225
1403715888809058000,-0.004159674048423767,0.017817383632063866,0.0784938856959343,9.076506614685059,0.392853707075119,-3.6286444664001465
1403715888814058000,-0.004856541752815247,0.021307196468114853,0.075703464448452,9.084598541259766,0.39286157488822937,-3.62864351272583
1403715888819058000,-0.0013674795627593994,0.017123864963650703,0.07571081072092056,9.084609985351562,0.4418979585170746,-3.6368772983551025
1403715888824058000,-0.0006744116544723511,0.019910145550966263,0.07570857554674149,9.035628318786621,0.433723121881485,-3.620518922805786
1403715888829058000,-0.0027693063020706177,0.017116151750087738,0.07709529250860214,9.027527809143066,0.3928739130496979,-3.62862229347229
1403715888834058000,-0.003459557890892029,0.019218169152736664,0.07641179114580154,9.100883483886719,0.45822814106941223,-3.6369094848632812
1403715888839058000,-0.0013674646615982056,0.018515806645154953,0.07919979840517044,9.060193061828613,0.4255177080631256,-3.6042068004608154
1403715888844058000,-0.0006688982248306274,0.01991024985909462,0.0770968422293663,9.068405151367188,0.3601662516593933,-3.6041061878204346
1403715888849058000,-0.002758324146270752,0.017123892903327942,0.07501289993524551,9.076496124267578,0.41735753417015076,-3.6042165756225586
1403715888854058000,-0.0013682693243026733,0.01921558938920498,0.07710867375135422,9.068282127380371,0.450051486492157,-3.620561122894287
1403715888859058000,-0.0013631880283355713,0.019217366352677345,0.0757027342915535,9.12548542022705,0.3765278160572052,-3.636787176132202
1403715888864058000,-0.002764865756034851,0.01781882531940937,0.07779406756162643,9.100974082946777,0.39288225769996643,-3.6531195640563965
1403715888869058000,-0.0006675869226455688,0.022007325664162636,0.07710542529821396,9.100956916809082,0.41736331582069397,-3.620513677597046
1403715888874058000,-0.0013731122016906738,0.022698966786265373,0.07919204980134964,9.06014633178711,0.40103232860565186,-3.628622055053711
1403715888879058000,-0.0034644752740859985,0.020607002079486847,0.08058606833219528,9.08465576171875,0.392855167388916,-3.636786460876465
1403715888884058000,-0.0020681172609329224,0.015027759596705437,0.07849570363759995,9.076507568359375,0.41738858819007874,-3.6449966430664062
1403715888889058000,-0.0013736188411712646,0.02060915157198906,0.0770997628569603,9.084572792053223,0.4255799949169159,-3.6613049507141113
1403715888894058000,-0.0006757229566574097,0.022003173828125,0.07918573170900345,9.109122276306152,0.37655675411224365,-3.669386625289917
1403715888899058000,-0.0013728588819503784,0.023399412631988525,0.08338657766580582,9.100922584533691,0.4500460922718048,-3.6450207233428955
1403715888904058000,0.001420140266418457,0.022005334496498108,0.08060284703969955,9.06013011932373,0.4745469391345978,-3.6124212741851807
1403715888909058000,-0.0006730854511260986,0.019215531647205353,0.07639911025762558,9.109098434448242,0.4010792076587677,-3.6694400310516357
1403715888914058000,-0.004854917526245117,0.017124708741903305,0.07710551470518112,9.117229461669922,0.44189900159835815,-3.6532142162323
1403715888919058000,-0.0034655332565307617,0.018515637144446373,0.07709891349077225,9.076434135437012,0.41740259528160095,-3.6531505584716797
1403715888924058000,0.0014154016971588135,0.019910410046577454,0.07919105142354965,9.084627151489258,0.41742143034935,-3.669440269470215
1403715888929058000,-0.004162624478340149,0.01921461708843708,0.07709195464849472,9.12540340423584,0.3847426176071167,-3.685743570327759
1403715888934058000,-0.003469318151473999,0.019910065457224846,0.07571395486593246,9.019210815429688,0.4827527403831482,-3.628756284713745
1403715888939058000,-0.002075403928756714,0.01920725405216217,0.07848937064409256,9.019350051879883,0.39288386702537537,-3.6367647647857666
1403715888944058000,-0.007656782865524292,0.022700442001223564,0.07709943503141403,9.076295852661133,0.4419211149215698,-3.66949725151062
1403715888949058000,-0.004157558083534241,0.01712191104888916,0.07641065865755081,9.05197525024414,0.4418638050556183,-3.604248046875
1403715888954058000,1.9118189811706543e-05,0.02199961617588997,0.0812840536236763,9.052006721496582,0.4010432958602905,-3.6367712020874023
1403715888959058000,-0.0027701109647750854,0.02060740254819393,0.07708781212568283,9.10094165802002,0.3602331280708313,-3.677530288696289
1403715888964058000,2.8133392333984375e-05,0.017818192020058632,0.08128424733877182,9.101079940795898,0.37650832533836365,-3.6286144256591797
1403715888969058000,2.726912498474121e-05,0.0206095390021801,0.07989583164453506,9.084671020507812,0.41735753417015076,-3.6205058097839355
1403715888974058000,-0.0034619122743606567,0.019213762134313583,0.07849393039941788,9.092814445495605,0.3928598463535309,-3.6368017196655273
1403715888979058000,0.0007276087999343872,0.017821814864873886,0.07779977470636368,9.117327690124512,0.40921512246131897,-3.644986152648926
1403715888984058000,-0.0027665048837661743,0.01851559244096279,0.07640592008829117,9.05195140838623,0.4337211549282074,-3.6286938190460205
1403715888989058000,-0.0013688355684280396,0.019213713705539703,0.07709694653749466,9.08466911315918,0.3847011923789978,-3.636782169342041
1403715888994058000,-0.004152819514274597,0.021311728283762932,0.07571219652891159,9.117236137390137,0.42552682757377625,-3.6205506324768066
1403715888999058000,-0.005559489130973816,0.01921076327562332,0.07640478760004044,9.027437210083008,0.43371182680130005,-3.620532989501953
1403715889004058000,0.0007189810276031494,0.021304460242390633,0.07779056578874588,9.076494216918945,0.37655651569366455,-3.653059482574463
1403715889009058000,-0.0013744235038757324,0.019910484552383423,0.0763954147696495,9.084601402282715,0.39291298389434814,-3.6694142818450928
1403715889014058000,-0.002765253186225891,0.019912980496883392,0.074314646422863,9.060070037841797,0.4418972432613373,-3.6287102699279785
1403715889019058000,-0.002767518162727356,0.019213303923606873,0.07640201598405838,9.068268775939941,0.4173947870731354,-3.644986152648926
1403715889024058000,-0.002068161964416504,0.01991017907857895,0.07918257266283035,9.109193801879883,0.3438549041748047,-3.653038740158081
1403715889029058000,-0.0006714165210723877,0.01991203986108303,0.07569970935583115,9.092816352844238,0.37654629349708557,-3.644926071166992
1403715889034058000,-0.00275595486164093,0.017121272161602974,0.07780813425779343,9.043937683105469,0.40913188457489014,-3.555243492126465
1403715889039058000,-0.00345766544342041,0.020611250773072243,0.0784967765212059,9.117304801940918,0.3928430378437042,-3.6286511421203613
1403715889044058000,-0.00276966392993927,0.022004295140504837,0.0784926787018776,9.109037399291992,0.4174136817455292,-3.67760968208313
1403715889049058000,-0.003468930721282959,0.01851210556924343,0.07569769769906998,9.035636901855469,0.3928946554660797,-3.6449365615844727
1403715889054058000,-0.0013724714517593384,0.0227012000977993,0.07848762720823288,9.109121322631836,0.36837708950042725,-3.6612184047698975
1403715889059058000,-0.0013667792081832886,0.019215650856494904,0.07780171185731888,9.092812538146973,0.4173668324947357,-3.628678560256958
1403715889064058000,-0.0027591437101364136,0.017819736152887344,0.07850167900323868,9.076543807983398,0.40916159749031067,-3.596041202545166
1403715889069058000,-0.002063348889350891,0.020608771592378616,0.07988806813955307,9.101058006286621,0.3601490259170532,-3.612272262573242
1403715889074058000,-0.002761557698249817,0.01642654277384281,0.0757075771689415,9.100944519042969,0.42555880546569824,-3.6450231075286865
1403715889079058000,-0.002069413661956787,0.017118817195296288,0.07640143483877182,9.04383659362793,0.4092133045196533,-3.628652811050415
1403715889084058000,-0.0027633458375930786,0.01991180144250393,0.07850442081689835,9.060142517089844,0.4418559968471527,-3.6042330265045166
1403715889089058000,-0.0013719946146011353,0.022004932165145874,0.0771002396941185,9.092740058898926,0.41739872097969055,-3.653135299682617
1403715889094058000,-0.002070993185043335,0.01781942881643772,0.08059529215097427,9.092747688293457,0.4664187729358673,-3.6613779067993164
1403715889099058000,-0.0013720989227294922,0.016422521322965622,0.07710053771734238,9.06014633178711,0.42556867003440857,-3.6449966430664062
1403715889104058000,-0.002770557999610901,0.01921243965625763,0.07778993993997574,9.092763900756836,0.3929150402545929,-3.677579641342163
1403715889109058000,-0.0027664899826049805,0.019214164465665817,0.07780586928129196,9.06009292602539,0.4582268297672272,-3.628732681274414
1403715889114058000,-0.0013711750507354736,0.01921251229941845,0.07640557736158371,9.043810844421387,0.4255501329898834,-3.6205155849456787
1403715889119058000,-0.004861354827880859,0.021307338029146194,0.07569900900125504,9.109016418457031,0.40108299255371094,-3.6776010990142822
1403715889124058000,-0.0027660727500915527,0.015028122812509537,0.07848674803972244,9.117329597473145,0.37656331062316895,-3.6775808334350586
1403715889129058000,-0.0020698457956314087,0.01921423152089119,0.07849913090467453,9.084587097167969,0.4419071674346924,-3.6531827449798584
1403715889134058000,-0.0034600794315338135,0.019213655963540077,0.07779663056135178,9.084675788879395,0.38467857241630554,-3.620476245880127
1403715889139058000,2.707540988922119e-05,0.018517466261982918,0.07849033921957016,9.125502586364746,0.3765473961830139,-3.6612513065338135
1403715889144058000,-0.0006761401891708374,0.019910629838705063,0.07640104740858078,9.06827163696289,0.4174094498157501,-3.653132438659668
1403715889149058000,-0.0013748407363891602,0.021999727934598923,0.07989095896482468,9.03567123413086,0.40919679403305054,-3.620471715927124
1403715889154058000,-0.0034591853618621826,0.021311050280928612,0.07640253752470016,9.149860382080078,0.40922775864601135,-3.6694719791412354
1403715889159058000,-0.001375645399093628,0.02269870415329933,0.08128630369901657,9.068289756774902,0.4173814356327057,-3.64496111869812
1403715889164058000,-0.004163503646850586,0.019910013303160667,0.07639897614717484,9.068268775939941,0.40105241537094116,-3.644962787628174
1403715889169058000,0.0014121830463409424,0.021305758506059647,0.0791948065161705,9.076398849487305,0.45011091232299805,-3.6776366233825684
1403715889174058000,-0.0027681589126586914,0.02060718461871147,0.07570498436689377,9.043774604797363,0.41738682985305786,-3.628659963607788
1403715889179058000,-0.003463655710220337,0.024090806022286415,0.08059761673212051,8.994879722595215,0.4173053503036499,-3.5552103519439697
1403715889184058000,-0.0034676343202590942,0.022002795711159706,0.07849413901567459,9.07640552520752,0.41739514470100403,-3.6531341075897217
1403715889189058000,-0.001364186406135559,0.018520118668675423,0.07849844545125961,9.133630752563477,0.4092063009738922,-3.6449947357177734
1403715889194058000,-0.0041548460721969604,0.018519189208745956,0.0743192657828331,9.060113906860352,0.4418615400791168,-3.596092700958252
1403715889199058000,-0.002065509557723999,0.01642271876335144,0.07500135153532028,9.06837272644043,0.3683672249317169,-3.628607988357544
1403715889204058000,-0.004857927560806274,0.0178189929574728,0.07988999038934708,9.109119415283203,0.40920913219451904,-3.6531519889831543
1403715889209058000,-0.004860818386077881,0.019209444522857666,0.07919570058584213,9.027504920959473,0.4173474609851837,-3.604185104370117
1403715889214058000,-0.0013690590858459473,0.019213469699025154,0.07920189946889877,9.052002906799316,0.4418601393699646,-3.6042253971099854
1403715889219058000,0.0007202029228210449,0.015726495534181595,0.07569695264101028,9.100970268249512,0.39293351769447327,-3.6857426166534424
1403715889224058000,-0.003464743494987488,0.01921611838042736,0.07570821791887283,9.09268856048584,0.4500918686389923,-3.661360502243042
1403715889229058000,-0.0034694820642471313,0.020607369020581245,0.07779530435800552,9.076385498046875,0.42558553814888,-3.6694633960723877
1403715889234058000,-0.004856958985328674,0.021306626498699188,0.07639379054307938,9.109124183654785,0.35202282667160034,-3.6449050903320312
1403715889239058000,-0.0048563480377197266,0.014330931939184666,0.07570099085569382,9.08465576171875,0.39287903904914856,-3.644982099533081
1403715889244058000,-0.0006785988807678223,0.017118148505687714,0.0791899636387825,9.06015396118164,0.41741010546684265,-3.6612892150878906
1403715889249058000,-0.0013788938522338867,0.022000711411237717,0.07709280401468277,9.06008243560791,0.4010842442512512,-3.6694085597991943
1403715889254058000,-0.0013751834630966187,0.023399515077471733,0.0784912034869194,9.11719799041748,0.40925440192222595,-3.6857495307922363
1403715889259058000,0.0007090121507644653,0.019210398197174072,0.08059427887201309,9.035562515258789,0.49096518754959106,-3.6776928901672363
1403715889264058000,-0.00067862868309021,0.019907303154468536,0.07849153131246567,9.043828964233398,0.4010583162307739,-3.644939422607422
1403715889269058000,-0.0034676194190979004,0.021302949637174606,0.07918635755777359,9.068312644958496,0.37653616070747375,-3.6449146270751953
1403715889274058000,-0.004860416054725647,0.018509935587644577,0.07849467545747757,9.011214256286621,0.392837256193161,-3.59598970413208
1403715889279058000,-0.004156246781349182,0.0171206034719944,0.07570483535528183,9.060197830200195,0.38467469811439514,-3.6041648387908936
1403715889284058000,3.419816493988037e-05,0.02061234414577484,0.07500959187746048,9.09286880493164,0.3764968812465668,-3.595985174179077
1403715889289058000,2.779066562652588e-05,0.01782107539474964,0.07500741630792618,9.09280014038086,0.40923118591308594,-3.644982099533081
1403715889294058000,-0.0006841570138931274,0.020607175305485725,0.07360532134771347,9.051835060119629,0.433809369802475,-3.693925380706787
1403715889299058000,-0.002070322632789612,0.0199121180921793,0.0784982368350029,9.092732429504395,0.44190987944602966,-3.6613364219665527
1403715889304058000,-0.0006682425737380981,0.016427116468548775,0.07500853389501572,9.10911750793457,0.41740280389785767,-3.6531662940979004
1403715889309058000,0.0007260888814926147,0.020611219108104706,0.08199528604745865,9.100991249084473,0.45003074407577515,-3.620558738708496
1403715889314058000,-0.0006681382656097412,0.02200637012720108,0.07849998027086258,9.100977897644043,0.4091881811618805,-3.620500087738037
1403715889319058000,-0.0034611672163009644,0.020613130182027817,0.07640328258275986,9.141674041748047,0.4255850911140442,-3.6776483058929443
1403715889324058000,-0.0006700456142425537,0.017123032361268997,0.07500987499952316,9.076468467712402,0.4255672097206116,-3.636850595474243
1403715889329058000,2.3096799850463867e-05,0.02200312167406082,0.08128666132688522,9.092815399169922,0.40921109914779663,-3.644958257675171
1403715889334058000,-0.004860594868659973,0.02200322225689888,0.07988817244768143,9.100919723510742,0.4010414481163025,-3.6531219482421875
1403715889339058000,-0.002767801284790039,0.022005317732691765,0.07920048385858536,9.084550857543945,0.4582347273826599,-3.64504337310791
1403715889344058000,-0.0020754188299179077,0.023397326469421387,0.08129007369279861,9.068227767944336,0.4500707685947418,-3.653167486190796
1403715889349058000,-0.001375824213027954,0.021304979920387268,0.078492172062397,9.076434135437012,0.409241259098053,-3.661273956298828
1403715889354058000,-0.0006685256958007812,0.017123738303780556,0.07710158079862595,9.109151840209961,0.40922096371650696,-3.6449930667877197
1403715889359058000,-0.0006756484508514404,0.01851603388786316,0.07919465750455856,9.084614753723145,0.4337472915649414,-3.6613218784332275
1403715889364058000,0.0007249563932418823,0.017123214900493622,0.07709533721208572,9.125492095947266,0.38473376631736755,-3.669424533843994
1403715889369058000,-0.002067461609840393,0.01851673796772957,0.07430557161569595,9.076458930969238,0.3928954601287842,-3.6449570655822754
1403715889374058000,-0.0020644813776016235,0.01712309941649437,0.07361488789319992,9.068286895751953,0.4255604147911072,-3.6286981105804443
1403715889379058000,-0.0020614564418792725,0.020613063126802444,0.07710552960634232,9.117276191711426,0.41736602783203125,-3.628687858581543
1403715889384058000,-0.0055507272481918335,0.01852203719317913,0.07711225003004074,9.125346183776855,0.47456425428390503,-3.645110607147217
1403715889389058000,-0.005557015538215637,0.023401372134685516,0.07710985094308853,9.076335906982422,0.4663897752761841,-3.628748655319214
1403715889394058000,-0.0027651190757751465,0.02130763605237007,0.075009785592556,9.068245887756348,0.42555704712867737,-3.6286821365356445
1403715889399058000,-0.004158839583396912,0.02060898393392563,0.0777955874800682,9.09280776977539,0.38468819856643677,-3.628631591796875
1403715889404058000,-0.0013708323240280151,0.019211942330002785,0.07849971204996109,9.043841361999512,0.4255344867706299,-3.6123547554016113
1403715889409058000,-0.004159018397331238,0.023401595652103424,0.07851269096136093,9.051904678344727,0.4826909601688385,-3.58797550201416
1403715889414058000,-0.0020671486854553223,0.019908439368009567,0.07779126614332199,9.060234069824219,0.35200461745262146,-3.612248659133911
1403715889419058000,-0.004161357879638672,0.015727601945400238,0.07500103861093521,9.109079360961914,0.401089072227478,-3.677618980407715
1403715889424058000,-0.0013672411441802979,0.01991116628050804,0.08059150725603104,9.084701538085938,0.4010048806667328,-3.6123270988464355
1403715889429058000,-0.0034662485122680664,0.02060418203473091,0.08267868310213089,9.060208320617676,0.38466790318489075,-3.6204473972320557
1403715889434058000,-0.002763226628303528,0.02130737341940403,0.08058639615774155,9.125471115112305,0.3846842050552368,-3.6449437141418457
1403715889439058000,-0.0027735382318496704,0.020601656287908554,0.08128576725721359,9.011178016662598,0.417366087436676,-3.6204750537872314
1403715889444058000,-0.0013763606548309326,0.016417566686868668,0.08267312496900558,9.060243606567383,0.37653419375419617,-3.653066396713257
1403715889449058000,-0.0027680397033691406,0.018517253920435905,0.0784975215792656,9.100892066955566,0.44191616773605347,-3.6695022583007812
1403715889454058000,-0.002070397138595581,0.019214635714888573,0.07710451632738113,9.076399803161621,0.4500804841518402,-3.653193473815918
1403715889459058000,-0.002071082592010498,0.023397676646709442,0.07989109307527542,9.076444625854492,0.40920525789260864,-3.6367979049682617
1403715889464058000,-0.0013692080974578857,0.024097105488181114,0.078490249812603,9.109145164489746,0.36018216609954834,-3.636734962463379
1403715889469058000,-0.0034640878438949585,0.021306699141860008,0.07849546521902084,9.09276008605957,0.4092118442058563,-3.6449756622314453
1403715889474058000,-0.0027635693550109863,0.0185163002461195,0.07500731199979782,9.060150146484375,0.40103545784950256,-3.6204936504364014
1403715889479058000,-0.0020632296800613403,0.022704357281327248,0.07779201120138168,9.141803741455078,0.35201120376586914,-3.644900321960449
1403715889484058000,-0.0013679414987564087,0.020610203966498375,0.07849801331758499,9.09281063079834,0.40919673442840576,-3.628659248352051
1403715889489058000,-0.004854336380958557,0.018518764525651932,0.07850395888090134,9.092777252197266,0.4418601393699646,-3.620572805404663
1403715889494058000,-0.0020745396614074707,0.02269849367439747,0.07708961516618729,9.06828498840332,0.3683919906616211,-3.661205291748047
1403715889499058000,-0.004166558384895325,0.02409643866121769,0.07709575444459915,9.092679977416992,0.40924176573753357,-3.669435501098633
1403715889504058000,-0.0027672797441482544,0.01641901582479477,0.08058642596006393,9.043904304504395,0.39284852147102356,-3.620469093322754
1403715889509058000,0.0007268935441970825,0.01921367086470127,0.0812939777970314,9.06840991973877,0.41733184456825256,-3.59602952003479
1403715889514058000,-0.0013753622770309448,0.021305041387677193,0.07848627120256424,9.10094165802002,0.3765678405761719,-3.6775436401367188
1403715889519058000,-0.0006720870733261108,0.01781853474676609,0.07919218391180038,9.092841148376465,0.40104416012763977,-3.644963264465332
1403715889524058000,-0.0006728023290634155,0.022003764286637306,0.07850553840398788,9.04379940032959,0.45003265142440796,-3.604227304458618
1403715889529058000,-0.001368403434753418,0.023400161415338516,0.07849284261465073,9.10913372039795,0.3765203058719635,-3.6367623805999756
1403715889534058000,-0.0013767778873443604,0.02130354382097721,0.08198518306016922,9.068282127380371,0.4337283968925476,-3.6531455516815186
1403715889539058000,-0.00207364559173584,0.021304169669747353,0.08129290491342545,9.051935195922852,0.45822522044181824,-3.6368682384490967
1403715889544058000,1.971423625946045e-05,0.01711794175207615,0.07988292723894119,9.07652473449707,0.3847355842590332,-3.669398069381714
1403715889549058000,-0.0027748793363571167,0.018513813614845276,0.07779283076524734,9.068232536315918,0.42560824751853943,-3.685776710510254
1403715889554058000,-0.003463655710220337,0.019214939326047897,0.07780253142118454,9.084575653076172,0.4418967366218567,-3.6450324058532715
1403715889559058000,-0.0006709247827529907,0.021309303119778633,0.07640630751848221,9.100911140441895,0.4255639314651489,-3.6449997425079346
1403715889564058000,-0.0020616352558135986,0.017821678891777992,0.07500744611024857,9.10098648071289,0.39286792278289795,-3.6286587715148926
1403715889569058000,-0.0013661384582519531,0.019915327429771423,0.07571271806955338,9.092752456665039,0.441890150308609,-3.628718852996826
1403715889574058000,-0.0013697892427444458,0.02339850924909115,0.07849561423063278,9.076481819152832,0.39285340905189514,-3.6204612255096436
1403715889579058000,-0.002063855528831482,0.019915543496608734,0.07500434666872025,9.141729354858398,0.3929026126861572,-3.669445276260376
1403715889584058000,-0.0013709068298339844,0.017120854929089546,0.07779601961374283,9.084648132324219,0.40922921895980835,-3.6531362533569336
1403715889589058000,-0.0006643980741500854,0.01921752840280533,0.07781266421079636,9.068353652954102,0.450007826089859,-3.5797786712646484
1403715889594058000,-0.0006721019744873047,0.02130623161792755,0.07779795676469803,9.076485633850098,0.4010355472564697,-3.6286349296569824
1403715889599058000,0.0021226108074188232,0.020612940192222595,0.07780861109495163,9.092802047729492,0.45005208253860474,-3.620556116104126
1403715889604058000,0.0035218745470046997,0.017822399735450745,0.07641234248876572,9.076562881469727,0.42552682757377625,-3.5960493087768555
1403715889609058000,-0.00206679105758667,0.022004108875989914,0.08059289306402206,9.08464527130127,0.4173547625541687,-3.620504379272461
1403715889614058000,-0.0020726025104522705,0.019910696893930435,0.07988905161619186,9.100909233093262,0.4255848824977875,-3.677621841430664
1403715889619058000,-0.004163965582847595,0.023401152342557907,0.07920613139867783,9.076332092285156,0.49090713262557983,-3.636934757232666
1403715889624058000,-0.00415956974029541,0.02061031572520733,0.0785043016076088,9.076420783996582,0.4500405490398407,-3.620567798614502
1403715889629058000,-0.0020659565925598145,0.023401016369462013,0.07710462063550949,9.084596633911133,0.41737091541290283,-3.62050724029541
1403715889634058000,-0.0020569264888763428,0.01782584935426712,0.07641922682523727,9.100963592529297,0.46636414527893066,-3.5961437225341797
1403715889639058000,0.0014189034700393677,0.01991119608283043,0.07779727131128311,9.076488494873047,0.40923330187797546,-3.644956350326538
1403715889644058000,-0.004161804914474487,0.017817005515098572,0.0777880921959877,9.092836380004883,0.360205739736557,-3.653071403503418
1403715889649058000,-0.004166141152381897,0.01991049200296402,0.08059171587228775,9.084559440612793,0.4500764012336731,-3.661349058151245
1403715889654058000,-0.0006806105375289917,0.022001544013619423,0.0798957422375679,9.043752670288086,0.45824727416038513,-3.645016670227051
1403715889659058000,-0.00486263632774353,0.017814243212342262,0.07987881451845169,9.076529502868652,0.3520280718803406,-3.65305233001709
1403715889664058000,-0.004160627722740173,0.02060898393392563,0.08058566600084305,9.11728286743164,0.3928672671318054,-3.65311598777771
1403715889669058000,-0.005559027194976807,0.02061031386256218,0.07361651211977005,9.059988021850586,0.45825159549713135,-3.6450541019439697
1403715889674058000,-0.0006794184446334839,0.022699618712067604,0.07640007883310318,9.051911354064941,0.41741281747817993,-3.6531155109405518
1403715889679058000,-0.001376420259475708,0.02060585282742977,0.07918248325586319,9.084650039672852,0.36839401721954346,-3.6693713665008545
1403715889684058000,-0.002774357795715332,0.01850886084139347,0.07987827807664871,9.035710334777832,0.36021196842193604,-3.6530354022979736
1403715889689058000,2.1263957023620605e-05,0.022697221487760544,0.08058182150125504,9.06021785736084,0.3601784408092499,-3.6285548210144043
1403715889694058000,0.0020990073680877686,0.021299168467521667,0.0812712088227272,9.051953315734863,0.39296576380729675,-3.7183077335357666
1403715889699058000,-0.001393735408782959,0.024088308215141296,0.07989003509283066,8.98649787902832,0.4828067719936371,-3.685803174972534
1403715889704058000,-0.00906902551651001,0.017126694321632385,0.08621443063020706,9.06798267364502,0.7115598917007446,-3.7025651931762695
1403715889709058000,-0.021625757217407227,0.015026623383164406,0.08967994898557663,9.125073432922363,0.6216870546340942,-3.7514021396636963
1403715889714058000,-0.028592616319656372,0.022687481716275215,0.08825435489416122,9.03548812866211,0.3927909731864929,-3.620518207550049
1403715889719058000,-0.011855483055114746,0.005951952189207077,0.09516897052526474,9.20781421661377,-0.09745221585035324,-3.660754680633545
1403715889724058000,0.016005858778953552,0.043606236577034,0.07005508989095688,9.05292797088623,-0.6612605452537537,-3.3824970722198486
1403715889729058000,0.06768274307250977,0.008766278624534607,0.058213479816913605,9.233073234558105,-0.244402214884758,-3.6115660667419434
1403715889734058000,0.0844605416059494,0.014355980791151524,0.051328785717487335,9.019448280334473,0.6709885597229004,-3.6533071994781494
1403715889739058000,0.0493902862071991,0.03890107572078705,0.03746796399354935,8.847516059875488,1.650933027267456,-3.638110399246216
1403715889744058000,-0.019908055663108826,-0.0008377619087696075,0.07034192234277725,9.053778648376465,2.22168231010437,-3.898961305618286
1403715889749058000,-0.09867158532142639,0.004688598215579987,0.08087097853422165,8.881943702697754,2.0177817344665527,-3.630345344543457
1403715889754058000,-0.1381480097770691,0.014983702450990677,0.11333995312452316,9.328157424926758,0.3845832049846649,-3.8167617321014404
1403715889759058000,-0.11377772688865662,0.029632851481437683,0.09371791034936905,8.896492958068848,-0.9146361947059631,-3.4400534629821777
1403715889764058000,-0.032862335443496704,0.0010174624621868134,0.11816450208425522,9.060491561889648,-1.046006202697754,-3.382894992828369
1403715889769058000,0.03411291539669037,0.01852496713399887,0.09305360168218613,9.396124839782715,-0.9149958491325378,-3.5542778968811035
1403715889774058000,0.07880899310112,0.05478997528553009,0.06382200866937637,9.102344512939453,-0.41620996594429016,-3.325378656387329
1403715889779058000,0.09774982929229736,-0.010758597403764725,0.065986268222332,9.24881362915039,0.5973792672157288,-3.6533591747283936
1403715889784058000,0.08305664360523224,0.026919126510620117,0.07862896472215652,9.549798011779785,1.128618597984314,-3.8904597759246826
1403715889789058000,0.02703075110912323,0.05624847114086151,0.06533613055944443,8.447318077087402,1.4551734924316406,-3.6950182914733887
1403715889794058000,-0.016127124428749084,0.008826728910207748,0.10244283825159073,9.207235336303711,1.4878649711608887,-3.785287380218506
1403715889799058000,-0.05725477635860443,0.03386671096086502,0.09253176301717758,9.034695625305176,0.9320735335350037,-3.743788957595825
1403715889804058000,-0.07815048098564148,0.018504146486520767,0.09737005084753036,9.132699966430664,0.7032880783081055,-3.735414981842041
1403715889809058000,-0.07952950894832611,0.017773648723959923,0.08473438769578934,8.912904739379883,0.17217157781124115,-3.497953176498413
1403715889814058000,-0.04675987362861633,0.03178344666957855,0.08747092634439468,9.444133758544922,-0.5306277871131897,-3.5462045669555664
1403715889819058000,0.0027584880590438843,0.01562780886888504,0.06934743374586105,8.555100440979004,-0.5467734932899475,-3.382566213607788
1403715889824058000,0.03981812298297882,0.0290214866399765,0.05474743992090225,9.958943367004395,-0.32648155093193054,-3.7830617427825928
1403715889829058000,0.06558075547218323,0.051264431327581406,0.06033245474100113,8.619694709777832,0.1968923658132553,-3.5218276977539062
1403715889834058000,0.07258106768131256,0.03389538452029228,0.05414605885744095,8.83958911895752,0.8096761703491211,-3.4984822273254395
1403715889839058000,0.04674449563026428,0.022057099267840385,0.07794041186571121,9.35372257232666,1.1857352256774902,-3.8336026668548584
1403715889844058000,-0.0028947442770004272,0.042299337685108185,0.06327476352453232,8.7819185256958,1.3241980075836182,-3.621721029281616
1403715889849058000,-0.04050971567630768,-0.0003179199993610382,0.0981348380446434,8.90475845336914,0.9729509353637695,-3.6541342735290527
1403715889854058000,-0.06138387322425842,0.02548305131494999,0.09109815210103989,9.010619163513184,0.6296037435531616,-3.531266927719116
1403715889859058000,-0.05860862135887146,0.007322763092815876,0.10773184150457382,9.068388938903809,0.10677047818899155,-3.6365325450897217
1403715889864058000,-0.04044041037559509,0.013630179688334465,0.09239277988672256,9.313650131225586,-0.12212298065423965,-3.497603178024292
1403715889869058000,-0.009780675172805786,0.030366063117980957,0.08749303966760635,9.158818244934082,-0.3180771470069885,-3.5134873390197754
1403715889874058000,0.027190715074539185,0.020581815391778946,0.07145426422357559,8.93889045715332,-0.3588070571422577,-3.4807097911834717
1403715889879058000,0.05096232891082764,0.021330470219254494,0.06590399891138077,9.542503356933594,0.0007627949235029519,-3.8157801628112793
1403715889884058000,0.05862507224082947,0.05412225052714348,0.0653061643242836,8.970165252685547,0.6951805949211121,-3.514681816101074
1403715889889058000,0.041152775287628174,0.027605533599853516,0.08207235485315323,8.945747375488281,0.8913995623588562,-3.6455941200256348
1403715889894058000,0.014625787734985352,0.031109871342778206,0.07721235603094101,8.912850379943848,1.0301663875579834,-3.5887670516967773
1403715889899058000,-0.025133326649665833,0.005282461643218994,0.0834876224398613,8.921095848083496,0.9728972315788269,-3.5725090503692627
1403715889904058000,-0.04321262240409851,0.005266748368740082,0.0722137913107872,9.255642890930176,0.40922030806541443,-3.734973669052124
1403715889909058000,-0.027866631746292114,0.023407885804772377,0.06659186631441116,9.345759391784668,0.08246005326509476,-3.734466791152954
1403715889914058000,-0.01115146279335022,0.010117055848240852,0.08473832160234451,8.90541934967041,0.18859398365020752,-3.5793464183807373
1403715889919058000,-0.006928950548171997,0.03387591615319252,0.09179315716028214,9.418868064880371,0.6298087239265442,-3.743189811706543
1403715889924058000,-0.02095256745815277,0.0387633852660656,0.0953441932797432,8.937288284301758,0.931955099105835,-3.531613826751709
1403715889929058000,-0.04395286738872528,0.02058451995253563,0.09458635002374649,8.839496612548828,0.6132343411445618,-3.449504852294922
1403715889934058000,-0.04534415900707245,0.017793864011764526,0.07982415705919266,9.011321067810059,-0.01565193571150303,-3.571079730987549
1403715889939058000,-0.0042394548654556274,0.012935955077409744,0.06721112877130508,9.257079124450684,-0.9637858867645264,-3.636168956756592
1403715889944058000,0.0662076473236084,0.015727635473012924,0.0651482567191124,9.249635696411133,-0.8575357794761658,-3.6277382373809814
1403715889949058000,0.12073281407356262,0.0366758294403553,0.05967234820127487,9.354729652404785,0.30335259437561035,-3.7913949489593506
1403715889954058000,0.09964911639690399,0.03957124054431915,0.07941099256277084,8.60357666015625,1.676087498664856,-3.507765531539917
1403715889959058000,0.01357010006904602,0.017344705760478973,0.07872127741575241,9.119437217712402,2.2948923110961914,-3.906873941421509
1403715889964058000,-0.06998763978481293,0.027027897536754608,0.07875902205705643,8.905824661254883,1.8708778619766235,-3.573241710662842
1403715889969058000,-0.11517930030822754,-0.010823916643857956,0.09391093999147415,8.855155944824219,0.8175259828567505,-3.637829065322876
1403715889974058000,-0.10745406150817871,0.012922178953886032,0.07907939702272415,9.214947700500488,-0.3097253441810608,-3.693633794784546
1403715889979058000,-0.047494739294052124,0.01153363287448883,0.09651551395654678,9.313617706298828,-0.9476127028465271,-3.5218396186828613
1403715889984058000,0.004838719964027405,0.011526864022016525,0.09514965862035751,9.167427062988281,-0.5796557068824768,-3.546081781387329
1403715889989058000,0.04674436151981354,0.03944360464811325,0.07148624211549759,9.101997375488281,-0.170963317155838,-3.4645073413848877
1403715889994058000,0.06701850891113281,0.020616766065359116,0.08618780225515366,9.110337257385254,0.17207622528076172,-3.407845973968506
1403715889999058000,0.05719120800495148,0.003867892548441887,0.07224997133016586,8.921358108520508,0.7528253197669983,-3.8084094524383545
1403715890004058000,0.03770560026168823,0.015755897387862206,0.060418806970119476,9.002900123596191,0.7605807185173035,-3.571993589401245
1403715890009058000,0.01885002851486206,0.00807859469205141,0.09116216748952866,9.280442237854004,0.9895253777503967,-3.792701482772827
1403715890014058000,-0.018915235996246338,0.01785866729915142,0.08561306446790695,8.969907760620117,1.2181925773620605,-3.7359700202941895
1403715890019058000,-0.04813575744628906,0.026916835457086563,0.10023879259824753,9.149419784545898,0.956500232219696,-3.597060441970825
1403715890024058000,-0.0704888254404068,0.014305057935416698,0.10364320129156113,8.969755172729492,0.6705189347267151,-3.645552158355713
1403715890029058000,-0.0676533579826355,0.0038363318890333176,0.08193331211805344,9.027693748474121,-0.05660431832075119,-3.416104555130005
1403715890034058000,-0.03072957694530487,0.019206877797842026,0.09584001451730728,9.248574256896973,-0.5224355459213257,-3.537996292114258
1403715890039058000,0.013931557536125183,0.016411013901233673,0.07143663614988327,9.06122875213623,-0.36692795157432556,-3.5869510173797607
1403715890044058000,0.04816088080406189,0.019931333139538765,0.0700841173529625,9.412017822265625,-0.015584833920001984,-3.750479221343994
1403715890049058000,0.06420440971851349,0.042238105088472366,0.06806112080812454,8.897034645080566,0.49917110800743103,-3.5469367504119873
1403715890054058000,0.0516018271446228,0.023445013910531998,0.06254073232412338,9.035205841064453,1.0468668937683105,-3.759978771209717
1403715890059058000,0.013937398791313171,0.03389852121472359,0.06323909014463425,8.847371101379395,0.9810895919799805,-3.5315325260162354
1403715890064058000,-0.013324752449989319,0.012945573776960373,0.08348878473043442,8.765904426574707,1.0874000787734985,-3.6378214359283447
1403715890069058000,-0.04536007344722748,0.003169015049934387,0.07923877984285355,9.010550498962402,0.7523600459098816,-3.710928440093994
1403715890074058000,-0.05160774290561676,0.012226206250488758,0.08964858204126358,9.13329029083252,0.4009515047073364,-3.6614749431610107
1403715890079058000,-0.04741249978542328,0.011531424708664417,0.08404307812452316,9.174379348754883,0.19669441878795624,-3.620417356491089
1403715890084058000,-0.025792449712753296,0.024104256182909012,0.0854082927107811,9.411524772644043,-0.13835254311561584,-3.6526103019714355
1403715890089058000,0.002087146043777466,0.029644697904586792,0.08611638098955154,8.922141075134277,-0.18731218576431274,-3.44001841545105
1403715890094058000,0.023730725049972534,0.024803191423416138,0.0777488425374031,9.265189170837402,-0.17917969822883606,-3.5626187324523926
1403715890099058000,0.04745398461818695,0.015011978335678577,0.08335847407579422,8.938525199890137,0.1723284274339676,-3.603623628616333
1403715890104058000,0.050928860902786255,0.022012051194906235,0.08344542235136032,8.94591999053955,0.7770709991455078,-3.669842004776001
1403715890109058000,0.02789171040058136,0.013675104826688766,0.08840050548315048,9.092798233032227,1.1120517253875732,-3.6868443489074707
1403715890114058000,-0.018896445631980896,0.01786058023571968,0.08630602806806564,9.15747356414795,1.1938072443008423,-3.841949224472046
1403715890119058000,-0.05514439940452576,0.01713622733950615,0.09604471176862717,9.035056114196777,0.9728817343711853,-3.646038055419922
1403715890124058000,-0.0676451027393341,0.016402751207351685,0.09312843531370163,9.092710494995117,0.20472249388694763,-3.44905161857605
1403715890129058000,-0.03561897575855255,0.011504605412483215,0.09025848656892776,9.028200149536133,-0.6367982625961304,-3.456299066543579
1403715890134058000,0.025763854384422302,0.0003629624843597412,0.07491330057382584,9.257460594177246,-0.8739877343177795,-3.489104747772217
1403715890139058000,0.07534176111221313,0.019934330135583878,0.06309346109628677,9.330873489379883,-0.2197740226984024,-3.750246286392212
1403715890144058000,0.08656364679336548,0.029729317873716354,0.03878631442785263,9.182381629943848,0.7526410222053528,-3.6452813148498535
1403715890149058000,0.05150116980075836,0.03191673755645752,0.06125444918870926,9.337531089782715,1.749058723449707,-3.923487901687622
1403715890154058000,-0.02275209128856659,0.04794303700327873,0.05975180119276047,8.367924690246582,2.1481618881225586,-3.5724844932556152
1403715890159058000,-0.09496933221817017,0.01996787264943123,0.07729160040616989,9.051074981689453,1.3649804592132568,-3.6874191761016846
1403715890164058000,-0.1242356151342392,0.00585242360830307,0.10560785979032516,8.651556015014648,-0.048391733318567276,-3.5221493244171143
1403715890169058000,-0.07957710325717926,0.0030974633991718292,0.09653479605913162,8.904961585998535,-0.9720843434333801,-3.3012821674346924
1403715890174058000,0.00414787232875824,-0.006599500775337219,0.0985974445939064,9.574968338012695,-1.3487931489944458,-3.571470022201538
1403715890179058000,0.06970655918121338,0.04574572294950485,0.0651717558503151,9.355463027954102,-0.6285550594329834,-3.6519887447357178
1403715890184058000,0.09561823308467865,0.02201658859848976,0.058284513652324677,9.003569602966309,0.417589008808136,-3.60392689704895
1403715890189058000,0.07884834706783295,0.03463892638683319,0.05909573286771774,9.05189323425293,1.1201459169387817,-3.5317044258117676
1403715890194058000,0.03341425955295563,0.038116343319416046,0.06815504282712936,9.002379417419434,1.2346538305282593,-3.768401861190796
1403715890199058000,-0.007090911269187927,0.01435093767940998,0.08280304819345474,8.749558448791504,1.2264413833618164,-3.7358546257019043
1403715890204058000,-0.04332205653190613,0.012984668835997581,0.09960972517728806,8.978372573852539,1.2670371532440186,-3.597493886947632
1403715890209058000,-0.08235758543014526,0.013601057231426239,0.09388070553541183,8.896112442016602,0.6949857473373413,-3.6293158531188965
1403715890214058000,-0.07811534404754639,-0.00032411515712738037,0.0881781056523323,9.508883476257324,-0.06472475826740265,-3.897874116897583
1403715890219058000,-0.04116275906562805,0.020607229322195053,0.08260420709848404,9.313678741455078,-0.4325704276561737,-3.4156553745269775
1403715890224058000,-0.0007295608520507812,0.04224424064159393,0.07003722339868546,9.273134231567383,-0.5467691421508789,-3.5786564350128174
1403715890229058000,0.031398117542266846,0.015006886795163155,0.06448987871408463,8.922476768493652,-0.1953807920217514,-3.472715377807617
1403715890234058000,0.04398426413536072,0.03736094385385513,0.06666078418493271,8.978705406188965,0.44187110662460327,-3.5061490535736084
1403715890239058000,0.04815581440925598,0.011513580568134785,0.0834101065993309,8.709542274475098,0.5154261589050293,-3.5224344730377197
1403715890244058000,0.03213535249233246,0.012266723439097404,0.06669861823320389,9.36185073852539,0.785304844379425,-3.8167810440063477
1403715890249058000,0.005540207028388977,-0.003092452883720398,0.08138885349035263,8.913031578063965,1.0467053651809692,-3.71936297416687
1403715890254058000,-0.01952241361141205,0.016441795974969864,0.0715942457318306,8.945477485656738,0.8094388842582703,-3.5314321517944336
1403715890259058000,-0.03342805802822113,-0.00030864961445331573,0.08829856663942337,9.386383056640625,0.5971022248268127,-3.7433862686157227
1403715890264058000,-0.039763420820236206,0.014300878159701824,0.09662441164255142,8.937616348266602,0.39273855090141296,-3.5797202587127686
1403715890269058000,-0.033461302518844604,0.009434951469302177,0.09519999474287033,9.166661262512207,0.08220486342906952,-3.530425786972046
1403715890274058000,-0.01114565134048462,0.004511591047048569,0.1001039668917656,8.791545867919922,0.00863089319318533,-3.3178343772888184
1403715890279058000,0.009777724742889404,0.012246880680322647,0.07424222677946091,9.30574893951416,-0.09727457165718079,-3.7505109310150146
1403715890284058000,0.025853365659713745,0.007376527413725853,0.06031190603971481,9.40377426147461,-0.04012993350625038,-3.7098193168640137
1403715890289058000,0.040492475032806396,0.026900410652160645,0.061071716248989105,9.027501106262207,0.5073725581169128,-3.6205008029937744
1403715890294058000,0.03628113865852356,0.03247130662202835,0.0708286240696907,9.035524368286133,0.5156383514404297,-3.734668254852295
1403715890299058000,0.019525527954101562,0.022021058946847916,0.07508493214845657,8.88845443725586,0.8749780654907227,-3.604811191558838
1403715890304058000,-0.009775623679161072,0.01296299323439598,0.08419380336999893,8.9212064743042,0.9810478091239929,-3.5235209465026855
1403715890309058000,-0.03137761354446411,0.01991952210664749,0.0778309628367424,9.165629386901855,0.6461777091026306,-3.727022647857666
1403715890314058000,-0.035579025745391846,0.010096644051373005,0.08193240314722061,8.790950775146484,0.13955619931221008,-3.5548276901245117
1403715890319058000,-0.020880714058876038,0.0024843644350767136,0.057516686618328094,9.305506706237793,-0.06469526141881943,-3.6038849353790283
1403715890324058000,0.008396357297897339,0.01642656698822975,0.06660480052232742,9.125638961791992,0.22959616780281067,-3.6936705112457275
1403715890329058000,0.014706343412399292,0.018545784056186676,0.06737945228815079,9.239615440368652,0.613487958908081,-3.629005193710327
1403715890334058000,-0.00766521692276001,0.030414361506700516,0.0785922184586525,9.222735404968262,0.940334677696228,-3.7110788822174072
1403715890339058000,-0.04755006730556488,0.03596612811088562,0.09256883710622787,8.822720527648926,1.160817265510559,-3.6951117515563965
1403715890344058000,-0.06905582547187805,0.021976983174681664,0.10224428027868271,8.945605278015137,0.4742686152458191,-3.3840856552124023
1403715890349058000,-0.046803638339042664,0.025486618280410767,0.11256019026041031,9.223896026611328,-0.6205607056617737,-3.6277108192443848
1403715890354058000,0.009693235158920288,0.03172813728451729,0.08886709064245224,8.99578857421875,-0.9475562572479248,-3.4642117023468018
1403715890359058000,0.07876512408256531,-0.005961500108242035,0.07703470438718796,9.021125793457031,-0.9804480671882629,-3.3337738513946533
1403715890364058000,0.12562820315361023,0.040175095200538635,0.07014758139848709,9.355559349060059,0.07405900955200195,-3.5137617588043213
1403715890369058000,0.09815181791782379,0.009607959538698196,0.05773142725229263,8.816189765930176,1.9455279111862183,-3.8665060997009277
1403715890374058000,0.016325131058692932,0.015289485454559326,0.061252810060977936,9.356465339660645,2.481198310852051,-3.9631407260894775
1403715890379058000,-0.07706555724143982,0.017132051289081573,0.09057006984949112,8.359179496765137,1.8466737270355225,-3.4750258922576904
1403715890384058000,-0.12349089980125427,0.00034156814217567444,0.1063910499215126,9.165364265441895,0.43350985646247864,-3.661808490753174
1403715890389058000,-0.09283958375453949,0.010834503918886185,0.10418341308832169,9.313051223754883,-0.9312611222267151,-3.4892337322235107
1403715890394058000,-0.030039265751838684,0.005199499428272247,0.07281393557786942,8.970947265625,-0.9965292811393738,-3.358438730239868
1403715890399058000,0.03554543852806091,0.007379163056612015,0.051889143884181976,9.453405380249023,-0.7593913078308105,-3.644300699234009
1403715890404058000,0.086512491106987,0.035284772515296936,0.052647776901721954,9.306386947631836,-0.21989032626152039,-3.5951101779937744
1403715890409058000,0.08864063024520874,0.012941891327500343,0.03803650289773941,8.749957084655762,0.57291579246521,-3.571399450302124
1403715890414058000,0.07185162603855133,0.028356535360217094,0.055595703423023224,9.10063648223877,1.169317364692688,-3.6785829067230225
1403715890419058000,0.03335322439670563,0.012272417545318604,0.09191439300775528,8.68480396270752,1.390177607536316,-3.7686150074005127
1403715890424058000,-0.021038487553596497,0.001827474683523178,0.07936129719018936,8.929311752319336,1.3816298246383667,-3.7361843585968018
1403715890429058000,-0.05999051034450531,-0.0023736394941806793,0.08909618109464645,9.157670021057129,1.0219237804412842,-3.6135878562927246
1403715890434058000,-0.08580240607261658,0.008735429495573044,0.08338098973035812,9.263145446777344,0.5318196415901184,-3.8413102626800537
1403715890439058000,-0.07675294578075409,0.0010427795350551605,0.08816861361265182,9.035821914672852,-0.17906858026981354,-3.595597743988037
1403715890444058000,-0.0418640673160553,0.02340848743915558,0.08607923239469528,9.419717788696289,-0.3753143846988678,-3.636166572570801
1403715890449058000,-0.005612179636955261,0.02266920544207096,0.08398603647947311,8.9303617477417,-0.30972641706466675,-3.5950751304626465
1403715890454058000,0.03695663809776306,0.026170942932367325,0.09030688554048538,9.03691577911377,-0.30995234847068787,-3.4562084674835205
1403715890459058000,0.06488688290119171,0.027587635442614555,0.08614141494035721,9.183730125427246,-0.015663910657167435,-3.6279006004333496
1403715890464058000,0.06141887605190277,0.023421544581651688,0.04920794814825058,9.043712615966797,0.5565506219863892,-3.6939337253570557
1403715890469058000,0.04955184459686279,0.013670154847204685,0.053442858159542084,9.05981159210205,0.8588296175003052,-3.7026307582855225
1403715890474058000,0.02442610263824463,0.0255700945854187,0.06119344383478165,9.263647079467773,1.1773196458816528,-3.719475030899048
1403715890479058000,-0.016153857111930847,0.030429460108280182,0.07444604486227036,8.912546157836914,1.299875259399414,-3.7522997856140137
1403715890484058000,-0.057227760553359985,0.02551792562007904,0.08977263420820236,9.083869934082031,0.9973829984664917,-3.646080255508423
1403715890489058000,-0.0781613141298294,0.02054610475897789,0.10499369353055954,8.790324211120605,0.4089801609516144,-3.5226545333862305
1403715890494058000,-0.06349024176597595,0.009406553581357002,0.09377562254667282,8.986997604370117,-0.2200426459312439,-3.3913052082061768
1403715890499058000,-0.026521116495132446,0.011552359908819199,0.0742146447300911,9.379219055175781,-0.48966631293296814,-3.6361865997314453
1403715890504058000,0.015310123562812805,0.01781727373600006,0.06513651460409164,9.110227584838867,-0.4567103087902069,-3.717546224594116
1403715890509058000,0.050233691930770874,0.01920063979923725,0.06868491321802139,8.971555709838867,-0.1545284390449524,-3.5135135650634766
1403715890514058000,0.06212775409221649,0.024810977280139923,0.06806682795286179,9.411033630371094,0.6220007538795471,-3.865325927734375
1403715890519058000,0.029929473996162415,0.03180846571922302,0.07792458683252335,8.741472244262695,1.1855239868164062,-3.6052114963531494
1403715890524058000,-0.004240706562995911,0.019257111474871635,0.08491300791501999,8.970026016235352,1.16912043094635,-3.670633554458618
1403715890529058000,-0.02716083824634552,0.0261919554322958,0.08339210599660873,9.125519752502441,0.32726624608039856,-3.4491164684295654
1403715890534058000,-0.019525855779647827,0.0038240812718868256,0.07634047418832779,8.848652839660645,-0.162754088640213,-3.4647181034088135
1403715890539058000,0.005619317293167114,0.008070860058069229,0.06867552548646927,9.452685356140137,-0.1055879145860672,-3.726149797439575
1403715890544058000,0.0272454172372818,0.005269531160593033,0.06736556440591812,8.95418930053711,0.5808403491973877,-3.5717294216156006
1403715890549058000,0.0097409188747406,0.013684852048754692,0.0737462267279625,9.296246528625488,1.2102757692337036,-3.8826301097869873
1403715890554058000,-0.03352043032646179,0.02420138195157051,0.08079951256513596,9.280097007751465,1.4304124116897583,-3.6954662799835205
1403715890559058000,-0.07612457871437073,0.0164196640253067,0.09186682850122452,8.839022636413574,1.062687635421753,-3.6135387420654297
1403715890564058000,-0.08161403238773346,0.026170901954174042,0.0868048146367073,9.190398216247559,0.02511615678668022,-3.5876009464263916
1403715890569058000,-0.03981499373912811,0.012168895453214645,0.08397877961397171,8.864740371704102,-0.8984119892120361,-3.3664422035217285
1403715890574058000,0.019486814737319946,0.007999345660209656,0.07562526315450668,8.91451644897461,-0.7267138361930847,-3.407163619995117
1403715890579058000,0.05933144688606262,0.012266876175999641,0.05403808504343033,9.371652603149414,-0.17913998663425446,-3.5790388584136963
1403715890584058000,0.07187871634960175,0.015049301087856293,0.05900139361619949,9.043798446655273,0.7118812799453735,-3.7267982959747314
1403715890589058000,0.05158011615276337,0.024841366335749626,0.06044968217611313,8.871895790100098,1.1203781366348267,-3.71109938621521
1403715890594058000,0.015307620167732239,0.021410290151834488,0.05214504152536392,9.26345157623291,1.4060912132263184,-3.801217555999756
1403715890599058000,-0.04123504459857941,0.016453664749860764,0.08210954815149307,8.961508750915527,1.15272855758667,-3.7196295261383057
1403715890604058000,-0.05790439248085022,0.031737860292196274,0.08407936245203018,8.89635181427002,0.4580531418323517,-3.5390679836273193
1403715890609058000,-0.05230438709259033,0.0038327351212501526,0.08823428303003311,8.937885284423828,0.15576481819152832,-3.4570724964141846
1403715890614058000,-0.041154175996780396,0.00803486816585064,0.07005646079778671,9.027567863464355,0.06614754348993301,-3.669165849685669
1403715890619058000,-0.013242051005363464,0.01225195825099945,0.0700463280081749,9.39532470703125,-0.17899994552135468,-3.7832224369049072
1403715890624058000,0.014635041356086731,0.0191990714520216,0.0651557520031929,8.979327201843262,-0.18701253831386566,-3.676809310913086
1403715890629058000,0.030718207359313965,0.0352732315659523,0.04915957897901535,9.166359901428223,0.16434240341186523,-3.701631784439087
1403715890634058000,0.036993250250816345,0.035971757024526596,0.07014787942171097,9.166050910949707,0.5564428567886353,-3.7266201972961426
1403715890639058000,0.029287636280059814,0.03733595460653305,0.08690152317285538,8.80698013305664,0.6298549175262451,-3.6287636756896973
1403715890644058000,0.017447590827941895,0.0345509797334671,0.08204417675733566,8.766161918640137,0.6868910789489746,-3.47389817237854
1403715890649058000,-0.006970256567001343,0.009460503235459328,0.08417350798845291,8.872334480285645,0.8584601879119873,-3.4824984073638916
1403715890654058000,-0.023677021265029907,0.010153483599424362,0.08409915119409561,9.321022987365723,0.5481211543083191,-3.7595326900482178
1403715890659058000,-0.026488661766052246,0.021300744265317917,0.08406155556440353,9.141611099243164,0.34381788969039917,-3.6694283485412598
1403715890664058000,-0.022982418537139893,0.01991446316242218,0.0770975723862648,9.158050537109375,0.3355996906757355,-3.587871551513672
1403715890669058000,-0.021566301584243774,0.0331776887178421,0.08477147668600082,9.41109848022461,0.26195576786994934,-3.6040711402893066
1403715890674058000,-0.010465562343597412,0.03663744032382965,0.08822006732225418,9.060192108154297,0.18863071501255035,-3.669037103652954
1403715890679058000,0.01047256588935852,0.035231880843639374,0.08125095814466476,8.905603408813477,0.025154707953333855,-3.4810502529144287
1403715890684058000,0.02235710620880127,0.029681086540222168,0.06731832772493362,9.0687255859375,0.1804344803094864,-3.538489818572998
1403715890689058000,0.027241364121437073,0.011553335934877396,0.059661127626895905,9.06837272644043,0.4502059817314148,-3.669445514678955
1403715890694058000,0.027929827570915222,0.010160751640796661,0.061780430376529694,9.011039733886719,0.6381398439407349,-3.6697096824645996
1403715890699058000,0.007684975862503052,0.015066105872392654,0.059730105102062225,9.092223167419434,0.883223295211792,-3.694638967514038
1403715890704058000,-0.02299642562866211,0.00948443915694952,0.0709100291132927,9.190179824829102,0.8831153512001038,-3.678483486175537
1403715890709058000,-0.03698822855949402,0.017124183475971222,0.08063606172800064,9.026830673217773,0.7605392336845398,-3.7027246952056885
1403715890714058000,-0.03414337337017059,0.027584420517086983,0.08266260474920273,9.2071533203125,0.16392233967781067,-3.5060365200042725
1403715890719058000,-0.015342533588409424,0.019895223900675774,0.07354714721441269,9.060833930969238,-0.24446500837802887,-3.472825288772583
1403715890724058000,0.010495871305465698,0.013640815392136574,0.05751767009496689,9.158727645874023,-0.023747477680444717,-3.595515489578247
1403715890729058000,0.025143995881080627,0.02269972302019596,0.06872912496328354,8.962421417236328,0.36838898062705994,-3.5632011890411377
1403715890734058000,0.01181173324584961,0.011572883464396,0.06531719118356705,9.026830673217773,1.0386780500411987,-3.8252973556518555
1403715890739058000,-0.02167859673500061,0.01855972222983837,0.07722637802362442,8.986104965209961,1.1445621252059937,-3.6706314086914062
1403715890744058000,-0.048176199197769165,0.020598409697413445,0.10015403479337692,9.157285690307617,0.760674774646759,-3.8739757537841797
1403715890749058000,-0.04954260587692261,0.03590167313814163,0.10635947436094284,8.872593879699707,-0.17934171855449677,-3.2195663452148438
1403715890754058000,-0.009118348360061646,-0.001750349998474121,0.08396708220243454,9.216044425964355,-1.0867358446121216,-3.448460102081299
1403715890759058000,0.07319781184196472,0.04016208276152611,0.0742407962679863,9.322909355163574,-0.5876935720443726,-3.6928112506866455
1403715890764058000,0.09983541071414948,0.010139914229512215,0.0660102590918541,8.70175838470459,0.5399022102355957,-3.293865442276001
1403715890769058000,0.06415614485740662,0.021378908306360245,0.05842240899801254,9.475848197937012,1.4309682846069336,-3.996647357940674
1403715890774058000,0.004562199115753174,0.021470069885253906,0.06542661041021347,8.653446197509766,2.0587522983551025,-3.5565414428710938
1403715890779058000,-0.05938197672367096,-0.003720371052622795,0.0682419165968895,9.239089012145996,1.5123035907745361,-3.834270477294922
1403715890784058000,-0.08439257740974426,0.05756571888923645,0.09524833410978317,9.336281776428223,0.5235198140144348,-3.7513275146484375
1403715890789058000,-0.07884007692337036,0.008021200075745583,0.06863144785165787,8.994864463806152,-0.1871194988489151,-3.6037726402282715
1403715890794058000,-0.03142455220222473,0.03593408316373825,0.0811990275979042,9.060657501220703,-0.5386444330215454,-3.4316787719726562
1403715890799058000,0.0056016892194747925,0.045006103813648224,0.07079844921827316,8.93819522857666,-0.04027852043509483,-3.325908660888672
1403715890804058000,0.02724333107471466,0.005278348922729492,0.06938666850328445,9.436148643493652,0.13159748911857605,-3.8486416339874268
1403715890809058000,0.03559412062168121,0.03873123973608017,0.07781309634447098,8.831762313842773,0.4173735976219177,-3.506038188934326
1403715890814058000,0.029298171401023865,0.02411067485809326,0.062460802495479584,9.059761047363281,0.6137667894363403,-3.783799886703491
1403715890819058000,0.02304399013519287,0.020619992166757584,0.07153991609811783,9.076400756835938,0.5481981039047241,-3.677731513977051
1403715890824058000,0.014621451497077942,0.04016676917672157,0.083461232483387,9.075883865356445,0.9241011142730713,-3.7598633766174316
1403715890829058000,-0.009060502052307129,0.027608701959252357,0.07996632903814316,9.084162712097168,0.8176975250244141,-3.6374804973602295
1403715890834058000,-0.02999626100063324,0.019220229238271713,0.09461597353219986,9.002721786499023,0.7767466902732849,-3.564059257507324
1403715890839058000,-0.04746071994304657,0.043603330850601196,0.09667583554983139,8.871774673461914,0.670453667640686,-3.5474982261657715
1403715890844058000,-0.03976567089557648,0.004533596336841583,0.10494726151227951,9.027880668640137,0.04957706853747368,-3.5792763233184814
