#timestamp [ns],w_RS_S_x [rad s^-1],w_RS_S_y [rad s^-1],w_RS_S_z [rad s^-1],a_RS_S_x [m s^-2],a_RS_S_y [m s^-2],a_RS_S_z [m s^-2]
1403715886544058000,-0.0020943951023931952,0.01884955592153876,0.07609635538695278,9.062979041666667,0.4494714583333333,-3.6529771249999996
1403715886549058000,-0.003490658503988659,0.021642082724729686,0.07609635538695278,9.062979041666667,0.416782625,-3.6366327083333334
1403715886554058000,-0.0027925268031909274,0.01884955592153876,0.0767944870877505,9.062979041666667,0.367749375,-3.6611493333333334
1403715886559058000,0.0006981317007977319,0.016057029118347832,0.07958701389094143,9.054806833333332,0.4004382083333333,-3.6202882916666663
1403715886564058000,-0.0013962634015954637,0.01884955592153876,0.07749261878854824,9.062979041666667,0.367749375,-3.6121160833333334
1403715886569058000,-0.0006981317007977319,0.013962634015954637,0.07749261878854824,9.095667875,0.40861041666666664,-3.6284604999999996
1403715886574058000,-0.0020943951023931952,0.013962634015954637,0.07749261878854824,9.079323458333333,0.392266,-3.6121160833333334
1403715886579058000,-0.0020943951023931952,0.0153588974175501,0.07609635538695278,9.062979041666667,0.40861041666666664,-3.6202882916666663
1403715886584058000,-0.0020943951023931952,0.012566370614359173,0.07819075048934597,9.054806833333332,0.40861041666666664,-3.6529771249999996
1403715886589058000,-0.0006981317007977319,0.01815142422074103,0.07819075048934597,9.046634625,0.392266,-3.6448049166666663
1403715886594058000,-0.0020943951023931952,0.01815142422074103,0.07609635538695278,9.112012291666666,0.4739880833333333,-3.693838166666666
1403715886599058000,-0.003490658503988659,0.01815142422074103,0.07749261878854824,9.062979041666667,0.416782625,-3.6448049166666663
1403715886604058000,-0.006283185307179587,0.020943951023931952,0.07749261878854824,9.07115125,0.392266,-3.6039438749999997
1403715886609058000,-0.004886921905584123,0.016755160819145562,0.07330382858376185,9.144701125,0.40861041666666664,-3.6284604999999996
1403715886614058000,-0.0041887902047863905,0.01884955592153876,0.07120943348136866,9.103840083333333,0.4494714583333333,-3.6448049166666663
1403715886619058000,-0.004886921905584123,0.02024581932313422,0.07749261878854824,9.103840083333333,0.40861041666666664,-3.6611493333333334
1403715886624058000,-0.0020943951023931952,0.01884955592153876,0.07539822368615504,9.112012291666666,0.40861041666666664,-3.6448049166666663
1403715886629058000,-0.0020943951023931952,0.016057029118347832,0.07539822368615504,9.062979041666667,0.3840937916666667,-3.6529771249999996
1403715886634058000,-0.0013962634015954637,0.016755160819145562,0.07400196028455958,9.079323458333333,0.3759215833333333,-3.6856659583333333
1403715886639058000,0.0,0.01815142422074103,0.07888888219014369,9.030290208333332,0.40861041666666664,-3.6611493333333334
1403715886644058000,-0.0020943951023931952,0.02024581932313422,0.07819075048934597,9.022118,0.43312704166666666,-3.6284604999999996
1403715886649058000,-0.003490658503988659,0.019547687622336492,0.08098327729253688,9.087495666666666,0.43312704166666666,-3.6448049166666663
1403715886654058000,-0.0013962634015954637,0.020943951023931952,0.08098327729253688,9.087495666666666,0.416782625,-3.6284604999999996
1403715886659058000,0.0006981317007977319,0.02234021442552742,0.08028514559173915,9.054806833333332,0.3840937916666667,-3.6448049166666663
1403715886664058000,-0.0041887902047863905,0.02024581932313422,0.07749261878854824,9.087495666666666,0.3840937916666667,-3.6693215416666662
1403715886669058000,-0.0020943951023931952,0.020943951023931952,0.07958701389094143,9.095667875,0.392266,-3.6202882916666663
1403715886674058000,-0.0020943951023931952,0.02024581932313422,0.07609635538695278,9.1201845,0.3840937916666667,-3.6366327083333334
1403715886679058000,-0.004886921905584123,0.016057029118347832,0.07819075048934597,9.087495666666666,0.392266,-3.6202882916666663
1403715886684058000,-0.003490658503988659,0.019547687622336492,0.07819075048934597,9.038462416666666,0.3840937916666667,-3.6202882916666663
1403715886689058000,-0.006726873107254505,0.021214991807937622,0.0765768513083458,9.050324440002441,0.42081356048583984,-3.6452670097351074
1403715886694058000,-0.004818451590836048,0.020465999841690063,0.07794622331857681,9.042220115661621,0.42948898673057556,-3.637136220932007
1403715886699058000,-0.006784123368561268,0.023981884121894836,0.07314571738243103,9.050882339477539,0.36476439237594604,-3.6125948429107666
1403715886704058000,-0.005490046925842762,0.021922647953033447,0.07451560348272324,9.074699401855469,0.4445199966430664,-3.6370182037353516
1403715886709058000,-0.004696977324783802,0.01765882968902588,0.07652681320905685,9.050480842590332,0.43761739134788513,-3.636730909347534
1403715886714058000,-0.005450082011520863,0.021177619695663452,0.07450434565544128,9.034348487854004,0.35744237899780273,-3.6286885738372803
1403715886719058000,-0.005528313107788563,0.02329958975315094,0.07582765817642212,9.123542785644531,0.46085798740386963,-3.6859726905822754
1403715886724058000,-0.00448454637080431,0.02053961157798767,0.07718206197023392,9.050444602966309,0.38930875062942505,-3.6609508991241455
1403715886729058000,-0.006945771165192127,0.02396950125694275,0.07725083082914352,9.091079711914062,0.35697507858276367,-3.645051956176758
1403715886734058000,-0.00399355310946703,0.018379777669906616,0.07869970798492432,9.091029167175293,0.4123784899711609,-3.64510178565979
1403715886739058000,-0.004636538214981556,0.022559955716133118,0.07863043993711472,9.075316429138184,0.3887988030910492,-3.628918409347534
1403715886744058000,-0.00553546566516161,0.024683862924575806,0.07935643196105957,9.09897518157959,0.3724216818809509,-3.620824098587036
1403715886749058000,-0.002572101540863514,0.021179988980293274,0.08001544326543808,9.034011840820312,0.42082494497299194,-3.620380163192749
1403715886754058000,-0.004826080985367298,0.024620696902275085,0.07722441852092743,9.034443855285645,0.42951324582099915,-3.636855125427246
1403715886759058000,-0.006032478995621204,0.022602587938308716,0.07803136855363846,9.017630577087402,0.44552820920944214,-3.6615707874298096
1403715886764058000,-0.003396940417587757,0.02331848442554474,0.07795611023902893,9.017967224121094,0.43771493434906006,-3.6204745769500732
1403715886769058000,-0.005449754185974598,0.021938815712928772,0.07517673075199127,9.025971412658691,0.40566980838775635,-3.63700532913208
1403715886774058000,-0.006078791804611683,0.023266524076461792,0.0738397091627121,9.066752433776855,0.41301724314689636,-3.645400285720825
1403715886779058000,-0.006807995028793812,0.023963376879692078,0.0737389475107193,9.075325012207031,0.39739274978637695,-3.6044628620147705
1403715886784058000,-0.005526822991669178,0.02265174686908722,0.07516421377658844,9.075042724609375,0.4131390154361725,-3.5966250896453857
1403715886789058000,-0.007343214936554432,0.02045328915119171,0.07520667463541031,9.034161567687988,0.42112138867378235,-3.6289265155792236
1403715886794058000,-0.0021784724667668343,0.018340229988098145,0.07791903614997864,9.034131050109863,0.4142085611820221,-3.6285276412963867
1403715886799058000,-0.004629087634384632,0.01989208161830902,0.07728296518325806,9.058292388916016,0.38001999258995056,-3.6289942264556885
1403715886804058000,-0.004726809449493885,0.019124850630760193,0.07723283022642136,9.06672191619873,0.44554603099823,-3.6290066242218018
1403715886809058000,-0.006227982230484486,0.02185787260532379,0.07586243748664856,9.067082405090332,0.40591952204704285,-3.6125218868255615
1403715886814058000,-0.004649114795029163,0.020489603281021118,0.075938880443573,9.074878692626953,0.40354329347610474,-3.6127636432647705
1403715886819058000,-0.006128055043518543,0.019746869802474976,0.07517025619745255,9.058873176574707,0.4055976867675781,-3.612572431564331
1403715886824058000,-0.004121226258575916,0.021919161081314087,0.07512965798377991,9.05047607421875,0.3578711152076721,-3.6774063110351562
1403715886829058000,-0.007423204369843006,0.019793108105659485,0.07999730855226517,9.09902286529541,0.4521074891090393,-3.653465747833252
1403715886834058000,-0.008235585875809193,0.0197313129901886,0.07520591467618942,9.06710433959961,0.4140555262565613,-3.612780809402466
1403715886839058000,-0.006113124080002308,0.025378167629241943,0.07653103768825531,9.050460815429688,0.3818328082561493,-3.6287434101104736
1403715886844058000,-0.0034431638196110725,0.020545125007629395,0.07934953272342682,9.050166130065918,0.3957464098930359,-3.6206562519073486
1403715886849058000,-0.005979401059448719,0.01907479763031006,0.07664413750171661,9.042407035827637,0.41381222009658813,-3.6531944274902344
1403715886854058000,-0.007046175189316273,0.022550910711288452,0.07447130978107452,9.058578491210938,0.46986812353134155,-3.637219190597534
1403715886859058000,-0.006644946523010731,0.02260492742061615,0.07581985741853714,9.058815956115723,0.42876291275024414,-3.6371471881866455
1403715886864058000,-0.008259308524429798,0.02191758155822754,0.07380884140729904,9.075396537780762,0.39733171463012695,-3.604616403579712
1403715886869058000,-0.008880806155502796,0.018382862210273743,0.07789836823940277,9.058403015136719,0.3888686001300812,-3.6451637744903564
1403715886874058000,-0.005544495768845081,0.01833231747150421,0.0772644504904747,9.050373077392578,0.38896119594573975,-3.6450626850128174
1403715886879058000,-0.00674710888415575,0.02053190767765045,0.07456039637327194,9.017958641052246,0.405296266078949,-3.6210057735443115
1403715886884058000,-0.005590897984802723,0.018485352396965027,0.07785633206367493,9.074979782104492,0.46119794249534607,-3.6128056049346924
1403715886889058000,-0.0032811881974339485,0.020461171865463257,0.07721778005361557,9.042496681213379,0.42971357703208923,-3.6203746795654297
1403715886894058000,-0.007510942406952381,0.021840423345565796,0.07534763216972351,9.050573348999023,0.3893969655036926,-3.645014762878418
1403715886899058000,-0.0034271301701664925,0.019145220518112183,0.07306302338838577,9.050485610961914,0.41261476278305054,-3.6291675567626953
1403715886904058000,-0.002645445056259632,0.020485147833824158,0.0757664367556572,9.025980949401855,0.4381428062915802,-3.629021406173706
1403715886909058000,-0.0026448192074894905,0.016296982765197754,0.07663985341787338,9.082651138305664,0.4291408658027649,-3.6289656162261963
1403715886914058000,-0.005387854762375355,0.019051536917686462,0.07653416693210602,9.074910163879395,0.40478721261024475,-3.6370198726654053
1403715886919058000,-0.0020887376740574837,0.019185572862625122,0.0765639916062355,9.026254653930664,0.39003366231918335,-3.6044487953186035
1403715886924058000,-0.006030422635376453,0.01779353618621826,0.07660192996263504,9.08291244506836,0.4047398865222931,-3.6289916038513184
1403715886929058000,-0.006743681617081165,0.018289566040039062,0.07784336060285568,9.058650016784668,0.4377199113368988,-3.6449732780456543
1403715886934058000,-0.0028456570580601692,0.01979292929172516,0.07595216482877731,9.025955200195312,0.3733951151371002,-3.6289799213409424
1403715886939058000,-0.003819418139755726,0.019874170422554016,0.07459354400634766,9.0584135055542,0.3882070779800415,-3.645130157470703
1403715886944058000,-0.0069359662011265755,0.018374845385551453,0.07646443694829941,9.01812744140625,0.36480382084846497,-3.6042914390563965
1403715886949058000,-0.007544291205704212,0.019053906202316284,0.07377790659666061,9.0750732421875,0.3728022277355194,-3.6291744709014893
1403715886954058000,-0.008016359992325306,0.023252904415130615,0.07451921701431274,9.066910743713379,0.4205982983112335,-3.6368799209594727
1403715886959058000,-0.008342755027115345,0.018463417887687683,0.0765463188290596,9.01800537109375,0.4133598208427429,-3.6530869007110596
1403715886964058000,-0.006068152375519276,0.02052140235900879,0.07793599367141724,9.033703804016113,0.4049522280693054,-3.6613411903381348
1403715886969058000,-0.004853201098740101,0.02389359474182129,0.08070744574069977,9.05845832824707,0.4456923305988312,-3.653291702270508
1403715886974058000,-0.005291265435516834,0.02124488353729248,0.07656728476285934,9.09155559539795,0.4134766459465027,-3.604522943496704
1403715886979058000,-0.00428928155452013,0.01703852415084839,0.0758865550160408,9.074797630310059,0.4125443994998932,-3.628842353820801
1403715886984058000,-0.00735087413340807,0.01972164213657379,0.07657440751791,9.058778762817383,0.42137840390205383,-3.612478733062744
1403715886989058000,-0.006845992989838123,0.02048426866531372,0.0772659182548523,9.075016021728516,0.4053131937980652,-3.6126551628112793
1403715886994058000,-0.006887090392410755,0.020541712641716003,0.07800044864416122,9.091073036193848,0.44491252303123474,-3.6454193592071533
1403715886999058000,-0.005366218276321888,0.02398964762687683,0.07928653061389923,9.050498008728027,0.4377908706665039,-3.6531310081481934
1403715887004058000,-0.007496547885239124,0.02186080813407898,0.07648774981498718,9.083087921142578,0.3811546564102173,-3.644991874694824
1403715887009058000,-0.005473298020660877,0.019066348671913147,0.0758836567401886,9.115592956542969,0.45283064246177673,-3.661397933959961
1403715887014058000,-0.004064303822815418,0.023310840129852295,0.07452578842639923,9.099859237670898,0.45368143916130066,-3.6208629608154297
1403715887019058000,-0.00262646097689867,0.023279055953025818,0.07730074226856232,9.074750900268555,0.42948898673057556,-3.6208760738372803
1403715887024058000,-0.004803341813385487,0.01977294683456421,0.07864398509263992,9.066534996032715,0.42914435267448425,-3.6286988258361816
1403715887029058000,-0.006807905621826649,0.022575706243515015,0.07578998059034348,9.034466743469238,0.4138919711112976,-3.636779308319092
1403715887034058000,-0.00881118793040514,0.024725288152694702,0.07516305148601532,9.042282104492188,0.38884058594703674,-3.6615347862243652
1403715887039058000,-0.0068881334736943245,0.01845763623714447,0.074470154941082,9.06698226928711,0.4538443982601166,-3.6534512042999268
1403715887044058000,-0.0004826309159398079,0.022537007927894592,0.07728727161884308,9.058560371398926,0.4060126841068268,-3.628746747970581
1403715887049058000,-0.001340341754257679,0.02397121489048004,0.07665491849184036,9.041966438293457,0.4210472106933594,-3.6208655834198
1403715887054058000,-0.0013239504769444466,0.02056242525577545,0.07930616289377213,9.026094436645508,0.4055553376674652,-3.5798909664154053
1403715887059058000,-0.004028541035950184,0.022537201642990112,0.08064085245132446,9.042118072509766,0.3815387189388275,-3.6531548500061035
1403715887064058000,-0.0053167762234807014,0.019091174006462097,0.07243633270263672,9.042254447937012,0.39636412262916565,-3.661506175994873
1403715887069058000,-0.0054489197209477425,0.02050478756427765,0.08070287108421326,9.042346000671387,0.4136407971382141,-3.6043925285339355
1403715887074058000,-0.008785885758697987,0.024691149592399597,0.07600407302379608,9.091257095336914,0.41326695680618286,-3.6616556644439697
1403715887079058000,-0.008307171054184437,0.01913873851299286,0.07657955586910248,9.083232879638672,0.46924108266830444,-3.620706081390381
1403715887084058000,-0.006741833873093128,0.02044244110584259,0.07511390000581741,9.034357070922852,0.3818269670009613,-3.571950674057007
1403715887089058000,-0.00967900175601244,0.019714757800102234,0.07444742321968079,9.074901580810547,0.42099347710609436,-3.637129783630371
1403715887094058000,-0.004090082831680775,0.020525842905044556,0.07725275307893753,9.115829467773438,0.4370221793651581,-3.63694429397583
1403715887099058000,-0.00402457732707262,0.020538464188575745,0.07655893266201019,9.042476654052734,0.43823158740997314,-3.604465961456299
1403715887104058000,-0.005638224072754383,0.02392314374446869,0.07316204160451889,9.074780464172363,0.3962779641151428,-3.6372931003570557
1403715887109058000,-0.006631833501160145,0.01837165653705597,0.07723823934793472,9.08308219909668,0.42943379282951355,-3.6044998168945312
1403715887114058000,-0.004873317666351795,0.02264392375946045,0.07716429233551025,9.091175079345703,0.41392526030540466,-3.6127912998199463
1403715887119058000,-0.007423740811645985,0.019783571362495422,0.07523298263549805,9.09119987487793,0.41221609711647034,-3.6045682430267334
1403715887124058000,-0.0075380029156804085,0.021808698773384094,0.07800789922475815,9.03451919555664,0.42132115364074707,-3.596285343170166
1403715887129058000,-0.00629155058413744,0.021928757429122925,0.07712888717651367,9.025958061218262,0.4136837124824524,-3.6450092792510986
1403715887134058000,-0.0045822979882359505,0.016329124569892883,0.07938350737094879,9.05822467803955,0.4608112573623657,-3.636821985244751
1403715887139058000,-0.004185867495834827,0.019025146961212158,0.07866263389587402,9.050395011901855,0.4381358027458191,-3.620741605758667
1403715887144058000,-0.007574331946671009,0.021238982677459717,0.07658947259187698,9.017738342285156,0.389333575963974,-3.6291611194610596
1403715887149058000,-0.006002497859299183,0.019793331623077393,0.07661118358373642,9.050369262695312,0.4127386212348938,-3.653150796890259
1403715887154058000,-0.005534094758331776,0.023956969380378723,0.07578403502702713,9.034464836120605,0.44630011916160583,-3.629021406173706
1403715887159058000,-0.006015134043991566,0.023982703685760498,0.0779816284775734,9.074905395507812,0.4131717383861542,-3.645406723022461
1403715887164058000,-0.005468797869980335,0.019043609499931335,0.08148911595344543,9.082915306091309,0.45372143387794495,-3.6609649658203125
1403715887169058000,-0.006099593825638294,0.021861732006072998,0.07650569826364517,9.034285545349121,0.4381656050682068,-3.6290104389190674
1403715887174058000,-0.0035409750416874886,0.022629350423812866,0.07723624259233475,9.058300971984863,0.4050121009349823,-3.620959997177124
1403715887179058000,-0.006659847684204578,0.018389686942100525,0.07936830073595047,9.03425121307373,0.4299381971359253,-3.644829511642456
1403715887184058000,-0.004202109761536121,0.019159168004989624,0.07731914520263672,9.05866813659668,0.3971377909183502,-3.6131060123443604
1403715887189058000,-0.004653734154999256,0.01980672776699066,0.07179831713438034,9.025906562805176,0.42896443605422974,-3.645364761352539
1403715887194058000,-0.004029196687042713,0.019775614142417908,0.07714645564556122,9.0668363571167,0.39767810702323914,-3.6607322692871094
1403715887199058000,-0.004788649268448353,0.022625192999839783,0.0772474855184555,9.034154891967773,0.3892553150653839,-3.6209447383880615
1403715887204058000,-0.008686047978699207,0.020456284284591675,0.07796318084001541,9.090982437133789,0.3881302773952484,-3.6369941234588623
1403715887209058000,-0.007704895921051502,0.01972907781600952,0.0779259130358696,9.083148956298828,0.4298292398452759,-3.6042490005493164
1403715887214058000,-0.007399898953735828,0.017719492316246033,0.07938115298748016,9.033953666687012,0.4051175117492676,-3.6291816234588623
1403715887219058000,-0.005542469210922718,0.019785389304161072,0.0751827135682106,9.025938987731934,0.4208255410194397,-3.645005702972412
1403715887224058000,-0.009605568833649158,0.01980900764465332,0.08063919842243195,9.042469024658203,0.4296058118343353,-3.6041510105133057
1403715887229058000,-0.006121170707046986,0.02189914882183075,0.08157052099704742,9.07448673248291,0.41311684250831604,-3.6531429290771484
1403715887234058000,-0.006940257735550404,0.018378078937530518,0.07727646082639694,9.066712379455566,0.40491220355033875,-3.6204442977905273
1403715887239058000,-0.00662503857165575,0.019804969429969788,0.07707750052213669,9.083401679992676,0.429648756980896,-3.6127264499664307
1403715887244058000,-0.0001087607815861702,0.023917153477668762,0.08006032556295395,9.107086181640625,0.40461692214012146,-3.6612870693206787
1403715887249058000,-0.005178910680115223,0.019754961133003235,0.08016239106655121,9.082842826843262,0.44539880752563477,-3.6854796409606934
1403715887254058000,-0.005639594979584217,0.021215170621871948,0.0779225304722786,9.034245491027832,0.3978159427642822,-3.612484931945801
1403715887259058000,-0.006032419390976429,0.01838912069797516,0.07727350294589996,9.066659927368164,0.38007402420043945,-3.6288318634033203
1403715887264058000,-0.00676341075450182,0.021169722080230713,0.07931067049503326,9.091279983520508,0.4128475487232208,-3.6283538341522217
1403715887269058000,-0.0055259885266423225,0.0247669517993927,0.07375732064247131,9.0588960647583,0.3893008530139923,-3.620756149291992
1403715887274058000,-0.0052869440987706184,0.023289307951927185,0.07660717517137527,9.066712379455566,0.4123285412788391,-3.6372945308685303
1403715887279058000,-0.0036034109070897102,0.02113586664199829,0.0752888023853302,9.091387748718262,0.42929738759994507,-3.6369521617889404
1403715887284058000,-0.005073142237961292,0.020510569214820862,0.07436884939670563,9.058730125427246,0.36493465304374695,-3.6044726371765137
1403715887289058000,-0.004342717118561268,0.017714112997055054,0.07786043733358383,9.066426277160645,0.44514209032058716,-3.6858277320861816
1403715887294058000,-0.0045865001156926155,0.02184927463531494,0.07802714407444,9.058666229248047,0.429599404335022,-3.6285173892974854
1403715887299058000,-0.00878093857318163,0.022597000002861023,0.0800107941031456,9.058592796325684,0.4051724374294281,-3.6048057079315186
1403715887304058000,-0.005082917399704456,0.017729178071022034,0.08064908534288406,9.066256523132324,0.4533061385154724,-3.6695239543914795
1403715887309058000,-0.00224913377314806,0.018391162157058716,0.0800621509552002,9.066572189331055,0.4544174373149872,-3.68538498878479
1403715887314058000,-0.004999530501663685,0.02327612042427063,0.07800832390785217,9.075018882751465,0.39709922671318054,-3.6047520637512207
1403715887319058000,0.002207833342254162,0.01840798556804657,0.07863513380289078,9.05018138885498,0.3969564139842987,-3.6286470890045166
1403715887324058000,-0.0018844129517674446,0.018413573503494263,0.07593051344156265,9.050557136535645,0.37333232164382935,-3.5961530208587646
1403715887329058000,-0.0034524621441960335,0.02393530309200287,0.07590842247009277,9.058598518371582,0.4128536880016327,-3.637305498123169
1403715887334058000,-0.004496258683502674,0.02258923649787903,0.0771632120013237,9.058614730834961,0.42900532484054565,-3.6205801963806152
1403715887339058000,-0.00491825956851244,0.02681449055671692,0.07385610789060593,9.034253120422363,0.4138683080673218,-3.5968384742736816
1403715887344058000,-0.0031659724190831184,0.023282617330551147,0.07242707163095474,9.091228485107422,0.3965609669685364,-3.6292037963867188
1403715887349058000,-0.006837201304733753,0.020453885197639465,0.07716254144906998,9.026276588439941,0.44567394256591797,-3.628392457962036
1403715887354058000,-0.0021896185353398323,0.023333758115768433,0.0821952372789383,9.042116165161133,0.397433340549469,-3.5882811546325684
1403715887359058000,-0.0036870064213871956,0.021217525005340576,0.08212920278310776,9.074417114257812,0.40444520115852356,-3.629031181335449
1403715887364058000,-0.005066347308456898,0.018366947770118713,0.07373836636543274,9.075231552124023,0.4460732042789459,-3.6043245792388916
1403715887369058000,-0.0060885073617100716,0.021851003170013428,0.0758480355143547,9.025985717773438,0.4135102331638336,-3.6128339767456055
1403715887374058000,-0.006640267558395863,0.02054201066493988,0.07729726284742355,9.074784278869629,0.42105627059936523,-3.6209797859191895
1403715887379058000,-0.0071344198659062386,0.021249577403068542,0.07593747228384018,9.083279609680176,0.47077441215515137,-3.6285269260406494
1403715887384058000,-0.0016839327290654182,0.020457416772842407,0.07663021981716156,9.058571815490723,0.39683112502098083,-3.6128830909729004
1403715887389058000,-0.0021688463166356087,0.01830287277698517,0.07574550807476044,9.058502197265625,0.42928221821784973,-3.6617395877838135
1403715887394058000,-0.0053806426003575325,0.01843366026878357,0.07365874946117401,9.05078411102295,0.43016043305397034,-3.612575054168701
1403715887399058000,-0.00682107824832201,0.022634878754615784,0.07522415369749069,9.082990646362305,0.4123966097831726,-3.661743640899658
1403715887404058000,-0.006209057755768299,0.02181941270828247,0.07810672372579575,9.050291061401367,0.3970469534397125,-3.669264793395996
1403715887409058000,-0.005198580212891102,0.020508334040641785,0.07592219859361649,9.050606727600098,0.41405874490737915,-3.6286966800689697
1403715887414058000,-0.009145152755081654,0.020525187253952026,0.07710304111242294,9.058600425720215,0.3639693856239319,-3.6050045490264893
1403715887419058000,-0.003300231881439686,0.020493432879447937,0.07788852602243423,9.050518989562988,0.3971339762210846,-3.6286799907684326
1403715887424058000,-0.006791156716644764,0.017743200063705444,0.07530542463064194,9.026139259338379,0.42167893052101135,-3.6205739974975586
1403715887429058000,-0.006202382035553455,0.021119803190231323,0.07721725851297379,9.08304214477539,0.4046166241168976,-3.629406452178955
1403715887434058000,-0.006115359254181385,0.023224875330924988,0.07449638843536377,9.091480255126953,0.4051622152328491,-3.629040479660034
1403715887439058000,-0.004759562201797962,0.018523752689361572,0.07520554959774017,9.074868202209473,0.42146924138069153,-3.620635747909546
1403715887444058000,-0.004863840527832508,0.019068002700805664,0.0785309374332428,9.091120719909668,0.4126504063606262,-3.6127169132232666
1403715887449058000,-0.004680437035858631,0.019734084606170654,0.08004330843687057,9.050651550292969,0.4461342394351959,-3.612544298171997
1403715887454058000,-0.005477887578308582,0.021939441561698914,0.07665412873029709,9.042086601257324,0.38912826776504517,-3.6374263763427734
1403715887459058000,-0.007393193431198597,0.022580847144126892,0.07784613966941833,9.07476806640625,0.38817963004112244,-3.6449921131134033
1403715887464058000,-0.00413824338465929,0.019756659865379333,0.08005283772945404,9.058719635009766,0.39771899580955505,-3.6203341484069824
1403715887469058000,-0.005440664477646351,0.022527828812599182,0.07948613911867142,9.050301551818848,0.3887999653816223,-3.596391201019287
1403715887474058000,-0.006644082255661488,0.020498573780059814,0.07653946429491043,9.082939147949219,0.3959236741065979,-3.653210401535034
1403715887479058000,-0.007756245322525501,0.021247804164886475,0.079967200756073,9.074943542480469,0.44602033495903015,-3.644679307937622
1403715887484058000,-0.005224955268204212,0.019800513982772827,0.07798013836145401,9.06657600402832,0.41283994913101196,-3.6291658878326416
1403715887489058000,-0.005546611733734608,0.01976071298122406,0.0751144289970398,9.075013160705566,0.42861953377723694,-3.6288506984710693
1403715887494058000,-0.006758344359695911,0.019807398319244385,0.0745542123913765,9.042469024658203,0.47855934500694275,-3.644968032836914
1403715887499058000,-0.006236058659851551,0.0205390602350235,0.07249122112989426,9.03419303894043,0.4132689833641052,-3.6289029121398926
1403715887504058000,-0.005373728461563587,0.019757166504859924,0.07575372606515884,9.066800117492676,0.43705546855926514,-3.6613712310791016
1403715887509058000,-0.00546227116137743,0.020462021231651306,0.07653877139091492,9.058619499206543,0.4222800135612488,-3.6287760734558105
1403715887514058000,-0.0061758579686284065,0.01985679566860199,0.07939538359642029,9.058371543884277,0.3810094892978668,-3.6290156841278076
1403715887519058000,-0.005366218276321888,0.018399715423583984,0.07858823239803314,9.07518482208252,0.42092686891555786,-3.5960137844085693
1403715887524058000,-0.004182321019470692,0.016242042183876038,0.0778883770108223,9.058648109436035,0.470631867647171,-3.6290252208709717
1403715887529058000,-0.005267036147415638,0.024661347270011902,0.07665226608514786,9.090950965881348,0.40506699681282043,-3.669611692428589
1403715887534058000,-0.005474758334457874,0.021244093775749207,0.07593083381652832,9.04224967956543,0.38076093792915344,-3.693730592727661
1403715887539058000,-0.00676391739398241,0.019811883568763733,0.07720836997032166,9.042220115661621,0.42170026898384094,-3.636950731277466
1403715887544058000,-0.006873411126434803,0.023205503821372986,0.0779440626502037,9.058520317077637,0.3966944217681885,-3.6371800899505615
1403715887549058000,-0.008855116553604603,0.02256755530834198,0.07789343595504761,9.058948516845703,0.4293114244937897,-3.6368331909179688
1403715887554058000,-0.004066986031830311,0.019850432872772217,0.07722092419862747,9.066650390625,0.4296616017818451,-3.612628936767578
1403715887559058000,-0.006126892752945423,0.019094273447990417,0.07455401122570038,9.099464416503906,0.4131191670894623,-3.6209890842437744
1403715887564058000,-0.005480927415192127,0.016263842582702637,0.07794265449047089,9.099385261535645,0.42181795835494995,-3.645084857940674
1403715887569058000,-0.004074704833328724,0.02191762626171112,0.0800730362534523,9.042007446289062,0.4136185944080353,-3.6124541759490967
1403715887574058000,-0.0012540044263005257,0.019876763224601746,0.08005765080451965,9.033876419067383,0.4208211600780487,-3.6206111907958984
1403715887579058000,-0.004032951779663563,0.02116282284259796,0.07650946825742722,9.091267585754395,0.4299294352531433,-3.6369640827178955
1403715887584058000,-0.006152552552521229,0.019704848527908325,0.07511880993843079,9.058662414550781,0.4455100893974304,-3.620939016342163
1403715887589058000,-0.00610352773219347,0.022593557834625244,0.07591719925403595,9.091339111328125,0.3722181022167206,-3.6125435829162598
1403715887594058000,-0.0074263038113713264,0.0211942195892334,0.07869897037744522,9.091314315795898,0.4299960136413574,-3.661043167114258
1403715887599058000,-0.005450320430099964,0.021858230233192444,0.07937192916870117,9.050310134887695,0.3966383635997772,-3.620774269104004
1403715887604058000,-0.004768651910126209,0.021147742867469788,0.07445814460515976,9.066617965698242,0.34795528650283813,-3.6532182693481445
1403715887609058000,-0.002591860480606556,0.01848389208316803,0.0757417306303978,9.02611255645752,0.4621748924255371,-3.6286137104034424
1403715887614058000,-0.0035261036828160286,0.021974459290504456,0.07589000463485718,9.050468444824219,0.445292204618454,-3.5884315967559814
1403715887619058000,-0.00530360359698534,0.021164074540138245,0.0760389193892479,9.042285919189453,0.38046887516975403,-3.6207480430603027
1403715887624058000,-0.00482488889247179,0.01973898708820343,0.08141195774078369,9.066627502441406,0.4463372230529785,-3.628652572631836
1403715887629058000,-0.006026041693985462,0.02397938072681427,0.08067388832569122,9.058431625366211,0.4453316330909729,-3.61281681060791
1403715887634058000,-0.0041807712987065315,0.022564634680747986,0.07723202556371689,9.026001930236816,0.3400663733482361,-3.653096914291382
1403715887639058000,-0.003220600076019764,0.019797950983047485,0.07651570439338684,9.091062545776367,0.43813082575798035,-3.645190954208374
1403715887644058000,-0.0040776850655674934,0.021854445338249207,0.07734886556863785,9.066826820373535,0.42923110723495483,-3.6128225326538086
1403715887649058000,-0.008217615075409412,0.019809722900390625,0.0759744644165039,9.115817070007324,0.3966900408267975,-3.6615021228790283
1403715887654058000,-0.008844447322189808,0.017786607146263123,0.07579696923494339,9.058680534362793,0.4056037962436676,-3.612548828125
1403715887659058000,-0.007622105069458485,0.01910857856273651,0.07720007747411728,9.058624267578125,0.3890099823474884,-3.604733467102051
1403715887664058000,-0.005994361825287342,0.022512391209602356,0.07518883794546127,9.115717887878418,0.41248393058776855,-3.6447768211364746
1403715887669058000,-0.006931823678314686,0.0156375914812088,0.07440263032913208,9.107902526855469,0.4213036298751831,-3.637075424194336
1403715887674058000,-0.0019954266026616096,0.019788742065429688,0.0780104473233223,9.074758529663086,0.36442646384239197,-3.629246711730957
1403715887679058000,-0.003939342685043812,0.020446762442588806,0.07666963338851929,9.074824333190918,0.38839107751846313,-3.6694998741149902
1403715887684058000,-0.004857820458710194,0.018419861793518066,0.0757501944899559,9.083109855651855,0.42991629242897034,-3.6613337993621826
1403715887689058000,-0.006025803275406361,0.021878808736801147,0.07721825689077377,9.033836364746094,0.372321218252182,-3.6291120052337646
1403715887694058000,-0.0068811895325779915,0.024647220969200134,0.07798998802900314,9.08299732208252,0.38872024416923523,-3.636631488800049
1403715887699058000,-0.0060933055356144905,0.02192370593547821,0.07653066515922546,9.05060863494873,0.43005356192588806,-3.6368863582611084
1403715887704058000,-0.004749012179672718,0.02189725637435913,0.0751703530550003,9.050552368164062,0.412126749753952,-3.6372745037078857
1403715887709058000,-0.002670389600098133,0.019765734672546387,0.07936615496873856,9.066635131835938,0.45366477966308594,-3.628554105758667
1403715887714058000,-0.0026484550908207893,0.019833341240882874,0.07450951635837555,9.05881404876709,0.41454675793647766,-3.5802128314971924
1403715887719058000,-0.00754548329859972,0.019796013832092285,0.07650573551654816,9.05838680267334,0.37120407819747925,-3.6209278106689453
1403715887724058000,-0.006862026639282703,0.017022311687469482,0.08006399869918823,9.050253868103027,0.4131942391395569,-3.6283321380615234
1403715887729058000,-0.0066533805802464485,0.021166086196899414,0.08074440807104111,9.026084899902344,0.42278411984443665,-3.6208531856536865
1403715887734058000,-0.007691127248108387,0.025351032614707947,0.07860374450683594,9.083015441894531,0.3953147232532501,-3.6452884674072266
1403715887739058000,-0.005985182709991932,0.021913990378379822,0.07452109456062317,9.099492073059082,0.437568336725235,-3.6611838340759277
1403715887744058000,-0.004830610938370228,0.023283883929252625,0.07660669833421707,9.034236907958984,0.3984222710132599,-3.6208746433258057
1403715887749058000,-0.004737836308777332,0.01973336935043335,0.0765620619058609,9.050238609313965,0.4120732843875885,-3.6371281147003174
1403715887754058000,-0.003993314690887928,0.022557392716407776,0.07865090668201447,9.091253280639648,0.42938676476478577,-3.652827501296997
1403715887759058000,-0.004138779826462269,0.02268114686012268,0.07728897780179977,9.058626174926758,0.41387122869491577,-3.6046769618988037
1403715887764058000,-0.0053976597264409065,0.017744362354278564,0.07510002702474594,9.033980369567871,0.3882836103439331,-3.6125612258911133
1403715887769058000,-0.006147962994873524,0.01624615490436554,0.0785616934299469,9.066845893859863,0.3814382553100586,-3.6285133361816406
1403715887774058000,-0.0034223319962620735,0.016410812735557556,0.08020279556512833,9.025740623474121,0.42148706316947937,-3.6047708988189697
1403715887779058000,-0.003200036473572254,0.021921634674072266,0.07944033294916153,9.03387451171875,0.41292232275009155,-3.58835506439209
1403715887784058000,-0.004194212146103382,0.016954883933067322,0.07651300728321075,9.042521476745605,0.43045249581336975,-3.6126883029937744
1403715887789058000,-0.006808084435760975,0.021107420325279236,0.0792599767446518,9.03418254852295,0.4613731801509857,-3.604828119277954
1403715887794058000,-0.0054333629086613655,0.022518396377563477,0.07866670191287994,9.033878326416016,0.4372975826263428,-3.6289117336273193
1403715887799058000,-0.006800216622650623,0.021916627883911133,0.07871202379465103,9.066862106323242,0.48706039786338806,-3.6530349254608154
1403715887804058000,-0.006180328316986561,0.021902278065681458,0.07591819018125534,9.075020790100098,0.4372377097606659,-3.5967037677764893
1403715887809058000,-0.004747462458908558,0.02111135423183441,0.07720958441495895,9.082990646362305,0.4294285476207733,-3.6289222240448
1403715887814058000,-0.004726779647171497,0.020537272095680237,0.07788670808076859,9.091382026672363,0.438289999961853,-3.6205339431762695
1403715887819058000,-0.0061425091698765755,0.019872471690177917,0.07799656689167023,9.05864143371582,0.42111700773239136,-3.6372969150543213
1403715887824058000,-0.006772113032639027,0.02531448006629944,0.07802746444940567,9.083242416381836,0.3892298936843872,-3.6289663314819336
1403715887829058000,-0.006118577904999256,0.018366739153862,0.07717402279376984,9.099383354187012,0.4541195333003998,-3.669747829437256
1403715887834058000,-0.00479010958224535,0.021176397800445557,0.07307859510183334,9.034132957458496,0.3965793550014496,-3.6533522605895996
1403715887839058000,-0.006082308478653431,0.024703994393348694,0.077963687479496,9.050437927246094,0.37314045429229736,-3.6448426246643066
1403715887844058000,-0.004106414504349232,0.02331767976284027,0.07663405686616898,9.10770034790039,0.40503573417663574,-3.6290507316589355
1403715887849058000,-0.002554965205490589,0.018371954560279846,0.07586302608251572,9.042253494262695,0.4047100841999054,-3.5967042446136475
1403715887854058000,-0.004835200496017933,0.019765704870224,0.07302581518888474,9.050484657287598,0.3810734450817108,-3.6531190872192383
1403715887859058000,-0.00745199341326952,0.019179433584213257,0.07649460434913635,9.050752639770508,0.3567834794521332,-3.604278564453125
1403715887864058000,-0.00618330854922533,0.01987580955028534,0.07734544575214386,9.009724617004395,0.3726886212825775,-3.588524580001831
1403715887869058000,-0.00474278349429369,0.021168917417526245,0.0773007795214653,9.033852577209473,0.3322499096393585,-3.6366443634033203
1403715887874058000,-0.0005746008828282356,0.020445004105567932,0.08070963621139526,9.066670417785645,0.40532371401786804,-3.6287338733673096
1403715887879058000,-0.004048747010529041,0.019085124135017395,0.0827779620885849,9.02566909790039,0.42082786560058594,-3.6372432708740234
1403715887884058000,-0.005454939790070057,0.019118458032608032,0.07656599581241608,9.066577911376953,0.3238627314567566,-3.6448731422424316
1403715887889058000,-0.007450622506439686,0.016980573534965515,0.07727871835231781,9.075130462646484,0.3968468904495239,-3.620582103729248
1403715887894058000,-0.005507362075150013,0.01837463676929474,0.076693095266819,9.042359352111816,0.3801330029964447,-3.5965993404388428
1403715887899058000,-0.004648548550903797,0.020500212907791138,0.0793120488524437,9.082813262939453,0.356052428483963,-3.6204113960266113
1403715887904058000,-0.0027410509064793587,0.017116710543632507,0.07655540108680725,9.107680320739746,0.42081764340400696,-3.6207432746887207
1403715887909058000,-0.004786563105881214,0.01907096803188324,0.07515794038772583,9.066793441772461,0.4205179810523987,-3.629153251647949
1403715887914058000,-0.00674091000109911,0.021799355745315552,0.07654187828302383,9.04227352142334,0.37282443046569824,-3.6366755962371826
1403715887919058000,-0.008868438191711903,0.016358166933059692,0.07515429705381393,9.075093269348145,0.40502288937568665,-3.6369264125823975
1403715887924058000,-0.004808616824448109,0.0184185653924942,0.07872755825519562,9.041987419128418,0.37980619072914124,-3.604280948638916
1403715887929058000,-0.003980320878326893,0.019692525267601013,0.080107182264328,9.066544532775879,0.37274616956710815,-3.6203367710113525
1403715887934058000,-0.0049256207421422005,0.01981532573699951,0.07718992233276367,9.018122673034668,0.4210492670536041,-3.604469060897827
1403715887939058000,-0.008769375272095203,0.018466398119926453,0.07440821081399918,9.058553695678711,0.41240039467811584,-3.6049256324768066
1403715887944058000,-0.0062281908467411995,0.018382951617240906,0.07728757709264755,9.091117858886719,0.4133373498916626,-3.6207120418548584
1403715887949058000,-0.005343359895050526,0.019786179065704346,0.0794040858745575,9.058823585510254,0.4055681824684143,-3.6044411659240723
1403715887954058000,-0.0013878168538212776,0.02263137698173523,0.0766202062368393,9.08286190032959,0.42083314061164856,-3.6047825813293457
1403715887959058000,-0.004679960198700428,0.021185055375099182,0.07440102100372314,9.050742149353027,0.4211246073246002,-3.653111457824707
1403715887964058000,-0.004808914847671986,0.01835423707962036,0.07511527091264725,9.066925048828125,0.3979567289352417,-3.6615993976593018
1403715887969058000,-0.0025894464924931526,0.024645671248435974,0.07587877660989761,9.083062171936035,0.4530029594898224,-3.604736804962158
1403715887974058000,-0.006769848056137562,0.02194441854953766,0.07729358971118927,9.050869941711426,0.42952463030815125,-3.620866537094116
1403715887979058000,-0.0033920230343937874,0.019878193736076355,0.07250101119279861,9.058698654174805,0.3985612988471985,-3.6374664306640625
1403715887984058000,-0.0033241333439946175,0.021861955523490906,0.07367867976427078,9.058627128601074,0.43668630719184875,-3.6371853351593018
1403715887989058000,-0.00818972010165453,0.019771069288253784,0.07644334435462952,9.091655731201172,0.4134339988231659,-3.637094497680664
1403715887994058000,-0.0033978642895817757,0.01918277144432068,0.08009897172451019,9.07483196258545,0.46294155716896057,-3.6210529804229736
1403715887999058000,-0.0032010795548558235,0.023267507553100586,0.07941854000091553,9.058430671691895,0.45276930928230286,-3.6045548915863037
1403715888004058000,-0.0049620093777775764,0.021800905466079712,0.07717636972665787,9.083113670349121,0.38950034976005554,-3.6286418437957764
1403715888009058000,-0.0072887958958745,0.01843629777431488,0.07786793261766434,9.06678295135498,0.4142912030220032,-3.6288816928863525
1403715888014058000,-0.008454305119812489,0.016359925270080566,0.07524384558200836,9.034244537353516,0.436751127243042,-3.612973213195801
1403715888019058000,-0.0059096934273839,0.021833255887031555,0.07802818715572357,9.066754341125488,0.39760711789131165,-3.636953115463257
1403715888024058000,-0.008176368661224842,0.02051277458667755,0.07454510778188705,9.06696605682373,0.4219263195991516,-3.645367383956909
1403715888029058000,-0.004367453046143055,0.02191285789012909,0.07784309983253479,9.066754341125488,0.39656388759613037,-3.6208279132843018
1403715888034058000,-0.006440621800720692,0.021836787462234497,0.07923366874456406,9.06666088104248,0.38935548067092896,-3.6610798835754395
1403715888039058000,-0.005694192834198475,0.02049224078655243,0.0773434042930603,9.099237442016602,0.46996012330055237,-3.6614110469818115
1403715888044058000,-0.006043535657227039,0.019773438572883606,0.07661990821361542,9.050506591796875,0.4697977304458618,-3.6533515453338623
1403715888049058000,-0.005990666337311268,0.0190870463848114,0.07861334085464478,9.050354957580566,0.40533655881881714,-3.6447486877441406
1403715888054058000,-0.004349273629486561,0.021206915378570557,0.07521826773881912,9.058642387390137,0.3892699182033539,-3.612635850906372
1403715888059058000,-0.0017942311242222786,0.02328398823738098,0.07449072599411011,9.042485237121582,0.38937652111053467,-3.612739086151123
1403715888064058000,-0.003486138768494129,0.020535096526145935,0.07722628861665726,9.058408737182617,0.380368709564209,-3.620640277862549
1403715888069058000,-0.007380438037216663,0.021199464797973633,0.07520109415054321,9.050649642944336,0.4214707016944885,-3.6290624141693115
1403715888074058000,-0.009605777449905872,0.0245821475982666,0.07652462273836136,9.075094223022461,0.43766528367996216,-3.6452245712280273
1403715888079058000,-0.006219548173248768,0.021944895386695862,0.07789988070726395,9.074652671813965,0.39641815423965454,-3.636610269546509
1403715888084058000,-0.005211901850998402,0.023298203945159912,0.07872869819402695,9.091176986694336,0.4378522038459778,-3.6369869709014893
1403715888089058000,-0.007097494788467884,0.023190021514892578,0.07861713320016861,9.058557510375977,0.4050392508506775,-3.6124773025512695
1403715888094058000,-0.0073403241112828255,0.021160706877708435,0.07651975750923157,9.050516128540039,0.4285453259944916,-3.6366069316864014
1403715888099058000,-0.0028184475377202034,0.01987883448600769,0.07664476335048676,9.033963203430176,0.43796464800834656,-3.6531946659088135
1403715888104058000,-0.0025823237374424934,0.018445447087287903,0.07931111752986908,9.066488265991211,0.38887444138526917,-3.612771987915039
1403715888109058000,-0.006124299950897694,0.02114960551261902,0.07932020723819733,9.099475860595703,0.38863933086395264,-3.604438304901123
1403715888114058000,-0.0034440578892827034,0.01774856448173523,0.0752839595079422,9.107646942138672,0.3898134231567383,-3.628793716430664
1403715888119058000,-0.007401567883789539,0.019798576831817627,0.07579782605171204,9.050538063049316,0.3801259994506836,-3.6044583320617676
1403715888124058000,-0.005531621165573597,0.0190325528383255,0.07928586006164551,9.025954246520996,0.37242957949638367,-3.604377031326294
1403715888129058000,-0.0032566310837864876,0.01770976185798645,0.07877252250909805,9.082844734191895,0.38932541012763977,-3.620957136154175
1403715888134058000,-0.0013149203732609749,0.01840810477733612,0.07657469809055328,9.074801445007324,0.4607592821121216,-3.6209466457366943
1403715888139058000,-0.0075304629281163216,0.022574424743652344,0.0765075534582138,9.04244327545166,0.41315245628356934,-3.6286110877990723
1403715888144058000,-0.005416941829025745,0.020510226488113403,0.07862943410873413,9.066731452941895,0.3895050287246704,-3.6369378566741943
1403715888149058000,-0.006080311723053455,0.0225306898355484,0.07794950902462006,9.083035469055176,0.4123130738735199,-3.6451923847198486
1403715888154058000,-0.007357907481491566,0.022580385208129883,0.0752672627568245,9.066726684570312,0.3484994173049927,-3.6611568927764893
1403715888159058000,-0.00633771438151598,0.02119879424571991,0.07656640559434891,9.083162307739258,0.4379018545150757,-3.620818853378296
1403715888164058000,-0.00743452925235033,0.019769832491874695,0.07645143568515778,9.058775901794434,0.4448777735233307,-3.6289403438568115
1403715888169058000,-0.004687142558395863,0.021207287907600403,0.07792152464389801,9.09933853149414,0.4295295774936676,-3.6287832260131836
1403715888174058000,-0.006934863515198231,0.02118752896785736,0.0787377581000328,9.09114933013916,0.3813786506652832,-3.6206398010253906
1403715888179058000,-0.002660614438354969,0.018430426716804504,0.07519666850566864,9.02610969543457,0.4128098785877228,-3.6210079193115234
1403715888184058000,-0.005474668927490711,0.019099950790405273,0.07715851068496704,9.066533088684082,0.38889577984809875,-3.6371705532073975
1403715888189058000,-0.008848381228744984,0.021165773272514343,0.0793379470705986,9.07495403289795,0.42095842957496643,-3.63700795173645
1403715888194058000,-0.004201990552246571,0.02189435064792633,0.07735862582921982,9.05065631866455,0.4449525475502014,-3.620884895324707
1403715888199058000,-0.007140499539673328,0.02396659553050995,0.07931703329086304,9.074837684631348,0.39751338958740234,-3.628702163696289
1403715888204058000,-0.0071205319836735725,0.02043682336807251,0.08063062280416489,9.091103553771973,0.4778832197189331,-3.645047903060913
1403715888209058000,-0.008055371232330799,0.01835501194000244,0.07588950544595718,9.066696166992188,0.5103941559791565,-3.6290900707244873
1403715888214058000,-0.005561274476349354,0.019779875874519348,0.07933985441923141,9.050291061401367,0.43012627959251404,-3.5962109565734863
1403715888219058000,-0.004793834872543812,0.017796248197555542,0.07662040740251541,9.066959381103516,0.39722394943237305,-3.6289634704589844
1403715888224058000,-0.0066870274022221565,0.021187499165534973,0.07661446928977966,9.058595657348633,0.4456605017185211,-3.6533515453338623
1403715888229058000,-0.005049359984695911,0.024647176265716553,0.07649225741624832,9.042306900024414,0.41333791613578796,-3.6287331581115723
1403715888234058000,-0.007140231318771839,0.022629231214523315,0.07653476297855377,9.075202941894531,0.38167423009872437,-3.6289613246917725
1403715888239058000,-0.0071280719712376595,0.01907189190387726,0.07940991222858429,9.050304412841797,0.44550076127052307,-3.629054307937622
1403715888244058000,-0.006639760918915272,0.019724339246749878,0.07584014534950256,9.017584800720215,0.4051055610179901,-3.661275863647461
1403715888249058000,-0.006766480393707752,0.019820109009742737,0.07587198168039322,9.034211158752441,0.3738539516925812,-3.6612532138824463
1403715888254058000,-0.007788342423737049,0.019866332411766052,0.07525362819433212,9.034380912780762,0.4209443926811218,-3.628988265991211
1403715888259058000,-0.006598752923309803,0.021893277764320374,0.07720009982585907,9.01790714263916,0.37234166264533997,-3.604391574859619
1403715888264058000,-0.009115171618759632,0.018370091915130615,0.08073047548532486,9.07474422454834,0.38929328322410583,-3.612391948699951
1403715888269058000,-0.006671440787613392,0.0225745290517807,0.07733150571584702,9.066843032836914,0.4938967227935791,-3.604464292526245
1403715888274058000,-0.0027886154130101204,0.019133448600769043,0.07644136250019073,9.074993133544922,0.4456207752227783,-3.6372456550598145
1403715888279058000,-0.005405408330261707,0.019760921597480774,0.07724832743406296,9.074797630310059,0.38203316926956177,-3.6532373428344727
1403715888284058000,-0.005378318019211292,0.019040197134017944,0.07872841507196426,9.058405876159668,0.4050331115722656,-3.6286914348602295
1403715888289058000,-0.0027977051213383675,0.019777104258537292,0.07594364881515503,9.066783905029297,0.39672890305519104,-3.637011766433716
1403715888294058000,-0.003872108645737171,0.01982121169567108,0.07791049033403397,9.10742473602295,0.3974447548389435,-3.6450648307800293
1403715888299058000,-0.005510789342224598,0.017744630575180054,0.07855790108442307,9.058416366577148,0.42065906524658203,-3.6613855361938477
1403715888304058000,-0.008164209313690662,0.021147161722183228,0.07794413715600967,9.05046272277832,0.42883068323135376,-3.628817558288574
1403715888309058000,-0.0068642618134617805,0.019148454070091248,0.07660647481679916,9.066828727722168,0.37349122762680054,-3.6288001537323
1403715888314058000,-0.006035041995346546,0.01773512363433838,0.07939980179071426,9.042356491088867,0.42885521054267883,-3.5961897373199463
1403715888319058000,-0.0034925760701298714,0.021786242723464966,0.07522165775299072,9.034119606018066,0.38795387744903564,-3.6043388843536377
1403715888324058000,-0.00602955836802721,0.01976396143436432,0.07716317474842072,9.074912071228027,0.3490070104598999,-3.6286942958831787
1403715888329058000,-0.0013221325352787971,0.019855082035064697,0.07731201499700546,9.066606521606445,0.3804504871368408,-3.6372036933898926
1403715888334058000,-0.006126833148300648,0.02672603726387024,0.07727821916341782,9.066685676574707,0.46038514375686646,-3.628981590270996
1403715888339058000,-0.007410806603729725,0.02333669364452362,0.0772046148777008,9.034409523010254,0.40610790252685547,-3.6123297214508057
1403715888344058000,-0.0068434299901127815,0.023284316062927246,0.07656500488519669,9.066878318786621,0.39752301573753357,-3.612717866897583
1403715888349058000,-0.008232069201767445,0.01976686716079712,0.0773179903626442,9.083056449890137,0.4037454128265381,-3.6127240657806396
1403715888354058000,-0.008203697390854359,0.02118702232837677,0.07999300211668015,9.067007064819336,0.3733644485473633,-3.6124160289764404
1403715888359058000,-0.007507276721298695,0.02049461007118225,0.08004102855920792,9.034093856811523,0.4294416904449463,-3.6287972927093506
1403715888364058000,-0.006856095977127552,0.018423274159431458,0.07868222892284393,9.058462142944336,0.4603521525859833,-3.6369681358337402
1403715888369058000,-0.006827187724411488,0.01770538091659546,0.07582815736532211,9.058624267578125,0.38184770941734314,-3.661346435546875
1403715888374058000,-0.003357124514877796,0.017714202404022217,0.07584177702665329,9.099136352539062,0.40548843145370483,-3.669529676437378
1403715888379058000,-0.0014121951535344124,0.0184352844953537,0.07805857062339783,9.026092529296875,0.47701898217201233,-3.6125288009643555
1403715888384058000,-0.00520442146807909,0.01977960765361786,0.0779619961977005,9.04243278503418,0.40588271617889404,-3.6045703887939453
1403715888389058000,-0.01056582946330309,0.019726961851119995,0.07789857685565948,9.090980529785156,0.4538806080818176,-3.6615853309631348
1403715888394058000,-0.007332426495850086,0.017664268612861633,0.0772162601351738,9.034204483032227,0.43669387698173523,-3.628939151763916
1403715888399058000,-0.005461317487061024,0.021181806921958923,0.0779084637761116,9.05844783782959,0.3814253807067871,-3.645246744155884
1403715888404058000,-0.00480238813906908,0.020544156432151794,0.08009789884090424,9.115311622619629,0.3975919485092163,-3.653141975402832
1403715888409058000,-0.004719805903732777,0.02045176923274994,0.07736538350582123,9.042557716369629,0.3965410888195038,-3.6287033557891846
1403715888414058000,-0.006891739554703236,0.020513474941253662,0.07930527627468109,8.993450164794922,0.34866735339164734,-3.5960586071014404
1403715888419058000,-0.006084662862122059,0.02195081114768982,0.07516311854124069,9.026103019714355,0.38140201568603516,-3.6208887100219727
1403715888424058000,-0.004037809558212757,0.018389686942100525,0.07655222713947296,9.0585298538208,0.3965787887573242,-3.637208938598633
1403715888429058000,-0.006052357144653797,0.024626612663269043,0.0765988677740097,9.091137886047363,0.42892998456954956,-3.6452183723449707
1403715888434058000,-0.004087341018021107,0.02398569881916046,0.07659053802490234,9.066954612731934,0.3898245394229889,-3.645092248916626
1403715888439058000,-0.0026813866570591927,0.019812196493148804,0.08068486303091049,9.017823219299316,0.4370656907558441,-3.636903762817383
1403715888444058000,-0.002654177136719227,0.021196171641349792,0.07863444834947586,9.050023078918457,0.40460261702537537,-3.6045141220092773
1403715888449058000,-0.005332780070602894,0.023274347186088562,0.07588369399309158,9.075028419494629,0.3981611728668213,-3.6208102703094482
1403715888454058000,-0.006946218200027943,0.019813522696495056,0.07656048238277435,9.091444969177246,0.4531799554824829,-3.620887041091919
1403715888459058000,-0.004696262069046497,0.024674758315086365,0.07935202866792679,9.034035682678223,0.461231529712677,-3.6205685138702393
1403715888464058000,-0.006028098054230213,0.01910167932510376,0.07387053966522217,9.034363746643066,0.3985356092453003,-3.6286420822143555
1403715888469058000,-0.005521220155060291,0.022574350237846375,0.0737476572394371,9.075002670288086,0.45316505432128906,-3.6290886402130127
1403715888474058000,-0.005334389396011829,0.01911585032939911,0.07579340785741806,9.042214393615723,0.380354106426239,-3.6451454162597656
1403715888479058000,-0.0027001621201634407,0.017035141587257385,0.07521791756153107,9.123733520507812,0.3737794756889343,-3.669393301010132
1403715888484058000,-0.006127488799393177,0.015590116381645203,0.0744563564658165,9.123869895935059,0.4036288857460022,-3.6128134727478027
1403715888489058000,-0.006069702096283436,0.021215200424194336,0.07518409192562103,9.018340110778809,0.4044884145259857,-3.620600700378418
1403715888494058000,-0.0034858407452702522,0.017763972282409668,0.07592232525348663,9.02608871459961,0.333441823720932,-3.6203653812408447
1403715888499058000,-0.005351466126739979,0.01771487295627594,0.07853934168815613,9.06633472442627,0.3719353973865509,-3.62898850440979
1403715888504058000,-0.004845690913498402,0.023182690143585205,0.0793788731098175,9.058432579040527,0.3885207772254944,-3.6206533908843994
1403715888509058000,-0.003227424807846546,0.023286893963813782,0.08150414377450943,9.058520317077637,0.36526674032211304,-3.6531765460968018
1403715888514058000,-0.0012510539963841438,0.024034559726715088,0.07926515489816666,9.091355323791504,0.3881545066833496,-3.629178285598755
1403715888519058000,-0.0026706280186772346,0.024602845311164856,0.07859909534454346,9.050562858581543,0.4452440142631531,-3.6126084327697754
1403715888524058000,0.0008356748148798943,0.023889809846878052,0.07878378033638,9.049979209899902,0.38146600127220154,-3.612318515777588
1403715888529058000,-0.005407077260315418,0.024773091077804565,0.07935003191232681,9.074671745300293,0.4374874234199524,-3.64520001411438
1403715888534058000,-0.0032914699986577034,0.018464431166648865,0.07793164998292923,9.074935913085938,0.437054306268692,-3.637138843536377
1403715888539058000,-0.006201845593750477,0.02185317873954773,0.07865322381258011,9.009710311889648,0.38133397698402405,-3.60433030128479
1403715888544058000,-0.006724697537720203,0.01843118667602539,0.07931431382894516,9.050541877746582,0.40535321831703186,-3.612762928009033
1403715888549058000,-0.006140482611954212,0.019832193851470947,0.07937459647655487,9.08299446105957,0.38000625371932983,-3.6288654804229736
1403715888554058000,-0.0055048586800694466,0.02046424150466919,0.07872278243303299,9.050222396850586,0.42941686511039734,-3.6368322372436523
1403715888559058000,-0.006757867522537708,0.019062742590904236,0.07863464206457138,9.09912395477295,0.4214636981487274,-3.6694788932800293
1403715888564058000,-0.008202058263123035,0.016921386122703552,0.07518390566110611,9.058866500854492,0.501022458076477,-3.62896728515625
1403715888569058000,-0.0035020234063267708,0.02054232358932495,0.073777936398983,9.050800323486328,0.38140055537223816,-3.5881259441375732
1403715888574058000,-0.006073278374969959,0.01917116343975067,0.07034425437450409,9.075040817260742,0.3490832448005676,-3.653485059738159
1403715888579058000,-0.008148026652634144,0.01626075804233551,0.07238084822893143,9.091119766235352,0.4280993640422821,-3.66153621673584
1403715888584058000,-0.008420330472290516,0.02116553485393524,0.0765150710940361,9.042447090148926,0.41349855065345764,-3.6209757328033447
1403715888589058000,-0.004488122649490833,0.01779209077358246,0.07516547292470932,9.034392356872559,0.3817162811756134,-3.6370809078216553
1403715888594058000,-0.004283797927200794,0.017002105712890625,0.07445494085550308,9.075006484985352,0.3802775740623474,-3.636861562728882
1403715888599058000,-0.0032289745286107063,0.02532881498336792,0.07718155533075333,9.075035095214844,0.4377713203430176,-3.645148277282715
1403715888604058000,-0.007562440820038319,0.023270517587661743,0.0800514668226242,9.06657600402832,0.381916344165802,-3.6450743675231934
1403715888609058000,-0.009540450759232044,0.022570669651031494,0.07940328121185303,9.074665069580078,0.38008248805999756,-3.6450510025024414
1403715888614058000,-0.005440217442810535,0.019076183438301086,0.08000434935092926,9.06658935546875,0.404422402381897,-3.6370511054992676
1403715888619058000,-0.007475000806152821,0.021850362420082092,0.07929255813360214,9.083114624023438,0.38992851972579956,-3.6288797855377197
1403715888624058000,-0.00609020609408617,0.02262231707572937,0.0786106213927269,9.123895645141602,0.38807740807533264,-3.6451921463012695
1403715888629058000,-0.006962430663406849,0.021258369088172913,0.07933636754751205,9.074997901916504,0.4453088641166687,-3.6207427978515625
1403715888634058000,-0.00536684412509203,0.022538140416145325,0.08015339076519012,9.042254447937012,0.381746381521225,-3.6125004291534424
1403715888639058000,-0.0047200145199894905,0.02117636799812317,0.08003078401088715,9.08285140991211,0.388342022895813,-3.6530561447143555
1403715888644058000,-0.003362131305038929,0.019816875457763672,0.0757916122674942,9.050368309020996,0.4371457099914551,-3.653181552886963
1403715888649058000,-0.004158926196396351,0.02326129376888275,0.07520800828933716,9.04239273071289,0.46222689747810364,-3.6288015842437744
1403715888654058000,-0.004608375020325184,0.019811779260635376,0.07456070929765701,9.066739082336426,0.3806809186935425,-3.629032850265503
1403715888659058000,-0.004832756705582142,0.019762203097343445,0.0765654593706131,9.042308807373047,0.43675726652145386,-3.6288459300994873
1403715888664058000,-0.004631620831787586,0.019835278391838074,0.07452084869146347,9.034327507019043,0.4140706956386566,-3.5960819721221924
1403715888669058000,-0.0074613215401768684,0.0212690532207489,0.07582102715969086,9.083157539367676,0.4050848186016083,-3.6209545135498047
1403715888674058000,-0.010455829091370106,0.017664432525634766,0.07304351031780243,9.042563438415527,0.40428632497787476,-3.6291186809539795
1403715888679058000,-0.007345390506088734,0.019796565175056458,0.07723366469144821,9.050397872924805,0.4381442666053772,-3.636883020401001
1403715888684058000,-0.006185066886246204,0.024017468094825745,0.0759347602725029,9.10755729675293,0.389220267534256,-3.653301239013672
1403715888689058000,-0.004702490754425526,0.019080623984336853,0.07933057099580765,9.050346374511719,0.38824477791786194,-3.652945041656494
1403715888694058000,-0.003453177399933338,0.019748002290725708,0.07931793481111526,9.00122356414795,0.39732733368873596,-3.628545045852661
1403715888699058000,-0.0005946876481175423,0.02046377956867218,0.07861162722110748,9.058494567871094,0.4139918386936188,-3.6129095554351807
1403715888704058000,-0.004020196385681629,0.021216854453086853,0.07868660241365433,9.034266471862793,0.4208696484565735,-3.604651689529419
1403715888709058000,-0.004724842496216297,0.021952062845230103,0.07868070155382156,9.06651496887207,0.437198281288147,-3.6450443267822266
1403715888714058000,-0.006807011552155018,0.018394768238067627,0.07592657208442688,9.058820724487305,0.4061800539493561,-3.628817081451416
1403715888719058000,-0.0054222168400883675,0.023905187845230103,0.07929397374391556,9.058526039123535,0.40534037351608276,-3.645350694656372
1403715888724058000,-0.006126594729721546,0.024667739868164062,0.08209681510925293,9.050092697143555,0.43688929080963135,-3.6207587718963623
1403715888729058000,-0.006141108460724354,0.019170522689819336,0.07523851096630096,9.026287078857422,0.43031084537506104,-3.612571954727173
1403715888734058000,-0.0026143016293644905,0.019034087657928467,0.07860134541988373,9.082651138305664,0.3811753988265991,-3.6613709926605225
1403715888739058000,-0.0033673765137791634,0.019044354557991028,0.07657197117805481,9.07480239868164,0.3882085382938385,-3.6370503902435303
1403715888744058000,-0.00476838368922472,0.02127338945865631,0.07666826248168945,9.034483909606934,0.4379923939704895,-3.6289799213409424
1403715888749058000,-0.003340226598083973,0.017106547951698303,0.07656000554561615,9.050217628479004,0.3894912898540497,-3.6208221912384033
1403715888754058000,-0.004010898061096668,0.017626821994781494,0.07654199004173279,9.050371170043945,0.4445004463195801,-3.6370363235473633
1403715888759058000,-0.004835647530853748,0.020428478717803955,0.07450143992900848,9.066925048828125,0.40534037351608276,-3.628826379776001
1403715888764058000,-0.006674868054687977,0.02061779797077179,0.07091626524925232,9.091432571411133,0.39752477407455444,-3.6292362213134766
1403715888769058000,-0.004887533374130726,0.021190017461776733,0.07447618246078491,9.116076469421387,0.4446423649787903,-3.6291165351867676
1403715888774058000,-0.0066720666363835335,0.019653722643852234,0.07737810164690018,9.018045425415039,0.40519610047340393,-3.6366467475891113
1403715888779058000,-0.00834424514323473,0.02048569917678833,0.07648253440856934,9.05841064453125,0.3814370632171631,-3.6044058799743652
1403715888784058000,-0.002671373076736927,0.02404320240020752,0.0799374058842659,9.082988739013672,0.4209119975566864,-3.6047379970550537
1403715888789058000,-0.005287689156830311,0.02191169559955597,0.07939354330301285,9.058877944946289,0.4535546600818634,-3.60457444190979
1403715888794058000,-0.004236978478729725,0.023233085870742798,0.07997111231088638,9.058256149291992,0.38944894075393677,-3.6289055347442627
1403715888799058000,-0.0031877877190709114,0.01769271492958069,0.07872169464826584,9.091217994689941,0.3645917773246765,-3.645066499710083
1403715888804058000,-0.006844324059784412,0.019867584109306335,0.08081990480422974,9.034157752990723,0.40459883213043213,-3.6043660640716553
1403715888809058000,-0.007576656527817249,0.018410995602607727,0.07793909311294556,9.058305740356445,0.39713311195373535,-3.6124942302703857
1403715888814058000,-0.008142334409058094,0.021818920969963074,0.0751175656914711,9.0670747756958,0.3968232274055481,-3.612560749053955
1403715888819058000,-0.00493208784610033,0.017710953950881958,0.07518219947814941,9.066869735717773,0.44514501094818115,-3.6210110187530518
1403715888824058000,-0.003891897387802601,0.020529896020889282,0.07523548603057861,9.018030166625977,0.43768808245658875,-3.60453724861145
1403715888829058000,-0.0063859643414616585,0.01771983504295349,0.07656411081552505,9.009946823120117,0.3977198600769043,-3.61283540725708
1403715888834058000,-0.006762159056961536,0.01976408064365387,0.0758771002292633,9.082939147949219,0.46125608682632446,-3.6210782527923584
1403715888839058000,-0.004631710238754749,0.019071921706199646,0.0786517933011055,9.042226791381836,0.4294603765010834,-3.5881476402282715
1403715888844058000,-0.004304689355194569,0.020516574382781982,0.07653409242630005,9.05056095123291,0.3654983341693878,-3.588334321975708
1403715888849058000,-0.0059063853695988655,0.017709851264953613,0.07451445609331131,9.05879020690918,0.42042627930641174,-3.5883312225341797
1403715888854058000,-0.004949462600052357,0.01979289948940277,0.07659618556499481,9.050817489624023,0.4539802074432373,-3.604769706726074
1403715888859058000,-0.00471381563693285,0.019772633910179138,0.07520363479852676,9.107405662536621,0.3816070556640625,-3.6211023330688477
1403715888864058000,-0.006039661355316639,0.018438145518302917,0.07721304148435593,9.08293628692627,0.3963091969490051,-3.637078285217285
1403715888869058000,-0.004186970181763172,0.02257932722568512,0.07654505968093872,9.083281517028809,0.4214085042476654,-3.604566812515259
1403715888874058000,-0.004621279425919056,0.02327476441860199,0.07862570881843567,9.042354583740234,0.40544435381889343,-3.612572193145752
1403715888879058000,-0.006922286935150623,0.021157249808311462,0.08001447468996048,9.066689491271973,0.39615848660469055,-3.6208572387695312
1403715888884058000,-0.005401295609772205,0.015607982873916626,0.07798728346824646,9.058595657348633,0.4214041233062744,-3.6290335655212402
1403715888889058000,-0.004687768407166004,0.02115100622177124,0.07660730183124542,9.066757202148438,0.42998549342155457,-3.645174980163574
1403715888894058000,-0.004017842002213001,0.022655203938484192,0.07863720506429672,9.090863227844238,0.38060760498046875,-3.653285026550293
1403715888899058000,-0.004728448577225208,0.02399502694606781,0.08276259899139404,9.08301067352295,0.45342206954956055,-3.6288745403289795
1403715888904058000,-0.0020609023049473763,0.022526174783706665,0.08009733259677887,9.042314529418945,0.47865745425224304,-3.596327304840088
1403715888909058000,-0.0038815559819340706,0.01974552869796753,0.07586222141981125,9.091065406799316,0.40552932024002075,-3.6533942222595215
1403715888914058000,-0.008292716927826405,0.017717555165290833,0.07647853344678879,9.099479675292969,0.4447755515575409,-3.6370701789855957
1403715888919058000,-0.006861102767288685,0.019128605723381042,0.076624296605587,9.058666229248047,0.4219193160533905,-3.637214183807373
1403715888924058000,-0.0018510939553380013,0.02048681676387787,0.0786902904510498,9.066703796386719,0.4219050109386444,-3.6530375480651855
1403715888929058000,-0.007523191161453724,0.01977427303791046,0.07659489661455154,9.10749626159668,0.3878677189350128,-3.669262409210205
1403715888934058000,-0.006863516755402088,0.020506829023361206,0.07511376589536667,9.00177001953125,0.48639100790023804,-3.612539529800415
1403715888939058000,-0.005402338691055775,0.019842714071273804,0.07783021777868271,9.001470565795898,0.3980405628681183,-3.6207234859466553
1403715888944058000,-0.010976058430969715,0.023213312029838562,0.0766243115067482,9.058695793151855,0.44464558362960815,-3.6533570289611816
1403715888949058000,-0.007598412223160267,0.01769787073135376,0.07602819800376892,9.034415245056152,0.44571542739868164,-3.588078022003174
1403715888954058000,-0.0034050168469548225,0.022572949528694153,0.08068603277206421,9.033831596374512,0.40647560358047485,-3.6205761432647705
1403715888959058000,-0.006085020489990711,0.02119620144367218,0.0764964371919632,9.082963943481445,0.3637561798095703,-3.661275863647461
1403715888964058000,-0.0034591974690556526,0.018389850854873657,0.08069527894258499,9.082926750183105,0.38075539469718933,-3.6124653816223145
1403715888969058000,-0.003351581282913685,0.021176502108573914,0.07937689125537872,9.066435813903809,0.4221322238445282,-3.6045408248901367
1403715888974058000,-0.006758552975952625,0.01984509825706482,0.07799915224313736,9.075021743774414,0.39685681462287903,-3.62073016166687
1403715888979058000,-0.002635759301483631,0.018442466855049133,0.07727459818124771,9.099425315856934,0.412882000207901,-3.628890037536621
1403715888984058000,-0.006305915303528309,0.019083231687545776,0.07582906633615494,9.034213066101074,0.4378875494003296,-3.612483501434326
1403715888989058000,-0.004581254906952381,0.019752487540245056,0.0766322910785675,9.066651344299316,0.3894994556903839,-3.62060809135437
1403715888994058000,-0.007490289397537708,0.021814584732055664,0.07517661154270172,9.099472045898438,0.4282380938529968,-3.6044747829437256
1403715888999058000,-0.00912166852504015,0.019812554121017456,0.07579008489847183,9.009992599487305,0.4374871253967285,-3.6043336391448975
1403715889004058000,-0.002437037415802479,0.021921560168266296,0.07729800790548325,9.0584135055542,0.3816184401512146,-3.63692307472229
1403715889009058000,-0.004782271571457386,0.020469173789024353,0.07586620002985,9.066705703735352,0.39628905057907104,-3.6533565521240234
1403715889014058000,-0.0063474299386143684,0.02053515613079071,0.07376638054847717,9.04269027709961,0.44551244378089905,-3.6126279830932617
1403715889019058000,-0.005855363793671131,0.019797489047050476,0.07593435049057007,9.050267219543457,0.4222680330276489,-3.6288559436798096
1403715889024058000,-0.005653065629303455,0.020478591322898865,0.07859450578689575,9.090925216674805,0.34796640276908875,-3.6367599964141846
1403715889029058000,-0.003980797715485096,0.020489469170570374,0.07519162446260452,9.07498550415039,0.379867821931839,-3.6288089752197266
1403715889034058000,-0.006026965565979481,0.017719581723213196,0.07725793123245239,9.026397705078125,0.4138040542602539,-3.539710521697998
1403715889039058000,-0.007142853923141956,0.02119697630405426,0.07790616154670715,9.099386215209961,0.3961549997329712,-3.613044023513794
1403715889044058000,-0.005741787143051624,0.022563010454177856,0.07797571271657944,9.091230392456055,0.42044177651405334,-3.661024332046509
1403715889049058000,-0.0070498110726475716,0.019107818603515625,0.07521720975637436,9.018061637878418,0.39768803119659424,-3.6287941932678223
1403715889054058000,-0.004661601968109608,0.02328537404537201,0.07794647663831711,9.091007232666016,0.3727116882801056,-3.645524501800537
1403715889059058000,-0.00462265033274889,0.019758939743041992,0.07727158069610596,9.075068473815918,0.4206537902355194,-3.612349510192871
1403715889064058000,-0.006416601128876209,0.018406569957733154,0.07789873331785202,9.058745384216309,0.41346701979637146,-3.580242156982422
1403715889069058000,-0.005218994803726673,0.021217331290245056,0.07935874909162521,9.083047866821289,0.36486631631851196,-3.5966410636901855
1403715889074058000,-0.006190192885696888,0.017031356692314148,0.0752536803483963,9.083341598510742,0.42868903279304504,-3.6289443969726562
1403715889079058000,-0.00550196785479784,0.017698466777801514,0.07581953704357147,9.026001930236816,0.4132838845252991,-3.6128320693969727
1403715889084058000,-0.006110859103500843,0.020490571856498718,0.07792843878269196,9.042357444763184,0.44624608755111694,-3.588493824005127
1403715889089058000,-0.004872960038483143,0.022580131888389587,0.07668446749448776,9.074766159057617,0.42079252004623413,-3.636897087097168
1403715889094058000,-0.0053005339577794075,0.018363043665885925,0.07996319979429245,9.074681282043457,0.4694785177707672,-3.6448824405670166
1403715889099058000,-0.004805249162018299,0.01697865128517151,0.0765111967921257,9.042263984680176,0.43014436960220337,-3.62899112701416
1403715889104058000,-0.006152850575745106,0.01976713538169861,0.07726476341485977,9.074740409851074,0.39692574739456177,-3.6615941524505615
1403715889109058000,-0.006060165353119373,0.019833311438560486,0.077278271317482,9.04253101348877,0.46126455068588257,-3.6124913692474365
1403715889114058000,-0.004843485541641712,0.01983754336833954,0.07591984421014786,9.026102066040039,0.43033042550086975,-3.60447359085083
1403715889119058000,-0.008091908879578114,0.02182355523109436,0.07524164766073227,9.091156005859375,0.4054533839225769,-3.661287546157837
1403715889124058000,-0.006157261319458485,0.015646755695343018,0.07784997671842575,9.09932804107666,0.38032957911491394,-3.6615312099456787
1403715889129058000,-0.005433035083115101,0.019800886511802673,0.07789717614650726,9.066910743713379,0.4460209012031555,-3.63722562789917
1403715889134058000,-0.006826561875641346,0.019774705171585083,0.0773288831114769,9.06685733795166,0.3895365595817566,-3.6043965816497803
1403715889139058000,-0.003418576903641224,0.019107818603515625,0.07791148871183395,9.107340812683105,0.3801896870136261,-3.6449925899505615
1403715889144058000,-0.003951412625610828,0.02043043076992035,0.07589532434940338,9.050583839416504,0.4212212860584259,-3.6367080211639404
1403715889149058000,-0.004874837584793568,0.02260628342628479,0.07937759906053543,9.01779842376709,0.4140733480453491,-3.6047208309173584
1403715889154058000,-0.0066436948254704475,0.02193443477153778,0.07582340389490128,9.131905555725098,0.4125160574913025,-3.6537773609161377
1403715889159058000,-0.004862648434937,0.02322007715702057,0.08073307573795319,9.050583839416504,0.42170611023902893,-3.6283302307128906
1403715889164058000,-0.007387381978332996,0.020493924617767334,0.07587485015392303,9.05033016204834,0.40577232837677,-3.629075765609741
1403715889169058000,-0.0019948603585362434,0.021923735737800598,0.07854985445737839,9.058268547058105,0.45307451486587524,-3.661444664001465
1403715889174058000,-0.006211739964783192,0.021190360188484192,0.07527526468038559,9.026352882385254,0.4218769669532776,-3.6123485565185547
1403715889179058000,-0.006750446744263172,0.024661600589752197,0.08006983250379562,8.977007865905762,0.42176276445388794,-3.5390737056732178
1403715889184058000,-0.006926161237061024,0.022573813796043396,0.07796050608158112,9.058588027954102,0.4209543466567993,-3.636942148208618
1403715889189058000,-0.004705232568085194,0.019137218594551086,0.07793904840946198,9.115628242492676,0.41297635436058044,-3.6288368701934814
1403715889194058000,-0.007479202933609486,0.01909184455871582,0.07379088550806046,9.04253101348877,0.4459724426269531,-3.580454111099243
1403715889199058000,-0.005577993579208851,0.0170639306306839,0.07446670532226562,9.050500869750977,0.37278324365615845,-3.612940549850464
1403715889204058000,-0.008142036385834217,0.01837863028049469,0.07937641441822052,9.091164588928223,0.41245120763778687,-3.6367833614349365
1403715889209058000,-0.008256864733994007,0.019744515419006348,0.07870485633611679,9.009931564331055,0.4214061498641968,-3.5877723693847656
1403715889214058000,-0.004746508784592152,0.019826740026474,0.07865288108587265,9.034096717834473,0.4459788501262665,-3.588428020477295
1403715889219058000,-0.0027925195172429085,0.016335725784301758,0.07508021593093872,9.082978248596191,0.39666521549224854,-3.6695423126220703
1403715889224058000,-0.00663758534938097,0.01972097158432007,0.07516689598560333,9.075066566467285,0.4534696936607361,-3.645139455795288
1403715889229058000,-0.007075619883835316,0.02120290696620941,0.07730422168970108,9.058453559875488,0.430273175239563,-3.6532106399536133
1403715889234058000,-0.007979911752045155,0.021877586841583252,0.07597525417804718,9.091288566589355,0.35652703046798706,-3.628744125366211
1403715889239058000,-0.008268100209534168,0.01490543782711029,0.07513976097106934,9.0669527053833,0.39640411734580994,-3.62912654876709
1403715889244058000,-0.004062187857925892,0.01766921579837799,0.07850833982229233,9.04228401184082,0.42206183075904846,-3.6450231075286865
1403715889249058000,-0.0048043252900242805,0.022582873702049255,0.07654473185539246,9.042215347290039,0.40524953603744507,-3.6534738540649414
1403715889254058000,-0.004638326354324818,0.02405121922492981,0.07802794873714447,9.09915828704834,0.41278505325317383,-3.6695752143859863
1403715889259058000,-0.002759289927780628,0.019791126251220703,0.08005852997303009,9.017617225646973,0.4947124421596527,-3.6609678268432617
1403715889264058000,-0.003994089551270008,0.020411178469657898,0.07795732468366623,9.02566909790039,0.40520864725112915,-3.62904691696167
1403715889269058000,-0.006806564517319202,0.02185221016407013,0.07862235605716705,9.050409317016602,0.38088303804397583,-3.628966808319092
1403715889274058000,-0.008272034116089344,0.01917274296283722,0.07794078439474106,8.993866920471191,0.3968828022480011,-3.579690456390381
1403715889279058000,-0.007585686631500721,0.017698705196380615,0.07526747137308121,9.042402267456055,0.3887345492839813,-3.5885751247406006
1403715889284058000,-0.003215205855667591,0.021135464310646057,0.07449837774038315,9.07503604888916,0.38082578778266907,-3.5803277492523193
1403715889289058000,-0.003475290723145008,0.01849554479122162,0.07442954927682877,9.075098037719727,0.4132722020149231,-3.6288375854492188
1403715889294058000,-0.004053336568176746,0.021306872367858887,0.07317153364419937,9.034051895141602,0.437754362821579,-3.677851676940918
1403715889299058000,-0.005340141244232655,0.020390406250953674,0.07789285480976105,9.0747652053833,0.44547009468078613,-3.645171880722046
1403715889304058000,-0.004159075208008289,0.01693679392337799,0.07443712651729584,9.091382026672363,0.42112109065055847,-3.6368184089660645
1403715889309058000,-0.002526533789932728,0.02118678390979767,0.08141923695802689,9.083097457885742,0.453507661819458,-3.6045539379119873
1403715889314058000,-0.00404773373156786,0.022638589143753052,0.07793828099966049,9.082967758178711,0.41318050026893616,-3.6045682430267334
1403715889319058000,-0.006872219033539295,0.021139532327651978,0.07584645599126816,9.123857498168945,0.4286230206489563,-3.6609818935394287
1403715889324058000,-0.003989619202911854,0.017663389444351196,0.07456058263778687,9.058623313903809,0.4298797845840454,-3.620671510696411
1403715889329058000,-0.0033034207299351692,0.022615686058998108,0.08066144585609436,9.07458782196045,0.41405609250068665,-3.6292288303375244
1403715889334058000,-0.008166682906448841,0.022674337029457092,0.07937637716531754,9.08310604095459,0.40454742312431335,-3.6365368366241455
1403715889339058000,-0.006166202016174793,0.022566765546798706,0.07863325625658035,9.066941261291504,0.461659699678421,-3.6286780834198
1403715889344058000,-0.005469840951263905,0.023861080408096313,0.08061724156141281,9.050320625305176,0.45449307560920715,-3.637110948562622
1403715889349058000,-0.004679185338318348,0.021859899163246155,0.07799997180700302,9.058408737182617,0.4127354025840759,-3.6449263095855713
1403715889354058000,-0.00406802911311388,0.01777420938014984,0.07664124667644501,9.091066360473633,0.4125105142593384,-3.628805637359619
1403715889359058000,-0.0040461840108036995,0.019088372588157654,0.07866089046001434,9.06662368774414,0.438561350107193,-3.644914150238037
1403715889364058000,-0.0026763202622532845,0.017706245183944702,0.0766708254814148,9.107341766357422,0.3888344466686249,-3.6533870697021484
1403715889369058000,-0.005382847972214222,0.019144698977470398,0.0736665278673172,9.059024810791016,0.39646223187446594,-3.629117012023926
1403715889374058000,-0.005542856641113758,0.017742395401000977,0.07301753014326096,9.050902366638184,0.43033772706985474,-3.6129133701324463
1403715889379058000,-0.005293530412018299,0.02118474245071411,0.07664232701063156,9.099227905273438,0.42156240344047546,-3.6126787662506104
1403715889384058000,-0.008992237038910389,0.01899801194667816,0.07658202946186066,9.107799530029297,0.47734755277633667,-3.628883123397827
1403715889389058000,-0.008977008052170277,0.02390618622303009,0.07647763192653656,9.058845520019531,0.470203697681427,-3.612720251083374
1403715889394058000,-0.005955439992249012,0.02192780375480652,0.07450944185256958,9.05063247680664,0.42986372113227844,-3.612766981124878
1403715889399058000,-0.007689994759857655,0.02118346095085144,0.07719279825687408,9.075017929077148,0.388712078332901,-3.6127805709838867
1403715889404058000,-0.004745584912598133,0.019737422466278076,0.07792352139949799,9.025952339172363,0.4293520152568817,-3.596632719039917
1403715889409058000,-0.007567626424133778,0.024004578590393066,0.07806999236345291,9.034311294555664,0.48639538884162903,-3.571928024291992
1403715889414058000,-0.005559009499847889,0.02057856321334839,0.07728814333677292,9.042123794555664,0.35703787207603455,-3.5965371131896973
1403715889419058000,-0.007376235909759998,0.01632903516292572,0.07437620311975479,9.091095924377441,0.40496623516082764,-3.661337375640869
1403715889424058000,-0.004960519261658192,0.020432278513908386,0.0800306648015976,9.066659927368164,0.4054422974586487,-3.5959010124206543
1403715889429058000,-0.006694299168884754,0.02121126651763916,0.08219854533672333,9.042128562927246,0.3891317546367645,-3.604496717453003
1403715889434058000,-0.006175500340759754,0.021860182285308838,0.0800827145576477,9.107254028320312,0.38799387216567993,-3.628620147705078
1403715889439058000,-0.006237936206161976,0.021141931414604187,0.0806773379445076,8.993339538574219,0.4213305115699768,-3.6044933795928955
1403715889444058000,-0.0046104611828923225,0.016973301768302917,0.08207302540540695,9.041899681091309,0.3810354769229889,-3.6372320652008057
1403715889449058000,-0.006195438094437122,0.01910117268562317,0.07804154604673386,9.0829496383667,0.44508281350135803,-3.6531929969787598
1403715889454058000,-0.0054725827649235725,0.019847407937049866,0.07666369527578354,9.058825492858887,0.4538706839084625,-3.637064218521118
1403715889459058000,-0.005335313268005848,0.02397981286048889,0.07933232933282852,9.058334350585938,0.41406282782554626,-3.620680093765259
1403715889464058000,-0.004849773831665516,0.024605244398117065,0.07795283943414688,9.091292381286621,0.36417150497436523,-3.62062668800354
1403715889469058000,-0.006650698371231556,0.021901845932006836,0.07788161188364029,9.075153350830078,0.41295328736305237,-3.628988265991211
1403715889474058000,-0.006339234299957752,0.01912185549736023,0.07451409846544266,9.042323112487793,0.4057086706161499,-3.6046507358551025
1403715889479058000,-0.005268407054245472,0.023233562707901,0.07732705771923065,9.123802185058594,0.35599255561828613,-3.628906488418579
1403715889484058000,-0.004887503571808338,0.02118946611881256,0.07791062444448471,9.07515811920166,0.4127503037452698,-3.612687826156616
1403715889489058000,-0.008109194226562977,0.01914466917514801,0.07795938104391098,9.074853897094727,0.4454405903816223,-3.6045544147491455
1403715889494058000,-0.005514425225555897,0.023288801312446594,0.07664387673139572,9.05030632019043,0.37283962965011597,-3.644972324371338
1403715889499058000,-0.007399898953735828,0.024646446108818054,0.076446533203125,9.075156211853027,0.41231074929237366,-3.6532793045043945
1403715889504058000,-0.0062139155343174934,0.017044737935066223,0.07997754216194153,9.02580451965332,0.39667341113090515,-3.6044743061065674
1403715889509058000,-0.002635967917740345,0.019784078001976013,0.08084368705749512,9.050430297851562,0.4217689037322998,-3.5800163745880127
1403715889514058000,-0.004712921567261219,0.021820560097694397,0.07797730714082718,9.082847595214844,0.3799341320991516,-3.661224365234375
1403715889519058000,-0.004088890738785267,0.01845616102218628,0.07857117801904678,9.074737548828125,0.4050705134868622,-3.628660202026367
1403715889524058000,-0.0040343524888157845,0.022575706243515015,0.07794912159442902,9.026196479797363,0.4546770751476288,-3.5883498191833496
1403715889529058000,-0.0047254981473088264,0.023888200521469116,0.07797069102525711,9.091046333312988,0.3804534077644348,-3.6209933757781982
1403715889534058000,-0.0047061862424016,0.021900668740272522,0.08146876841783524,9.050326347351074,0.4370008409023285,-3.6365392208099365
1403715889539058000,-0.005431872792541981,0.021952390670776367,0.08074196428060532,9.034290313720703,0.46258583664894104,-3.6206440925598145
1403715889544058000,-0.00344656128436327,0.017705991864204407,0.07929250597953796,9.058150291442871,0.3886586129665375,-3.6534111499786377
1403715889549058000,-0.00587309617549181,0.019035831093788147,0.07723423093557358,9.050442695617676,0.4290085434913635,-3.669116973876953
1403715889554058000,-0.0070761265233159065,0.019772320985794067,0.07733023911714554,9.066754341125488,0.4461730718612671,-3.628732919692993
1403715889559058000,-0.0038775624707341194,0.021942138671875,0.07595263421535492,9.082901954650879,0.4295170307159424,-3.6289258003234863
1403715889564058000,-0.005445701070129871,0.018423765897750854,0.07443817704916,9.08342456817627,0.3966401219367981,-3.6127099990844727
1403715889569058000,-0.0048993052914738655,0.020444199442863464,0.07512989640235901,9.075154304504395,0.4461683928966522,-3.6126859188079834
1403715889574058000,-0.004567486234009266,0.023974284529685974,0.0779290422797203,9.058618545532227,0.3976897895336151,-3.6044418811798096
1403715889579058000,-0.0055526914075016975,0.020576342940330505,0.07445038110017776,9.123856544494629,0.39614710211753845,-3.6534817218780518
1403715889584058000,-0.004668545909225941,0.017632216215133667,0.07727344334125519,9.066669464111328,0.4134594202041626,-3.636805772781372
1403715889589058000,-0.0040815891698002815,0.019671812653541565,0.0773012563586235,9.050535202026367,0.454499214887619,-3.5640313625335693
1403715889594058000,-0.004117232747375965,0.021977484226226807,0.07722046226263046,9.058611869812012,0.4043882489204407,-3.6128196716308594
1403715889599058000,-0.0011742236092686653,0.021268978714942932,0.07725439220666885,9.074992179870605,0.45396238565444946,-3.6045186519622803
1403715889604058000,-5.9378333389759064e-05,0.018367990851402283,0.07588707655668259,9.058626174926758,0.43006056547164917,-3.5803141593933105
1403715889609058000,-0.005284500308334827,0.02255609631538391,0.07999467849731445,9.066631317138672,0.42139360308647156,-3.604607343673706
1403715889614058000,-0.005428236909210682,0.02049313485622406,0.07931254804134369,9.082813262939453,0.4292372465133667,-3.6612775325775146
1403715889619058000,-0.007523071952164173,0.023955941200256348,0.07866230607032776,9.058782577514648,0.4941461384296417,-3.6206843852996826
1403715889624058000,-0.0074269892647862434,0.021128550171852112,0.07798195630311966,9.05862808227539,0.45466187596321106,-3.6046946048736572
1403715889629058000,-0.005512219853699207,0.023901358246803284,0.07654429227113724,9.066828727722168,0.42116111516952515,-3.604344129562378
1403715889634058000,-0.0054853977635502815,0.01846960186958313,0.07588443905115128,9.0834379196167,0.469631552696228,-3.5800795555114746
1403715889639058000,-0.002037149854004383,0.020603105425834656,0.07731670141220093,9.058448791503906,0.4145926237106323,-3.6292731761932373
1403715889644058000,-0.007437956519424915,0.018362194299697876,0.07724215090274811,9.074941635131836,0.3641563057899475,-3.6370434761047363
1403715889649058000,-0.007636827416718006,0.02043570578098297,0.0799899771809578,9.066689491271973,0.45290979743003845,-3.6449482440948486
1403715889654058000,-0.003923875279724598,0.022616922855377197,0.07933031022548676,9.025801658630371,0.4629570543766022,-3.6288819313049316
1403715889659058000,-0.00822825450450182,0.018424510955810547,0.07936468720436096,9.058419227600098,0.35658398270606995,-3.637021064758301
1403715889664058000,-0.007665825076401234,0.02105879783630371,0.08008527755737305,9.099346160888672,0.39639535546302795,-3.636881113052368
1403715889669058000,-0.008666438050568104,0.021172985434532166,0.07311348617076874,9.042705535888672,0.46243542432785034,-3.628950834274292
1403715889674058000,-0.004353535361588001,0.023347660899162292,0.07585787773132324,9.034095764160156,0.4216102957725525,-3.6370303630828857
1403715889679058000,-0.004530918784439564,0.021217167377471924,0.07864685356616974,9.06646728515625,0.37230369448661804,-3.6531894207000732
1403715889684058000,-0.0062757255509495735,0.01905614137649536,0.0793578177690506,9.01778793334961,0.36514756083488464,-3.6366374492645264
1403715889689058000,-0.0034615816548466682,0.023270994424819946,0.08003262430429459,9.04195499420166,0.3651221692562103,-3.61271595954895
1403715889694058000,-0.0010081948712468147,0.02194298803806305,0.0806841179728508,9.033740043640137,0.39655306935310364,-3.702084541320801
1403715889699058000,-0.0050064148381352425,0.02468717098236084,0.07938837260007858,8.968868255615234,0.4862140119075775,-3.66914701461792
1403715889704058000,-0.012041968293488026,0.017530828714370728,0.08559362590312958,9.049880981445312,0.7125564813613892,-3.6861391067504883
1403715889709058000,-0.024882446974515915,0.015463322401046753,0.08904936909675598,9.107070922851562,0.6237953901290894,-3.734206199645996
1403715889714058000,-0.03189725801348686,0.023192480206489563,0.08773017674684525,9.017989158630371,0.39764946699142456,-3.603428363800049
1403715889719058000,-0.015049022622406483,0.006550773978233337,0.09456869214773178,9.188409805297852,-0.08767881244421005,-3.644378423690796
1403715889724058000,0.01217623334378004,0.04379735887050629,0.06997109204530716,9.035929679870605,-0.6486413478851318,-3.368156909942627
1403715889729058000,0.06380154192447662,0.009567797183990479,0.058406248688697815,9.214401245117188,-0.23835545778274536,-3.5973877906799316
1403715889734058000,0.08060429990291595,0.015193372964859009,0.050933606922626495,9.001506805419922,0.6704807281494141,-3.6388912200927734
1403715889739058000,0.04641534760594368,0.03861859440803528,0.03765040263533592,8.834141731262207,1.6389826536178589,-3.621950626373291
1403715889744058000,-0.021844547241926193,-0.0015760809183120728,0.07100624591112137,9.039657592773438,2.204913377761841,-3.885352611541748
1403715889749058000,-0.10023638606071472,0.0038597583770751953,0.0817084014415741,8.87246036529541,2.010493040084839,-3.6125292778015137
1403715889754058000,-0.14014461636543274,0.01511789858341217,0.11214346438646317,9.310051918029785,0.3982032239437103,-3.7993476390838623
1403715889759058000,-0.11630885303020477,0.029936417937278748,0.09307371824979782,8.879677772521973,-0.8941850662231445,-3.4271109104156494
1403715889764058000,-0.03700115904211998,0.0013922899961471558,0.117452472448349,9.044852256774902,-1.030586838722229,-3.369838237762451
1403715889769058000,0.030061084777116776,0.018481120467185974,0.09367097169160843,9.379186630249023,-0.9026567935943604,-3.5406737327575684
1403715889774058000,0.07423888146877289,0.05509078502655029,0.06433234363794327,9.085948944091797,-0.4057854115962982,-3.3123929500579834
1403715889779058000,0.09339280426502228,-0.009393930435180664,0.06543833017349243,9.23024845123291,0.6018153429031372,-3.6415159702301025
1403715889784058000,0.08051131665706635,0.027034834027290344,0.07787872105836868,9.531573295593262,1.126368522644043,-3.874898672103882
1403715889789058000,0.023821908980607986,0.05567309260368347,0.06525905430316925,8.431763648986816,1.4445440769195557,-3.6764166355133057
1403715889794058000,-0.01855916902422905,0.008850693702697754,0.10141853988170624,9.186225891113281,1.4734106063842773,-3.7669878005981445
1403715889799058000,-0.05937577411532402,0.03405933082103729,0.09234986454248428,9.018638610839844,0.9245110750198364,-3.7244179248809814
1403715889804058000,-0.08063910901546478,0.01857474446296692,0.09666553884744644,9.116494178771973,0.7049473524093628,-3.7185583114624023
1403715889809058000,-0.08211793005466461,0.018415138125419617,0.08420006185770035,8.896435737609863,0.1861092895269394,-3.482394218444824
1403715889814058000,-0.05007081851363182,0.03207193315029144,0.08740990608930588,9.428181648254395,-0.505915641784668,-3.5346057415008545
1403715889819058000,-0.000893336720764637,0.01671011745929718,0.0697978213429451,8.540494918823242,-0.5226548910140991,-3.368241548538208
1403715889824058000,0.03589289262890816,0.029063060879707336,0.05423804372549057,9.936897277832031,-0.31409841775894165,-3.769404888153076
1403715889829058000,0.06164436414837837,0.051812946796417236,0.06021589785814285,8.602445602416992,0.19842471182346344,-3.505977153778076
1403715889834058000,0.06907229125499725,0.035164594650268555,0.054179735481739044,8.821688652038574,0.8008759617805481,-3.4836232662200928
1403715889839058000,0.04359080269932747,0.022047683596611023,0.07667674869298935,9.332085609436035,1.16629159450531,-3.8162009716033936
1403715889844058000,-0.005980950780212879,0.041757360100746155,0.06337939202785492,8.77047061920166,1.3063158988952637,-3.6028876304626465
1403715889849058000,-0.04309887811541557,6.909668445587158e-05,0.09747575968503952,8.88411808013916,0.9729542136192322,-3.636950731277466
1403715889854058000,-0.06472264230251312,0.0262766033411026,0.08998467773199081,8.99422836303711,0.6357568502426147,-3.5172336101531982
1403715889859058000,-0.06131957098841667,0.007756456732749939,0.10724427551031113,9.053659439086914,0.11787525564432144,-3.6194605827331543
1403715889864058000,-0.04371127113699913,0.013616904616355896,0.09233880043029785,9.291576385498047,-0.09907831251621246,-3.4842031002044678
1403715889869058000,-0.012740236707031727,0.03134359419345856,0.08714669942855835,9.142911911010742,-0.2978731691837311,-3.498105525970459
1403715889874058000,0.02400072291493416,0.021467894315719604,0.07154291123151779,8.922286033630371,-0.3498825430870056,-3.464695692062378
1403715889879058000,0.047797221690416336,0.021087586879730225,0.06591586023569107,9.518240928649902,0.00941102858632803,-3.802387237548828
1403715889884058000,0.05508838966488838,0.05482356250286102,0.06489516794681549,8.95484447479248,0.6918810606002808,-3.49710750579834
1403715889889058000,0.03739931061863899,0.028187334537506104,0.08123131096363068,8.927753448486328,0.8775903582572937,-3.6311028003692627
1403715889894058000,0.010566758923232555,0.031128987669944763,0.07660657167434692,8.891195297241211,1.023133397102356,-3.572265625
1403715889899058000,-0.02872411534190178,0.005769401788711548,0.0826958492398262,8.907665252685547,0.9672076106071472,-3.5551178455352783
1403715889904058000,-0.04624159261584282,0.005642816424369812,0.07188234478235245,9.235957145690918,0.41249385476112366,-3.7178122997283936
1403715889909058000,-0.03113342449069023,0.024060308933258057,0.06630093604326248,9.326787948608398,0.09715544432401657,-3.7189109325408936
1403715889914058000,-0.014045965857803822,0.011412128806114197,0.08439037948846817,8.891097068786621,0.1980976015329361,-3.5614466667175293
1403715889919058000,-0.00981516856700182,0.03349962830543518,0.09108271449804306,9.398414611816406,0.6359302997589111,-3.7261359691619873
1403715889924058000,-0.02355436608195305,0.038994625210762024,0.09463962912559509,8.921843528747559,0.9380403161048889,-3.5153164863586426
1403715889929058000,-0.04673243686556816,0.02135026454925537,0.09366096556186676,8.827048301696777,0.6174415946006775,-3.4338836669921875
1403715889934058000,-0.04845276102423668,0.017895802855491638,0.07931629568338394,8.988595008850098,-0.009586193598806858,-3.556189775466919
1403715889939058000,-0.007846486754715443,0.013221114873886108,0.06742940843105316,9.240181922912598,-0.9535902142524719,-3.6219754219055176
1403715889944058000,0.06164071336388588,0.01630444824695587,0.0654636025428772,9.234288215637207,-0.8552574515342712,-3.6127026081085205
1403715889949058000,0.11639982461929321,0.03755800426006317,0.059638071805238724,9.33334732055664,0.2985815107822418,-3.7790307998657227
1403715889954058000,0.09536807239055634,0.04004296660423279,0.07871370017528534,8.584817886352539,1.6605920791625977,-3.4874706268310547
1403715889959058000,0.01155399065464735,0.015949785709381104,0.07895477861166,9.102458953857422,2.2818636894226074,-3.8941757678985596
1403715889964058000,-0.07151927053928375,0.02632477879524231,0.07940589636564255,8.893769264221191,1.8691197633743286,-3.5554792881011963
1403715889969058000,-0.1169222742319107,-0.010362133383750916,0.09355681389570236,8.84345817565918,0.8323420882225037,-3.621626377105713
1403715889974058000,-0.1092379242181778,0.012844294309616089,0.07863891124725342,9.193209648132324,-0.29355210065841675,-3.6777899265289307
1403715889979058000,-0.05069313570857048,0.011646822094917297,0.09627990424633026,9.296180725097656,-0.9342690706253052,-3.5080225467681885
1403715889984058000,0.0010538576170802116,0.012096509337425232,0.09489436447620392,9.152247428894043,-0.5698319673538208,-3.53261661529541
1403715889989058000,0.042514968663454056,0.04012507200241089,0.07123634964227676,9.082330703735352,-0.16402898728847504,-3.4516100883483887
1403715889994058000,0.06279663741588593,0.021786868572235107,0.08570504188537598,9.092864990234375,0.1801190823316574,-3.3941190242767334
1403715889999058000,0.053192246705293655,0.004401400685310364,0.07187975198030472,8.901460647583008,0.7581401467323303,-3.794276714324951
1403715890004058000,0.03381519392132759,0.015974298119544983,0.0603475384414196,8.983386993408203,0.7581202983856201,-3.55686616897583
1403715890009058000,0.01541911344975233,0.008252263069152832,0.09031017869710922,9.261886596679688,0.9760093688964844,-3.7736780643463135
1403715890014058000,-0.021520834416151047,0.017546579241752625,0.08500771969556808,8.951576232910156,1.2037484645843506,-3.7172927856445312
1403715890019058000,-0.05017627403140068,0.027061492204666138,0.09962672740221024,9.130914688110352,0.9523667097091675,-3.5787975788116455
1403715890024058000,-0.07293874025344849,0.014807388186454773,0.10261986404657364,8.956815719604492,0.6769143342971802,-3.6284379959106445
1403715890029058000,-0.07042732834815979,0.004467412829399109,0.08156609535217285,9.010826110839844,-0.03607015311717987,-3.40255069732666
1403715890034058000,-0.033687811344861984,0.019896239042282104,0.09591814130544662,9.229598045349121,-0.4958428144454956,-3.524750232696533
1403715890039058000,0.00972034316509962,0.01671360433101654,0.07130961865186691,9.044252395629883,-0.3513709008693695,-3.5711748600006104
1403715890044058000,0.044507015496492386,0.0202520489692688,0.07023245096206665,9.390273094177246,-0.01100561860948801,-3.7368223667144775
1403715890049058000,0.06028639152646065,0.042878732085227966,0.06783978641033173,8.878661155700684,0.4959610104560852,-3.5308685302734375
1403715890054058000,0.048060107976198196,0.023770630359649658,0.06135721132159233,9.018121719360352,1.0332828760147095,-3.7445337772369385
1403715890059058000,0.011030125431716442,0.034436941146850586,0.06308332085609436,8.829345703125,0.970659077167511,-3.514455795288086
1403715890064058000,-0.016618769615888596,0.01332525908946991,0.083062082529068,8.751585006713867,1.0801974534988403,-3.620645523071289
1403715890069058000,-0.04884452745318413,0.00342753529548645,0.07845164090394974,8.992364883422852,0.7538015842437744,-3.694334030151367
1403715890074058000,-0.0547013096511364,0.012849628925323486,0.08926007896661758,9.114377975463867,0.4100560247898102,-3.6445064544677734
1403715890079058000,-0.05073932930827141,0.011975735425949097,0.08323011547327042,9.157504081726074,0.206117644906044,-3.604390859603882
1403715890084058000,-0.028591405600309372,0.02435542643070221,0.08490098267793655,9.39236831665039,-0.12054113298654556,-3.6387455463409424
1403715890089058000,-0.0007184268906712532,0.030388176441192627,0.08616934716701508,8.905235290527344,-0.17024436593055725,-3.423069477081299
1403715890094058000,0.020557571202516556,0.025327861309051514,0.07731188088655472,9.246984481811523,-0.17172250151634216,-3.5499792098999023
1403715890099058000,0.04376693442463875,0.015815094113349915,0.08321238309144974,8.91939926147461,0.178603857755661,-3.587737798690796
1403715890104058000,0.047384072095155716,0.022597432136535645,0.08277712017297745,8.9259672164917,0.771410346031189,-3.654635429382324
1403715890109058000,0.023860681802034378,0.013570338487625122,0.08744204789400101,9.072186470031738,1.0982394218444824,-3.6706881523132324
1403715890114058000,-0.022163551300764084,0.017824247479438782,0.08605268597602844,9.140401840209961,1.1873003244400024,-3.8234176635742188
1403715890119058000,-0.058009397238492966,0.01757258176803589,0.09545690566301346,9.018555641174316,0.9701139330863953,-3.6288440227508545
1403715890124058000,-0.07093644142150879,0.016778111457824707,0.09248767048120499,9.07677936553955,0.21387191116809845,-3.434460401535034
1403715890129058000,-0.03834068402647972,0.012033417820930481,0.0901711955666542,9.01174259185791,-0.6152496337890625,-3.440225124359131
1403715890134058000,0.021812964230775833,0.0008899569511413574,0.07490541785955429,9.240524291992188,-0.858486533164978,-3.475386381149292
1403715890139058000,0.07199425995349884,0.02019082009792328,0.06332507729530334,9.311753273010254,-0.20807671546936035,-3.735422134399414
1403715890144058000,0.08298127353191376,0.03047618269920349,0.03853585198521614,9.166184425354004,0.7546789646148682,-3.6314585208892822
1403715890149058000,0.04912574961781502,0.03141164779663086,0.060854967683553696,9.323009490966797,1.734204888343811,-3.9101850986480713
1403715890154058000,-0.02462814375758171,0.047359615564346313,0.061229124665260315,8.358736991882324,2.1316170692443848,-3.5508060455322266
1403715890159058000,-0.09730644524097443,0.01990950107574463,0.07713702321052551,9.03917121887207,1.359073519706726,-3.669771671295166
1403715890164058000,-0.12670288980007172,0.006322026252746582,0.10443287342786789,8.63556957244873,-0.038157232105731964,-3.505882501602173
1403715890169058000,-0.08328557014465332,0.003428146243095398,0.09606502205133438,8.888680458068848,-0.9541544318199158,-3.2890214920043945
1403715890174058000,0.00028963666409254074,-0.006344854831695557,0.09832300990819931,9.558723449707031,-1.3368990421295166,-3.5589754581451416
1403715890179058000,0.0652194619178772,0.0458066463470459,0.06570333242416382,9.338977813720703,-0.6159105896949768,-3.638704538345337
1403715890184058000,0.0915980190038681,0.023292258381843567,0.05841222405433655,8.985845565795898,0.4276869595050812,-3.591034412384033
1403715890189058000,0.07567425072193146,0.03511957824230194,0.05863714590668678,9.034914016723633,1.1227211952209473,-3.517533540725708
1403715890194058000,0.030877161771059036,0.03791727125644684,0.06741780787706375,8.985553741455078,1.2324060201644897,-3.752237319946289
1403715890199058000,-0.009349954314529896,0.014590948820114136,0.08224932104349136,8.73166275024414,1.2168769836425781,-3.7177786827087402
1403715890204058000,-0.04574958607554436,0.012732446193695068,0.0988861694931984,8.9603853225708,1.2537076473236084,-3.578253746032715
1403715890209058000,-0.08510525524616241,0.013699665665626526,0.09302042424678802,8.880101203918457,0.6907026171684265,-3.6127266883850098
1403715890214058000,-0.0809159129858017,0.00025200843811035156,0.08797787874937057,9.488958358764648,-0.05929293856024742,-3.880453109741211
1403715890219058000,-0.044642817229032516,0.02118125557899475,0.08258598297834396,9.296218872070312,-0.41394826769828796,-3.4027607440948486
1403715890224058000,-0.004248959012329578,0.042935535311698914,0.0700157955288887,9.257654190063477,-0.5241599082946777,-3.566944122314453
1403715890229058000,0.02709617093205452,0.015795931220054626,0.06453457474708557,8.905265808105469,-0.17949751019477844,-3.458017349243164
1403715890234058000,0.03989632800221443,0.037699803709983826,0.06588118523359299,8.96108341217041,0.4466012418270111,-3.4918227195739746
1403715890239058000,0.04483144357800484,0.012223079800605774,0.0829227939248085,8.689159393310547,0.51368248462677,-3.5061490535736084
1403715890244058000,0.029568571597337723,0.012268811464309692,0.06628932058811188,9.340611457824707,0.7729465961456299,-3.800489902496338
1403715890249058000,0.002382623963057995,-0.0028291940689086914,0.08058243244886398,8.894970893859863,1.0304980278015137,-3.7015984058380127
1403715890254058000,-0.02249113842844963,0.016969963908195496,0.07137489318847656,8.930428504943848,0.8053655624389648,-3.51518177986145
1403715890259058000,-0.036796968430280685,0.00042319297790527344,0.08747941255569458,9.366730690002441,0.5983371734619141,-3.7275502681732178
1403715890264058000,-0.04338807985186577,0.01528775691986084,0.09587758034467697,8.9237699508667,0.4011034071445465,-3.5632474422454834
1403715890269058000,-0.036340098828077316,0.009625628590583801,0.09478158503770828,9.145313262939453,0.101289302110672,-3.514871120452881
1403715890274058000,-0.01499126572161913,0.0047090500593185425,0.099615179002285,8.772133827209473,0.026568256318569183,-3.303384304046631
1403715890279058000,0.006771760992705822,0.012667685747146606,0.0740259662270546,9.289196014404297,-0.08557333052158356,-3.7339165210723877
1403715890284058000,0.023009885102510452,0.007710739970207214,0.060506340116262436,9.382692337036133,-0.033416762948036194,-3.694545269012451
1403715890289058000,0.03718440607190132,0.02758912742137909,0.060971714556217194,9.01166820526123,0.5046852231025696,-3.606062412261963
1403715890294058000,0.03313400223851204,0.033413782715797424,0.07024233788251877,9.017890930175781,0.5104210376739502,-3.719128370285034
1403715890299058000,0.015442597679793835,0.022501155734062195,0.07428360730409622,8.869800567626953,0.866483211517334,-3.588669538497925
1403715890304058000,-0.013481897301971912,0.013581261038780212,0.08330707997083664,8.904326438903809,0.977479875087738,-3.506537914276123
1403715890309058000,-0.034874361008405685,0.020120158791542053,0.07691782712936401,9.147150039672852,0.6495307683944702,-3.710310935974121
1403715890314058000,-0.03875206038355827,0.010499179363250732,0.08178407698869705,8.773294448852539,0.14807745814323425,-3.536912679672241
1403715890319058000,-0.02405713126063347,0.0031591206789016724,0.057670485228300095,9.287853240966797,-0.04863994941115379,-3.5904414653778076
1403715890324058000,0.005294728092849255,0.016963303089141846,0.06631556153297424,9.108183860778809,0.2395249456167221,-3.67799973487854
1403715890329058000,0.01189719419926405,0.019050121307373047,0.06684804707765579,9.223472595214844,0.6145358085632324,-3.612330436706543
1403715890334058000,-0.010672462172806263,0.031185626983642578,0.07739350199699402,9.20745849609375,0.9425421953201294,-3.694739818572998
1403715890339058000,-0.049998801201581955,0.036044493317604065,0.09200304001569748,8.808015823364258,1.1576660871505737,-3.6788272857666016
1403715890344058000,-0.0720619261264801,0.02214314043521881,0.10159804672002792,8.928031921386719,0.47562527656555176,-3.3679392337799072
1403715890349058000,-0.05042010173201561,0.02553488314151764,0.11199245601892471,9.205348014831543,-0.6055427193641663,-3.6122210025787354
1403715890354058000,0.005561756901443005,0.03185999393463135,0.0889873206615448,8.978107452392578,-0.9378278255462646,-3.4489905834198
1403715890359058000,0.07375219464302063,-0.0052969008684158325,0.07730434834957123,9.007048606872559,-0.9743995070457458,-3.3204402923583984
1403715890364058000,0.12140460312366486,0.04081465303897858,0.0701763778924942,9.338225364685059,0.08161945641040802,-3.5009572505950928
1403715890369058000,0.0951000303030014,0.009829431772232056,0.05762109160423279,8.797971725463867,1.925269603729248,-3.852900981903076
1403715890374058000,0.014893370680510998,0.014455556869506836,0.062391605228185654,9.343859672546387,2.470637321472168,-3.95369815826416
1403715890379058000,-0.0783996731042862,0.01668711006641388,0.09105368703603745,8.349010467529297,1.8446093797683716,-3.456310272216797
1403715890384058000,-0.12538380920886993,0.0003259629011154175,0.1055145338177681,9.147154808044434,0.4427720010280609,-3.6443934440612793
1403715890389058000,-0.09505361318588257,0.010743945837020874,0.10352958738803864,9.293457984924316,-0.9114935994148254,-3.477402925491333
1403715890394058000,-0.033595290035009384,0.005849123001098633,0.07269719988107681,8.957405090332031,-0.9865853786468506,-3.3460731506347656
1403715890399058000,0.031367529183626175,0.007760152220726013,0.05217043682932854,9.436388969421387,-0.7554974555969238,-3.630638837814331
1403715890404058000,0.08221539855003357,0.03596143424510956,0.05298366770148277,9.289719581604004,-0.20654630661010742,-3.585054636001587
1403715890409058000,0.08439619839191437,0.014430999755859375,0.038106899708509445,8.733845710754395,0.5812947750091553,-3.5586283206939697
1403715890414058000,0.0684443861246109,0.028568938374519348,0.055065009742975235,9.081439018249512,1.1673340797424316,-3.6611037254333496
1403715890419058000,0.030541229993104935,0.012023821473121643,0.09056349098682404,8.663857460021973,1.3794862031936646,-3.7514524459838867
1403715890424058000,-0.023934584110975266,0.0016184896230697632,0.07861544191837311,8.9121732711792,1.3653907775878906,-3.718526840209961
1403715890429058000,-0.06200922653079033,-0.00276397168636322,0.08866386115550995,9.139060974121094,1.0101397037506104,-3.5946907997131348
1403715890434058000,-0.08792343735694885,0.00933106243610382,0.0830397754907608,9.248435020446777,0.529893159866333,-3.8255765438079834
1403715890439058000,-0.0793696790933609,0.0015583783388137817,0.08789444714784622,9.019309043884277,-0.16092289984226227,-3.5787320137023926
1403715890444058000,-0.044668685644865036,0.023747533559799194,0.08567673712968826,9.400169372558594,-0.35073360800743103,-3.623063802719116
1403715890449058000,-0.009963941760361195,0.023561954498291016,0.0834542065858841,8.915759086608887,-0.29308247566223145,-3.581267833709717
1403715890454058000,0.0329148955643177,0.026414453983306885,0.0902046412229538,9.017827033996582,-0.2906370162963867,-3.4419052600860596
1403715890459058000,0.0612541027367115,0.027892187237739563,0.08581134676933289,9.161311149597168,-0.008561637252569199,-3.612948179244995
1403715890464058000,0.0575406439602375,0.024274975061416626,0.04909186810255051,9.027392387390137,0.5426206588745117,-3.6782445907592773
1403715890469058000,0.04677234962582588,0.013858214020729065,0.05353926867246628,9.04000473022461,0.848422646522522,-3.6866071224212646
1403715890474058000,0.02110930159687996,0.025868892669677734,0.06063171103596687,9.248642921447754,1.1634517908096313,-3.702895164489746
1403715890479058000,-0.019162338227033615,0.030661851167678833,0.07376440614461899,8.899231910705566,1.2858672142028809,-3.734915256500244
1403715890484058000,-0.05997396633028984,0.025877773761749268,0.08916981518268585,9.064156532287598,1.0027735233306885,-3.6300530433654785
1403715890489058000,-0.08163279294967651,0.021184414625167847,0.10379224270582199,8.776590347290039,0.42370206117630005,-3.5056960582733154
1403715890494058000,-0.06626498699188232,0.009690314531326294,0.09338011592626572,8.969734191894531,-0.1993165910243988,-3.3785526752471924
1403715890499058000,-0.029449891299009323,0.011837601661682129,0.0743650570511818,9.35635757446289,-0.4689943492412567,-3.6211273670196533
1403715890504058000,0.012069213204085827,0.018456175923347473,0.0656409040093422,9.095233917236328,-0.4470007121562958,-3.6981325149536133
1403715890509058000,0.047114718705415726,0.019805818796157837,0.06907442957162857,8.953185081481934,-0.1481948047876358,-3.5000100135803223
1403715890514058000,0.058605629950761795,0.025631263852119446,0.06719179451465607,9.392008781433105,0.6187946796417236,-3.8516414165496826
1403715890519058000,0.026268262416124344,0.032197028398513794,0.07683903723955154,8.726838111877441,1.1717153787612915,-3.5877466201782227
1403715890524058000,-0.007693243212997913,0.01939716935157776,0.08440087735652924,8.948963165283203,1.1592671871185303,-3.6534862518310547
1403715890529058000,-0.031029146164655685,0.02660110592842102,0.08271686732769012,9.107630729675293,0.3299390971660614,-3.4333691596984863
1403715890534058000,-0.023200523108243942,0.004230111837387085,0.07634737342596054,8.833381652832031,-0.15323084592819214,-3.44842267036438
1403715890539058000,0.0023949025198817253,0.00845937430858612,0.06896213442087173,9.430900573730469,-0.09790246933698654,-3.709644079208374
1403715890544058000,0.023848462849855423,0.006145313382148743,0.06692539900541306,8.939398765563965,0.5862752795219421,-3.558051347732544
1403715890549058000,0.007343637757003307,0.013877257704734802,0.07277203351259232,9.282370567321777,1.2132136821746826,-3.8674662113189697
1403715890554058000,-0.035645198076963425,0.023930132389068604,0.08037460595369339,9.263453483581543,1.430271863937378,-3.678365707397461
1403715890559058000,-0.07837226986885071,0.01675206422805786,0.09138108044862747,8.827168464660645,1.0665007829666138,-3.597961902618408
1403715890564058000,-0.08407381176948547,0.02638213336467743,0.0861210972070694,9.171128273010254,0.03776068612933159,-3.5707762241363525
1403715890569058000,-0.04350052401423454,0.012336164712905884,0.08368627727031708,8.84672737121582,-0.8882206678390503,-3.352386951446533
1403715890574058000,0.014711576513946056,0.008373960852622986,0.07580769062042236,8.899194717407227,-0.7263966202735901,-3.3930675983428955
1403715890579058000,0.05496527627110481,0.012802064418792725,0.05420129373669624,9.352548599243164,-0.1781689077615738,-3.565654754638672
1403715890584058000,0.06739349663257599,0.01604163646697998,0.05847880616784096,9.028010368347168,0.7113105654716492,-3.714054822921753
1403715890589058000,0.048219818621873856,0.025602981448173523,0.059844110161066055,8.855870246887207,1.1203449964523315,-3.6964006423950195
1403715890594058000,0.012599336914718151,0.021274924278259277,0.051724791526794434,9.246854782104492,1.4048130512237549,-3.7849855422973633
1403715890599058000,-0.04335815832018852,0.016450583934783936,0.08140423148870468,8.946098327636719,1.1535195112228394,-3.7021923065185547
1403715890604058000,-0.060522373765707016,0.03192901611328125,0.08355608582496643,8.880133628845215,0.46243658661842346,-3.5215108394622803
1403715890609058000,-0.05452033504843712,0.004319250583648682,0.08778335899114609,8.918036460876465,0.15865276753902435,-3.441744327545166
1403715890614058000,-0.04401911422610283,0.008510291576385498,0.06959667056798935,9.012301445007324,0.0718374028801918,-3.653599500656128
1403715890619058000,-0.01651759073138237,0.012698784470558167,0.0696186050772667,9.377581596374512,-0.1670456975698471,-3.7675821781158447
1403715890624058000,0.010906028561294079,0.020234256982803345,0.0652475655078888,8.961612701416016,-0.1717105209827423,-3.6639747619628906
1403715890629058000,0.026433486491441727,0.03628620505332947,0.04890546575188637,9.150711059570312,0.1735219657421112,-3.6866745948791504
1403715890634058000,0.03322039917111397,0.036589205265045166,0.06951553374528885,9.145861625671387,0.5584440231323242,-3.7097935676574707
1403715890639058000,0.02553512528538704,0.0376502126455307,0.08638811856508255,8.787619590759277,0.6269190311431885,-3.6106746196746826
1403715890644058000,0.014016824774444103,0.03488360345363617,0.0812249407172203,8.748558044433594,0.6788188219070435,-3.4567043781280518
1403715890649058000,-0.009713483043015003,0.00984218716621399,0.08362669497728348,8.852775573730469,0.8502205610275269,-3.466878890991211
1403715890654058000,-0.026903163641691208,0.010417789220809937,0.0837542936205864,9.303828239440918,0.54756760597229,-3.7411279678344727
1403715890659058000,-0.02863244339823723,0.02190914750099182,0.08340328931808472,9.124587059020996,0.3525167405605316,-3.6545093059539795
1403715890664058000,-0.026531796902418137,0.021071940660476685,0.0767015740275383,9.14048957824707,0.34638574719429016,-3.57405686378479
1403715890669058000,-0.02490515634417534,0.033803269267082214,0.08422938734292984,9.394732475280762,0.27130547165870667,-3.588286876678467
1403715890674058000,-0.013425451703369617,0.03711335361003876,0.08770950883626938,9.040495872497559,0.20051470398902893,-3.6521143913269043
1403715890679058000,0.006823974661529064,0.035563692450523376,0.08065835386514664,8.88606071472168,0.03438619151711464,-3.463916063308716
1403715890684058000,0.019220728427171707,0.030201435089111328,0.06708890944719315,9.052122116088867,0.18209576606750488,-3.5232324600219727
1403715890689058000,0.023704785853624344,0.012184306979179382,0.0597258098423481,9.0492525100708,0.4471745491027832,-3.654219627380371
1403715890694058000,0.024112898856401443,0.010502785444259644,0.06118128076195717,8.993288040161133,0.6348894238471985,-3.654625654220581
1403715890699058000,0.0042698560282588005,0.015731990337371826,0.059155065566301346,9.077733993530273,0.8795433640480042,-3.678934335708618
1403715890704058000,-0.02671290561556816,0.010309621691703796,0.07036092877388,9.173763275146484,0.8799139857292175,-3.6626572608947754
1403715890709058000,-0.04008908197283745,0.017469197511672974,0.07968692481517792,9.010320663452148,0.7626934051513672,-3.685523271560669
1403715890714058000,-0.03729800507426262,0.027995556592941284,0.0819375291466713,9.188536643981934,0.17739179730415344,-3.4889614582061768
1403715890719058000,-0.018551211804151535,0.02024894952774048,0.07338450103998184,9.043373107910156,-0.23141340911388397,-3.4575164318084717
1403715890724058000,0.007182198576629162,0.014017537236213684,0.057560309767723083,9.14120101928711,-0.016507789492607117,-3.5808401107788086
1403715890729058000,0.02183963730931282,0.023133039474487305,0.06832157075405121,8.94329833984375,0.374764621257782,-3.5483646392822266
1403715890734058000,0.00882654171437025,0.01179032027721405,0.06478911638259888,9.01152229309082,1.0365054607391357,-3.810781478881836
1403715890739058000,-0.02489645406603813,0.01902906596660614,0.07656916230916977,8.971626281738281,1.1394418478012085,-3.6555116176605225
1403715890744058000,-0.05107228085398674,0.021220996975898743,0.09907803684473038,9.139178276062012,0.7607964873313904,-3.8563435077667236
1403715890749058000,-0.0528082512319088,0.03624023497104645,0.10565707087516785,8.855457305908203,-0.1668938249349594,-3.203688383102417
1403715890754058000,-0.013178062625229359,-0.0013209730386734009,0.0838407576084137,9.198585510253906,-1.072771668434143,-3.435401678085327
1403715890759058000,0.06897686421871185,0.04011842608451843,0.07460880279541016,9.304137229919434,-0.5835797786712646,-3.676772117614746
1403715890764058000,0.09577171504497528,0.010902151465415955,0.06609545648097992,8.6826753616333,0.5428458452224731,-3.2823538780212402
1403715890769058000,0.060977447777986526,0.021379172801971436,0.05803656578063965,9.460185050964355,1.4257639646530151,-3.985200881958008
1403715890774058000,0.0023435531184077263,0.020938530564308167,0.06574229151010513,8.642529487609863,2.046945810317993,-3.537508010864258
1403715890779058000,-0.06106449291110039,-0.003948584198951721,0.06804604828357697,9.224550247192383,1.512834906578064,-3.8199470043182373
1403715890784058000,-0.08636647462844849,0.057873085141181946,0.0941782295703888,9.318241119384766,0.5304194688796997,-3.7322511672973633
1403715890789058000,-0.08148367702960968,0.008810624480247498,0.06809540838003159,8.979497909545898,-0.17947238683700562,-3.586411237716675
1403715890794058000,-0.035363417118787766,0.03608478605747223,0.0810699611902237,9.040693283081055,-0.5328195691108704,-3.417665958404541
1403715890799058000,0.0019549010321497917,0.045287758111953735,0.0709318220615387,8.92210578918457,-0.036356665194034576,-3.3126940727233887
1403715890804058000,0.02321203425526619,0.006194949150085449,0.06898455321788788,9.41893196105957,0.140107661485672,-3.833207607269287
1403715890809058000,0.03160177543759346,0.03947716951370239,0.0773063600063324,8.813163757324219,0.42977434396743774,-3.4917502403259277
1403715890814058000,0.026205260306596756,0.024793162941932678,0.06207362189888954,9.043325424194336,0.6191942095756531,-3.7696077823638916
1403715890819058000,0.0187159962952137,0.021383658051490784,0.07070127129554749,9.057487487792969,0.5477758646011353,-3.6611196994781494
1403715890824058000,0.012241560034453869,0.040435537695884705,0.08265914022922516,9.056722640991211,0.914700448513031,-3.7407846450805664
1403715890829058000,-0.01182932872325182,0.02832593023777008,0.07970602810382843,9.066155433654785,0.8078349232673645,-3.6190428733825684
1403715890834058000,-0.03295774385333061,0.019179359078407288,0.09406376630067825,8.985956192016602,0.7737932801246643,-3.5469822883605957
1403715890839058000,-0.04988263174891472,0.04380306601524353,0.09586507827043533,8.855381965637207,0.6770150661468506,-3.5322675704956055
1403715890844058000,-0.043394070118665695,0.0055503249168396,0.10410929471254349,9.010139465332031,0.06847838312387466,-3.563875436782837
1403715890849058000,-0.02175081893801689,0.02829359471797943,0.10193879902362823,9.206154823303223,-0.10210029035806656,-3.4345667362213135
1403715890854058000,-0.002808821387588978,0.026908129453659058,0.06999974697828293,9.09010124206543,0.042976342141628265,-3.7133262157440186
