#timestamp [ns],w_RS_S_x [rad s^-1],w_RS_S_y [rad s^-1],w_RS_S_z [rad s^-1],a_RS_S_x [m s^-2],a_RS_S_y [m s^-2],a_RS_S_z [m s^-2]
1403715886544058000,-0.0020943951023931952,0.01884955592153876,0.07609635538695278,9.062979041666667,0.4494714583333333,-3.6529771249999996
1403715886549058000,-0.003490658503988659,0.021642082724729686,0.07609635538695278,9.062979041666667,0.416782625,-3.6366327083333334
1403715886554058000,-0.0027925268031909274,0.01884955592153876,0.0767944870877505,9.062979041666667,0.367749375,-3.6611493333333334
1403715886559058000,0.0006981317007977319,0.016057029118347832,0.07958701389094143,9.054806833333332,0.4004382083333333,-3.6202882916666663
1403715886564058000,-0.0013962634015954637,0.01884955592153876,0.07749261878854824,9.062979041666667,0.367749375,-3.6121160833333334
1403715886569058000,-0.0006981317007977319,0.013962634015954637,0.07749261878854824,9.095667875,0.40861041666666664,-3.6284604999999996
1403715886574058000,-0.0020943951023931952,0.013962634015954637,0.07749261878854824,9.079323458333333,0.392266,-3.6121160833333334
1403715886579058000,-0.0020943951023931952,0.0153588974175501,0.07609635538695278,9.062979041666667,0.40861041666666664,-3.6202882916666663
1403715886584058000,-0.0020943951023931952,0.012566370614359173,0.07819075048934597,9.054806833333332,0.40861041666666664,-3.6529771249999996
1403715886589058000,-0.0006981317007977319,0.01815142422074103,0.07819075048934597,9.046634625,0.392266,-3.6448049166666663
1403715886594058000,-0.0020943951023931952,0.01815142422074103,0.07609635538695278,9.112012291666666,0.4739880833333333,-3.693838166666666
1403715886599058000,-0.003490658503988659,0.01815142422074103,0.07749261878854824,9.062979041666667,0.416782625,-3.6448049166666663
1403715886604058000,-0.006283185307179587,0.020943951023931952,0.07749261878854824,9.07115125,0.392266,-3.6039438749999997
1403715886609058000,-0.004886921905584123,0.016755160819145562,0.07330382858376185,9.144701125,0.40861041666666664,-3.6284604999999996
1403715886614058000,-0.0041887902047863905,0.01884955592153876,0.07120943348136866,9.103840083333333,0.4494714583333333,-3.6448049166666663
1403715886619058000,-0.004886921905584123,0.02024581932313422,0.07749261878854824,9.103840083333333,0.40861041666666664,-3.6611493333333334
1403715886624058000,-0.0020943951023931952,0.01884955592153876,0.07539822368615504,9.112012291666666,0.40861041666666664,-3.6448049166666663
1403715886629058000,-0.0020943951023931952,0.016057029118347832,0.07539822368615504,9.062979041666667,0.3840937916666667,-3.6529771249999996
1403715886634058000,-0.0013962634015954637,0.016755160819145562,0.07400196028455958,9.079323458333333,0.3759215833333333,-3.6856659583333333
1403715886639058000,0.0,0.01815142422074103,0.07888888219014369,9.030290208333332,0.40861041666666664,-3.6611493333333334
1403715886644058000,-0.0020943951023931952,0.02024581932313422,0.07819075048934597,9.022118,0.43312704166666666,-3.6284604999999996
1403715886649058000,-0.003490658503988659,0.019547687622336492,0.08098327729253688,9.087495666666666,0.43312704166666666,-3.6448049166666663
1403715886654058000,-0.0013962634015954637,0.020943951023931952,0.08098327729253688,9.087495666666666,0.416782625,-3.6284604999999996
1403715886659058000,0.0006981317007977319,0.02234021442552742,0.08028514559173915,9.054806833333332,0.3840937916666667,-3.6448049166666663
1403715886664058000,-0.0041887902047863905,0.02024581932313422,0.07749261878854824,9.087495666666666,0.3840937916666667,-3.6693215416666662
1403715886669058000,-0.0020943951023931952,0.020943951023931952,0.07958701389094143,9.095667875,0.392266,-3.6202882916666663
1403715886674058000,-0.0020943951023931952,0.02024581932313422,0.07609635538695278,9.1201845,0.3840937916666667,-3.6366327083333334
1403715886679058000,-0.004886921905584123,0.016057029118347832,0.07819075048934597,9.087495666666666,0.392266,-3.6202882916666663
1403715886684058000,-0.003490658503988659,0.019547687622336492,0.07819075048934597,9.038462416666666,0.3840937916666667,-3.6202882916666663
1403715886689058000,-0.0036502406001091003,0.01977943442761898,0.07647797465324402,9.073811531066895,0.4164265990257263,-3.664475202560425
1403715886694058000,-0.0015645697712898254,0.01908671110868454,0.07787053287029266,9.065667152404785,0.4245668947696686,-3.6563408374786377
1403715886699058000,-0.0036422088742256165,0.022546399384737015,0.07300031185150146,9.073756217956543,0.3593072295188904,-3.63175368309021
1403715886704058000,-0.00225173681974411,0.020485930144786835,0.07438886165618896,9.098368644714355,0.4408910274505615,-3.656362295150757
1403715886709058000,-0.0015651211142539978,0.01630256325006485,0.07646822929382324,9.073902130126953,0.4326906204223633,-3.656400442123413
1403715886714058000,-0.0022561028599739075,0.019755760207772255,0.07438497245311737,9.057422637939453,0.35114750266075134,-3.648092269897461
1403715886719058000,-0.002243451774120331,0.0218823105096817,0.07578466832637787,9.14733600616455,0.4572351276874542,-3.7053372859954834
1403715886724058000,-0.0015611127018928528,0.019069872796535492,0.07717038691043854,9.073769569396973,0.3837915062904358,-3.680779457092285
1403715886729058000,-0.0036359503865242004,0.022541314363479614,0.0771813839673996,9.1145658493042,0.35110706090927124,-3.6644110679626465
1403715886734058000,-0.0008586272597312927,0.016988977789878845,0.07856093347072601,9.11471939086914,0.40815383195877075,-3.6645634174346924
1403715886739058000,-0.001553080976009369,0.021161654964089394,0.07857334613800049,9.098295211791992,0.38372454047203064,-3.648143768310547
1403715886744058000,-0.0022415444254875183,0.02324533462524414,0.07927677035331726,9.122770309448242,0.3673725426197052,-3.639955520629883
1403715886749058000,0.0005236789584159851,0.019782137125730515,0.0799647867679596,9.05749225616455,0.41638636589050293,-3.6400132179260254
1403715886754058000,-0.0015622451901435852,0.023267924785614014,0.07718490064144135,9.057429313659668,0.42464151978492737,-3.6562700271606445
1403715886759058000,-0.002963237464427948,0.021182380616664886,0.07787559926509857,9.041098594665527,0.4409925639629364,-3.680767059326172
1403715886764058000,-0.00017445534467697144,0.021878937259316444,0.07787919044494629,9.041131019592285,0.4327791929244995,-3.6399781703948975
1403715886769058000,-0.002260468900203705,0.02047085389494896,0.07508479058742523,9.049275398254395,0.40014979243278503,-3.656278371810913
1403715886774058000,-0.002946816384792328,0.02186661958694458,0.07369419932365417,9.090121269226074,0.40829601883888245,-3.664454221725464
1403715886779058000,-0.00363796204328537,0.02255883254110813,0.07369916141033173,9.098318099975586,0.391904354095459,-3.623654365539551
1403715886784058000,-0.002247355878353119,0.021172067150473595,0.07509027421474457,9.098367691040039,0.40818503499031067,-3.6155402660369873
1403715886789058000,-0.004349373281002045,0.019083403050899506,0.07508265972137451,9.057498931884766,0.4164259433746338,-3.648157835006714
1403715886794058000,0.001218639314174652,0.01699126325547695,0.07786345481872559,9.057525634765625,0.40822088718414307,-3.6482033729553223
1403715886799058000,-0.0015578940510749817,0.018371470272541046,0.07717062532901764,9.081985473632812,0.3755585551261902,-3.6481611728668213
1403715886804058000,-0.0015603527426719666,0.017699342221021652,0.07717069983482361,9.090245246887207,0.44083231687545776,-3.6482465267181396
1403715886809058000,-0.0029469653964042664,0.020471474155783653,0.07578431069850922,9.09017562866211,0.40004444122314453,-3.631843090057373
1403715886814058000,-0.0015533491969108582,0.01907789707183838,0.07578003406524658,9.098377227783203,0.4000176191329956,-3.6318769454956055
1403715886819058000,-0.002950124442577362,0.018381068482995033,0.07508139312267303,9.082038879394531,0.40003302693367004,-3.6318676471710205
1403715886824058000,-0.0008616223931312561,0.020450392737984657,0.07507990300655365,9.073705673217773,0.35119906067848206,-3.6970438957214355
1403715886829058000,-0.004340954124927521,0.01839684695005417,0.07996150851249695,9.122891426086426,0.44897371530532837,-3.6727325916290283
1403715886834058000,-0.005037538707256317,0.018383514136075974,0.07508273422718048,9.09022045135498,0.40817975997924805,-3.631878137588501
1403715886839058000,-0.0029475167393684387,0.02394571341574192,0.07648931443691254,9.073722839355469,0.3756520748138428,-3.648064374923706
1403715886844058000,-0.00016777962446212769,0.019075294956564903,0.07926483452320099,9.073824882507324,0.39187389612197876,-3.640009880065918
1403715886849058000,-0.0029575899243354797,0.017685726284980774,0.0764710009098053,9.065654754638672,0.40826278924942017,-3.672654151916504
1403715886854058000,-0.0036491528153419495,0.021191813051700592,0.07439213991165161,9.082036018371582,0.4654044210910797,-3.656358242034912
1403715886859058000,-0.003647245466709137,0.021176429465413094,0.07578559219837189,9.081981658935547,0.4245905578136444,-3.6563174724578857
1403715886864058000,-0.005032293498516083,0.020468086004257202,0.07369391620159149,9.098353385925293,0.391878217458725,-3.6236793994903564
1403715886869058000,-0.005738802254199982,0.01697927713394165,0.07786507904529572,9.081986427307129,0.3837207555770874,-3.664489269256592
1403715886874058000,-0.002258487045764923,0.016980059444904327,0.07716593146324158,9.073822975158691,0.3837391436100006,-3.664494037628174
1403715886879058000,-0.0036552324891090393,0.01907770335674286,0.07438519597053528,9.041145324707031,0.40011706948280334,-3.639972448348999
1403715886884058000,-0.0022562071681022644,0.017009319737553596,0.07786819338798523,9.098465919494629,0.457100510597229,-3.6319711208343506
1403715886889058000,-0.00017074495553970337,0.019087787717580795,0.07717356085777283,9.065691947937012,0.4245503842830658,-3.6400349140167236
1403715886894058000,-0.004343502223491669,0.020463459193706512,0.07508447766304016,9.073769569396973,0.3838018774986267,-3.664431571960449
1403715886899058000,-0.00016761571168899536,0.01768719032406807,0.07298468053340912,9.073875427246094,0.40824079513549805,-3.6482009887695312
1403715886904058000,0.000521637499332428,0.019090820103883743,0.07577809691429138,9.04935073852539,0.43275895714759827,-3.6481852531433105
1403715886909058000,0.0005315318703651428,0.01490589790046215,0.07646419107913971,9.106629371643066,0.4244559705257416,-3.6482973098754883
1403715886914058000,-0.0022524669766426086,0.017682965844869614,0.07647177577018738,9.09836483001709,0.4000322222709656,-3.6563663482666016
1403715886919058000,0.0012210533022880554,0.017679503187537193,0.07647204399108887,9.049349784851074,0.3837270438671112,-3.623692750930786
1403715886924058000,-0.0029475316405296326,0.016289405524730682,0.07646910846233368,9.106571197509766,0.3999863862991333,-3.6482365131378174
1403715886929058000,-0.003652341663837433,0.01699802279472351,0.0778653621673584,9.082049369812012,0.43269163370132446,-3.6645452976226807
1403715886934058000,0.0005250796675682068,0.01836874522268772,0.07577477395534515,9.049291610717773,0.36745357513427734,-3.6481332778930664
1403715886939058000,-0.0008612796664237976,0.018373465165495872,0.07438004016876221,9.081987380981445,0.3837679922580719,-3.6644856929779053
1403715886944058000,-0.0036546364426612854,0.01697225123643875,0.07647237181663513,9.041147232055664,0.35923677682876587,-3.6236519813537598
1403715886949058000,-0.004338003695011139,0.0176704078912735,0.07368358969688416,9.098345756530762,0.3673844337463379,-3.64816951751709
1403715886954058000,-0.0050360336899757385,0.021869217976927757,0.07439310848712921,9.090139389038086,0.41642826795578003,-3.656296968460083
1403715886959058000,-0.005052872002124786,0.01698819175362587,0.0764697939157486,9.041143417358398,0.4082816243171692,-3.6726343631744385
1403715886964058000,-0.002958916127681732,0.019075907766819,0.0778685063123703,9.057435035705566,0.4001292884349823,-3.680774211883545
1403715886969058000,-0.0015612617135047913,0.022576162591576576,0.0806686133146286,9.081944465637207,0.4409206509590149,-3.6726348400115967
1403715886974058000,-0.0022460445761680603,0.019777722656726837,0.07648055255413055,9.114724159240723,0.4081433415412903,-3.6237330436706543
1403715886979058000,-0.0008612796664237976,0.015596508979797363,0.07576920092105865,9.09842300415039,0.4081580936908722,-3.64825701713562
1403715886984058000,-0.004344351589679718,0.01838703453540802,0.07647719979286194,9.082048416137695,0.41634634137153625,-3.631880521774292
1403715886989058000,-0.003643132746219635,0.01907746121287346,0.077175572514534,9.098366737365723,0.40000638365745544,-3.631871223449707
1403715886994058000,-0.003643803298473358,0.019091255962848663,0.07787153124809265,9.114715576171875,0.4408392310142517,-3.664550542831421
1403715886999058000,-0.0022582635283470154,0.02257297746837139,0.07927419245243073,9.07376766204834,0.4327864944934845,-3.672614574432373
1403715887004058000,-0.004336453974246979,0.020460261031985283,0.07647933065891266,9.106451988220215,0.3755859136581421,-3.664454221725464
1403715887009058000,-0.0022469833493232727,0.017700033262372017,0.07577471435070038,9.139260292053223,0.44899189472198486,-3.680922031402588
1403715887014058000,-0.000851847231388092,0.021883312612771988,0.07439391314983368,9.122902870178223,0.44901546835899353,-3.640066385269165
1403715887019058000,0.0005353465676307678,0.02187504805624485,0.07718133926391602,9.098346710205078,0.42454850673675537,-3.6400256156921387
1403715887024058000,-0.0015595629811286926,0.018390225246548653,0.07856661081314087,9.09021282196045,0.4245138168334961,-3.648219585418701
1403715887029058000,-0.003651432693004608,0.02117040753364563,0.07578475773334503,9.05744743347168,0.40830790996551514,-3.656277656555176
1403715887034058000,-0.0057366713881492615,0.02324979193508625,0.07509177923202515,9.06552791595459,0.3838767111301422,-3.6806912422180176
1403715887039058000,-0.003650657832622528,0.017003916203975677,0.07437878847122192,9.090239524841309,0.4490448832511902,-3.672727346420288
1403715887044058000,0.0026209428906440735,0.021169159561395645,0.0771770179271698,9.081975936889648,0.40008604526519775,-3.6481618881225586
1403715887049058000,0.0019220635294914246,0.022569522261619568,0.07648468017578125,9.065630912780762,0.41644522547721863,-3.639981746673584
1403715887054058000,0.0019172504544258118,0.01908087357878685,0.07926750183105469,9.049359321594238,0.4000064730644226,-3.5992238521575928
1403715887059058000,-0.0008654817938804626,0.021158142015337944,0.08066293597221375,9.065550804138184,0.3756338953971863,-3.6725783348083496
1403715887064058000,-0.002258293330669403,0.017678890377283096,0.0722854882478714,9.065642356872559,0.3919796347618103,-3.6807940006256104
1403715887069058000,-0.0022596344351768494,0.019081681966781616,0.08066239953041077,9.065674781799316,0.408172607421875,-3.623699188232422
1403715887074058000,-0.0057269856333732605,0.023258185014128685,0.07579024136066437,9.11458969116211,0.4082840383052826,-3.6807572841644287
1403715887079058000,-0.0050391629338264465,0.017707932740449905,0.07647700607776642,9.1066255569458,0.4652814567089081,-3.6401219367980957
1403715887084058000,-0.00364810973405838,0.019070684909820557,0.07508617639541626,9.057522773742676,0.3755267858505249,-3.5910284519195557
1403715887089058000,-0.006429798901081085,0.018385108560323715,0.07438425719738007,9.098368644714355,0.4163799285888672,-3.656353712081909
1403715887094058000,-0.0008516833186149597,0.01908877119421959,0.07717327773571014,9.139246940612793,0.4326350688934326,-3.6564173698425293
1403715887099058000,-0.0008664652705192566,0.019091583788394928,0.07647822797298431,9.065723419189453,0.43269333243370056,-3.6237285137176514
1403715887104058000,-0.002246461808681488,0.0225576963275671,0.07299850881099701,9.098287582397461,0.39196231961250305,-3.656280040740967
1403715887109058000,-0.003643907606601715,0.016996800899505615,0.07717105746269226,9.106613159179688,0.4244394898414612,-3.623779773712158
1403715887114058000,-0.0015492066740989685,0.021171260625123978,0.07718051970005035,9.11469554901123,0.4081748127937317,-3.6318671703338623
1403715887119058000,-0.004335276782512665,0.018383771181106567,0.07508291304111481,9.114752769470215,0.40813887119293213,-3.6237435340881348
1403715887124058000,-0.004347957670688629,0.02047852799296379,0.07787851989269257,9.057507514953613,0.41637447476387024,-3.615511655807495
1403715887129058000,-0.002958826720714569,0.020473580807447433,0.07717625796794891,9.049273490905762,0.40830981731414795,-3.664435625076294
1403715887134058000,-0.0015674605965614319,0.014918386936187744,0.07925482094287872,9.082120895385742,0.4571283161640167,-3.65645694732666
1403715887139058000,-0.0008676722645759583,0.017697125673294067,0.07856516540050507,9.073892593383789,0.4326729476451874,-3.6400692462921143
1403715887144058000,-0.0043512508273124695,0.01976766437292099,0.07647866010665894,9.041097640991211,0.38380712270736694,-3.6480987071990967
1403715887149058000,-0.002955131232738495,0.01838231459259987,0.07647304236888885,9.07381820678711,0.4082641005516052,-3.672650098800659
1403715887154058000,-0.0022595301270484924,0.022577203810214996,0.07578949630260468,9.057467460632324,0.4409560561180115,-3.648137331008911
1403715887159058000,-0.002946235239505768,0.022563297301530838,0.07787984609603882,9.098272323608398,0.4082624316215515,-3.664451837539673
1403715887164058000,-0.0022574886679649353,0.017700687050819397,0.0813526064157486,9.106542587280273,0.44899603724479675,-3.680896282196045
1403715887169058000,-0.0029573217034339905,0.02048354782164097,0.07648128271102905,9.057490348815918,0.43276283144950867,-3.648159980773926
1403715887174058000,-0.00016400963068008423,0.021168790757656097,0.07717910408973694,9.081976890563965,0.4000760316848755,-3.639993906021118
1403715887179058000,-0.003658287227153778,0.01699557900428772,0.07925984263420105,9.057509422302246,0.4245576858520508,-3.664517402648926
1403715887184058000,-0.0008621290326118469,0.017681622877717018,0.07717041671276093,9.082036018371582,0.3918517827987671,-3.631880521774292
1403715887189058000,-0.001566372811794281,0.018389252945780754,0.07159145176410675,9.04934024810791,0.42464569211006165,-3.664489984512329
1403715887194058000,-0.0008619800209999084,0.018375996500253677,0.07716833055019379,9.090141296386719,0.3919229805469513,-3.680814504623413
1403715887199058000,-0.0015610530972480774,0.02116227336227894,0.07717913389205933,9.057435989379883,0.3837818503379822,-3.639950752258301
1403715887204058000,-0.005728967487812042,0.01906927302479744,0.0778716653585434,9.114657402038574,0.38368716835975647,-3.6563291549682617
1403715887209058000,-0.004339642822742462,0.018389977514743805,0.07787272334098816,9.106584548950195,0.4244478940963745,-3.6237564086914062
1403715887214058000,-0.0043528154492378235,0.016289768740534782,0.07925884425640106,9.057513236999512,0.40003281831741333,-3.6481857299804688
1403715887219058000,-0.0022639110684394836,0.018386177718639374,0.07507841289043427,9.049321174621582,0.416456013917923,-3.664479970932007
1403715887224058000,-0.006439439952373505,0.018390066921710968,0.0806628167629242,9.065696716308594,0.4244852662086487,-3.6237103939056396
1403715887229058000,-0.0029503479599952698,0.020472630858421326,0.08136004209518433,9.098283767700195,0.4082202911376953,-3.672640085220337
1403715887234058000,-0.0036471113562583923,0.01698685809969902,0.0771692544221878,9.090213775634766,0.40000155568122864,-3.6400513648986816
1403715887239058000,-0.003643341362476349,0.01838996261358261,0.0771746039390564,9.10657787322998,0.42446964979171753,-3.6319143772125244
1403715887244058000,0.0033265873789787292,0.022560641169548035,0.07996752858161926,9.130949020385742,0.4000675082206726,-3.68080735206604
1403715887249058000,-0.0022568777203559875,0.018393244594335556,0.07995818555355072,9.106498718261719,0.4408915340900421,-3.7053449153900146
1403715887254058000,-0.0022587850689888,0.01977228745818138,0.07787404954433441,9.057476043701172,0.3919065296649933,-3.631819725036621
1403715887259058000,-0.002949841320514679,0.016977321356534958,0.07716798782348633,9.090182304382324,0.3755307197570801,-3.6481881141662598
1403715887264058000,-0.0036411210894584656,0.019776349887251854,0.07926861941814423,9.1146821975708,0.40816304087638855,-3.648193359375
1403715887269058000,-0.0022487565875053406,0.023252278566360474,0.07369892299175262,9.081937789916992,0.38379982113838196,-3.639936685562134
1403715887274058000,-0.00225134938955307,0.021867334842681885,0.07648377120494843,9.090129852294922,0.4082600176334381,-3.6563010215759277
1403715887279058000,-0.00015882402658462524,0.019783202558755875,0.075082927942276,9.114714622497559,0.42453163862228394,-3.656381130218506
1403715887284058000,-0.002250485122203827,0.019063087180256844,0.07438552379608154,9.08199691772461,0.3592261075973511,-3.623664140701294
1403715887289058000,-0.0008688196539878845,0.01630318909883499,0.07785938680171967,9.090200424194336,0.44089868664741516,-3.705367088317871
1403715887294058000,-0.0015593692660331726,0.020480645820498466,0.07787494361400604,9.08200454711914,0.4245515763759613,-3.648178815841675
1403715887299058000,-0.005735136568546295,0.021167896687984467,0.07997195422649384,9.081979751586914,0.40002405643463135,-3.6236588954925537
1403715887304058000,-0.0015664026141166687,0.016307100653648376,0.08065052330493927,9.090216636657715,0.44901540875434875,-3.6890616416931152
1403715887309058000,0.0005229339003562927,0.017003649845719337,0.07995292544364929,9.090192794799805,0.4490616023540497,-3.7053728103637695
1403715887314058000,-0.001551307737827301,0.021862413734197617,0.07788006961345673,9.098321914672852,0.39186733961105347,-3.623671770095825
1403715887319058000,0.005401141941547394,0.016985420137643814,0.07855896651744843,9.073864936828613,0.3918730318546295,-3.6482231616973877
1403715887324058000,0.001227445900440216,0.016976555809378624,0.07577371597290039,9.073874473571777,0.3673519492149353,-3.6155552864074707
1403715887329058000,-0.00016307085752487183,0.02256454899907112,0.07578742504119873,9.081953048706055,0.4082871079444885,-3.656292200088501
1403715887334058000,-0.0015576854348182678,0.021177666261792183,0.07718046009540558,9.082005500793457,0.4245525896549225,-3.640009880065918
1403715887339058000,-0.001555703580379486,0.0253535658121109,0.07370664179325104,9.057435989379883,0.40830790996551514,-3.6154415607452393
1403715887344058000,-0.0001534000039100647,0.021861404180526733,0.07229927182197571,9.114664077758789,0.39192113280296326,-3.6481571197509766
1403715887349058000,-0.003657497465610504,0.019092977046966553,0.07717499136924744,9.049346923828125,0.44090649485588074,-3.6481776237487793
1403715887354058000,0.0012253299355506897,0.0218643918633461,0.08206363022327423,9.065633773803711,0.3918524384498596,-3.6073384284973145
1403715887359058000,-0.0008605495095252991,0.0197744220495224,0.08205586671829224,9.098319053649902,0.4000057280063629,-3.6481804847717285
1403715887364058000,-0.0015558525919914246,0.017003757879137993,0.07368433475494385,9.098472595214844,0.4407959580421448,-3.623796224594116
1403715887369058000,-0.0029562488198280334,0.020475145429372787,0.07578442990779877,9.049312591552734,0.4082673192024231,-3.6318116188049316
1403715887374058000,-0.0036441609263420105,0.019083399325609207,0.07717534899711609,9.09837532043457,0.416342556476593,-3.640040159225464
1403715887379058000,-0.003644682466983795,0.019798461347818375,0.07578380405902863,9.106585502624512,0.46533331274986267,-3.648247003555298
1403715887384058000,0.00122823566198349,0.019075803458690643,0.07647565007209778,9.082021713256836,0.3918774724006653,-3.6318628787994385
1403715887389058000,0.0012224838137626648,0.016995582729578018,0.07576940953731537,9.082036972045898,0.42458054423332214,-3.68086576461792
1403715887394058000,-0.002257205545902252,0.016997072845697403,0.0736829936504364,9.073922157287598,0.42452383041381836,-3.631909132003784
1403715887399058000,-0.003641389310359955,0.021168390288949013,0.07508578896522522,9.106460571289062,0.4082801640033722,-3.680791139602661
1403715887404058000,-0.002953670918941498,0.020465843379497528,0.07787148654460907,9.07374095916748,0.3919807970523834,-3.688915729522705
1403715887409058000,-0.0022566094994544983,0.019080527126789093,0.07577905058860779,9.073840141296387,0.408239483833313,-3.6481759548187256
1403715887414058000,-0.005733661353588104,0.01906209997832775,0.07717627286911011,9.081978797912598,0.3592042028903961,-3.623650074005127
1403715887419058000,-0.0001676604151725769,0.0190748143941164,0.07786966860294342,9.073819160461426,0.39189785718917847,-3.648167133331299
1403715887424058000,-0.003656722605228424,0.016296623274683952,0.0750754177570343,9.0493803024292,0.4163833558559418,-3.6400389671325684
1403715887429058000,-0.0029452070593833923,0.019773507490754128,0.07717585563659668,9.1065092086792,0.40002748370170593,-3.6481804847717285
1403715887434058000,-0.002940528094768524,0.021863745525479317,0.07439263164997101,9.114656448364258,0.4000644385814667,-3.648155450820923
1403715887439058000,-0.001556210219860077,0.01699342578649521,0.07507674396038055,9.098420143127441,0.4163278043270111,-3.640082836151123
1403715887444058000,-0.0015528425574302673,0.017687059938907623,0.07856552302837372,9.114747047424316,0.40811389684677124,-3.6319212913513184
1403715887449058000,-0.0015642717480659485,0.018397293984889984,0.07996292412281036,9.073896408081055,0.4408177137374878,-3.631909132003784
1403715887454058000,-0.002256534993648529,0.020464491099119186,0.07647882401943207,9.065607070922852,0.38379135727882385,-3.656275987625122
1403715887459058000,-0.004338763654232025,0.021160105243325233,0.07787592709064484,9.09826946258545,0.3837577700614929,-3.664442539215088
1403715887464058000,-0.0008633658289909363,0.018378229811787605,0.07996077835559845,9.08200740814209,0.3918488621711731,-3.6400249004364014
1403715887469058000,-0.002253614366054535,0.021163174882531166,0.07927332818508148,9.073803901672363,0.3837028741836548,-3.615489959716797
1403715887474058000,-0.0036423727869987488,0.01907241716980934,0.076475128531456,9.106483459472656,0.3918977677822113,-3.6726489067077637
1403715887479058000,-0.004344440996646881,0.019788391888141632,0.07996594905853271,9.098347663879395,0.44085201621055603,-3.664523124694824
1403715887484058000,-0.0022544488310813904,0.01838364079594612,0.0778694599866867,9.090192794799805,0.40818867087364197,-3.6481997966766357
1403715887489058000,-0.0022522732615470886,0.01838972046971321,0.0750807374715805,9.098394393920898,0.42452308535575867,-3.6482231616973877
1403715887494058000,-0.0036564841866493225,0.018407611176371574,0.07438379526138306,9.06573486328125,0.47356677055358887,-3.6645517349243164
1403715887499058000,-0.0029549524188041687,0.019080448895692825,0.07229240238666534,9.057501792907715,0.40828973054885864,-3.64815354347229
1403715887504058000,-0.0022568777203559875,0.018391259014606476,0.07577528059482574,9.090187072753906,0.43274742364883423,-3.6808488368988037
1403715887509058000,-0.0022558793425559998,0.019083499908447266,0.07647641003131866,9.08202075958252,0.41638627648353577,-3.6481897830963135
1403715887514058000,-0.002951614558696747,0.01837105304002762,0.07926329970359802,9.081975936889648,0.3755480945110321,-3.648158311843872
1403715887519058000,-0.0022530779242515564,0.016994263976812363,0.07856540381908417,9.09843635559082,0.41626325249671936,-3.615614891052246
1403715887524058000,-0.0008705481886863708,0.014921905472874641,0.07786072790622711,9.082147598266602,0.46528658270835876,-3.6483142375946045
1403715887529058000,-0.0022458061575889587,0.023255672305822372,0.07648484408855438,9.114577293395996,0.40013715624809265,-3.6889169216156006
1403715887534058000,-0.002259068191051483,0.019761722534894943,0.07577535510063171,9.065544128417969,0.375710129737854,-3.7133800983428955
1403715887539058000,-0.0036532506346702576,0.018386155366897583,0.07717211544513702,9.065670013427734,0.41640448570251465,-3.6563384532928467
1403715887544058000,-0.0036457255482673645,0.021860677748918533,0.07787846028804779,9.081928253173828,0.39193597435951233,-3.6562752723693848
1403715887549058000,-0.005737312138080597,0.021175794303417206,0.07787846028804779,9.081971168518066,0.4245741367340088,-3.6563098430633545
1403715887554058000,-0.0008616968989372253,0.018390871584415436,0.07717324793338776,9.09023380279541,0.4244927167892456,-3.6319119930267334
1403715887559058000,-0.0029418393969535828,0.0176863931119442,0.07438208162784576,9.12292194366455,0.40814945101737976,-3.640082836151123
1403715887564058000,-0.0022511258721351624,0.014901314862072468,0.0778588205575943,9.122937202453613,0.41628479957580566,-3.6646056175231934
1403715887569058000,-0.000865839421749115,0.020475473254919052,0.07996727526187897,9.065650939941406,0.40821394324302673,-3.6318390369415283
1403715887574058000,0.0019151493906974792,0.018388401716947556,0.07995998859405518,9.057518005371094,0.41637423634529114,-3.6400389671325684
1403715887579058000,-0.0008556917309761047,0.01978287845849991,0.07647782564163208,9.114706993103027,0.4245244860649109,-3.6563775539398193
1403715887584058000,-0.0029527470469474792,0.018396176397800446,0.07508212327957153,9.082074165344238,0.44085749983787537,-3.6400671005249023
1403715887589058000,-0.002939097583293915,0.02115529589354992,0.07578571140766144,9.114653587341309,0.3673764169216156,-3.631821393966675
1403715887594058000,-0.004339583218097687,0.019780874252319336,0.0785694569349289,9.11466121673584,0.4245472550392151,-3.680832624435425
1403715887599058000,-0.0022557303309440613,0.02046854980289936,0.07926981151103973,9.073798179626465,0.39189478754997253,-3.6399776935577393
1403715887604058000,-0.0015532448887825012,0.019751369953155518,0.07438309490680695,9.090086936950684,0.3429757356643677,-3.6725893020629883
1403715887609058000,0.0005181059241294861,0.017010029405355453,0.07577309012413025,9.049415588378906,0.4572114944458008,-3.6482436656951904
1403715887614058000,-0.00016627460718154907,0.02048896625638008,0.07578621804714203,9.073905944824219,0.4408336281776428,-3.6074166297912598
1403715887619058000,-0.002255745232105255,0.019765250384807587,0.07578092813491821,9.065628051757812,0.37560001015663147,-3.639965295791626
1403715887624058000,-0.0015618130564689636,0.018396247178316116,0.08135630190372467,9.090218544006348,0.44081172347068787,-3.648237705230713
1403715887629058000,-0.0029517337679862976,0.022577472031116486,0.08067257702350616,9.081991195678711,0.4408589005470276,-3.6318466663360596
1403715887634058000,-0.0008654221892356873,0.02114275097846985,0.07717572152614594,9.049177169799805,0.3348698318004608,-3.672525644302368
1403715887639058000,-0.00016150623559951782,0.01839231513440609,0.07647325098514557,9.114728927612305,0.4326799511909485,-3.664565324783325
1403715887644058000,-0.0008599236607551575,0.020481418818235397,0.07717892527580261,9.090200424194336,0.42452001571655273,-3.6318776607513428
1403715887649058000,-0.005028121173381805,0.018374323844909668,0.07577604055404663,9.139179229736328,0.3918643295764923,-3.6808414459228516
1403715887654058000,-0.005737312138080597,0.016290202736854553,0.07577462494373322,9.082063674926758,0.3999985158443451,-3.6318905353546143
1403715887659058000,-0.004343084990978241,0.017678316682577133,0.07717232406139374,9.082033157348633,0.3836730122566223,-3.623702049255371
1403715887664058000,-0.002936743199825287,0.02116883173584938,0.07508699595928192,9.139176368713379,0.40820494294166565,-3.6645073890686035
1403715887669058000,-0.0036402419209480286,0.014204439707100391,0.07437174022197723,9.131144523620605,0.4162737727165222,-3.6564629077911377
1403715887674058000,0.001231662929058075,0.01836547441780567,0.07786622643470764,9.098326683044434,0.35920748114585876,-3.6481716632843018
1403715887679058000,-0.0008594468235969543,0.01906917616724968,0.07647207379341125,9.098292350769043,0.38377347588539124,-3.688960075378418
1403715887684058000,-0.0015572085976600647,0.016994308680295944,0.07577118277549744,9.106554985046387,0.4245360791683197,-3.680880546569824
1403715887689058000,-0.0029539093375205994,0.020458590239286423,0.07717685401439667,9.057422637939453,0.36745569109916687,-3.6480963230133057
1403715887694058000,-0.0036384835839271545,0.023250896483659744,0.07788215577602386,9.10642147064209,0.3837561011314392,-3.6562659740448
1403715887699058000,-0.002953477203845978,0.02047983929514885,0.07648062705993652,9.073822021484375,0.42458435893058777,-3.6563239097595215
1403715887704058000,-0.0015592947602272034,0.020474035292863846,0.07508467137813568,9.073812484741211,0.408272922039032,-3.656311511993408
1403715887709058000,0.000527508556842804,0.01840004324913025,0.07926377654075623,9.090239524841309,0.4489869177341461,-3.6482553482055664
1403715887714058000,0.0005330368876457214,0.018386485055088997,0.07438531517982483,9.082096099853516,0.40814778208732605,-3.599268674850464
1403715887719058000,-0.004341982305049896,0.01836799830198288,0.07647529244422913,9.081985473632812,0.3673899173736572,-3.639986991882324
1403715887724058000,-0.0036540552973747253,0.015596187673509121,0.07995399832725525,9.07387924194336,0.4081577956676483,-3.648221492767334
1403715887729058000,-0.0036566928029060364,0.01978066936135292,0.0806637704372406,9.049304962158203,0.4163949191570282,-3.639986991882324
1403715887734058000,-0.004335291683673859,0.023950248956680298,0.07858110964298248,9.106400489807129,0.39193829894065857,-3.6644127368927
1403715887739058000,-0.0029430165886878967,0.02048102393746376,0.07438743114471436,9.122847557067871,0.43273594975471497,-3.6808419227600098
1403715887744058000,-0.001560606062412262,0.021862506866455078,0.07648392021656036,9.057435989379883,0.3919583857059479,-3.6399455070495605
1403715887749058000,-0.001561589539051056,0.01838364638388157,0.07647356390953064,9.07383918762207,0.4082373082637787,-3.6563429832458496
1403715887754058000,-0.0008566156029701233,0.02117612585425377,0.07857242226600647,9.114653587341309,0.42455047369003296,-3.672668218612671
1403715887759058000,-0.0008597895503044128,0.02117234468460083,0.0771808922290802,9.08200740814209,0.4082067906856537,-3.623687505722046
1403715887764058000,-0.002259768545627594,0.016284963116049767,0.0750749260187149,9.05753231048584,0.3837173283100128,-3.631864070892334
1403715887769058000,-0.002952076494693756,0.014886912889778614,0.0785566121339798,9.090210914611816,0.37548911571502686,-3.6482179164886475
1403715887774058000,-0.00017762929201126099,0.014904651790857315,0.07995279133319855,9.049415588378906,0.4163064956665039,-3.623764753341675
1403715887779058000,-0.00016967207193374634,0.020476482808589935,0.0792718231678009,9.057507514953613,0.4081868529319763,-3.607363700866699
1403715887784058000,-0.0008690282702445984,0.015603670850396156,0.07646803557872772,9.06576156616211,0.42449474334716797,-3.6319284439086914
1403715887789058000,-0.003655858337879181,0.019796885550022125,0.07927161455154419,9.057550430297852,0.4571724832057953,-3.623725414276123
1403715887794058000,-0.0022612735629081726,0.021180346608161926,0.07857471704483032,9.057473182678223,0.4327566921710968,-3.6481494903564453
1403715887799058000,-0.0036520883440971375,0.020500535145401955,0.07857364416122437,9.090203285217285,0.4817112386226654,-3.6727073192596436
1403715887804058000,-0.002945937216281891,0.020484358072280884,0.07578687369823456,9.098402976989746,0.4326595067977905,-3.6155741214752197
1403715887809058000,-0.0015540048480033875,0.019783414900302887,0.07717597484588623,9.106535911560059,0.4245249927043915,-3.6482110023498535
1403715887814058000,-0.0015530958771705627,0.01908983662724495,0.07787215709686279,9.114741325378418,0.4326435327529907,-3.6400809288024902
1403715887819058000,-0.00295364111661911,0.018386315554380417,0.07786916196346283,9.082015037536621,0.4163842499256134,-3.656353712081909
1403715887824058000,-0.0036376938223838806,0.02394815906882286,0.07788451015949249,9.106419563293457,0.3837624490261078,-3.64809513092041
1403715887829058000,-0.0029489323496818542,0.017002783715724945,0.07716691493988037,9.122908592224121,0.4490091800689697,-3.6890721321105957
1403715887834058000,-0.0015623494982719421,0.019770342856645584,0.07298873364925385,9.057446479797363,0.3920089900493622,-3.6726021766662598
1403715887839058000,-0.002949066460132599,0.023245271295309067,0.07788059115409851,9.073699951171875,0.36749666929244995,-3.664381742477417
1403715887844058000,-0.000848628580570221,0.021863948553800583,0.07648356258869171,9.131004333496094,0.4000279903411865,-3.648178815841675
1403715887849058000,0.0005274191498756409,0.01698925346136093,0.0757744312286377,9.065735816955566,0.4000058174133301,-3.6155786514282227
1403715887854058000,-0.0015589073300361633,0.01837015151977539,0.0729849636554718,9.073799133300781,0.37563571333885193,-3.672623872756958
1403715887859058000,-0.0043429359793663025,0.017665961757302284,0.07647436857223511,9.073823928833008,0.35103732347488403,-3.6236612796783447
1403715887864058000,-0.00295894593000412,0.018370211124420166,0.07717445492744446,9.032977104187012,0.367397665977478,-3.60732102394104
1403715887869058000,-0.0015603527426719666,0.019746270030736923,0.07717317342758179,9.057382583618164,0.32664111256599426,-3.656228542327881
1403715887874058000,0.0026194974780082703,0.019078277051448822,0.08065785467624664,9.090171813964844,0.4000106155872345,-3.6481986045837402
1403715887879058000,-0.0008745864033699036,0.017690446227788925,0.08274754881858826,9.049320220947266,0.4163685441017151,-3.656344175338745
1403715887884058000,-0.00225057452917099,0.017651734873652458,0.07647013664245605,9.090096473693848,0.3184223771095276,-3.6644389629364014
1403715887889058000,-0.004342086613178253,0.015589701011776924,0.0771658718585968,9.09840202331543,0.391799658536911,-3.6400699615478516
1403715887894058000,-0.0022569969296455383,0.016979146748781204,0.0764729231595993,9.065701484680176,0.37550750374794006,-3.6155402660369873
1403715887899058000,-0.0015514418482780457,0.019058480858802795,0.07926476001739502,9.106473922729492,0.3510124087333679,-3.639991044998169
1403715887904058000,0.0005387887358665466,0.015599390491843224,0.07646682858467102,9.131144523620605,0.4162466824054718,-3.6401424407958984
1403715887909058000,-0.0015578195452690125,0.017689865082502365,0.07507814466953278,9.090229034423828,0.41635847091674805,-3.648219585418701
1403715887914058000,-0.003648214042186737,0.020457830280065536,0.0764792263507843,9.065587997436523,0.3674613833427429,-3.656254291534424
1403715887919058000,-0.005735702812671661,0.014894985593855381,0.07507151365280151,9.098411560058594,0.39999666810035706,-3.656395673751831
1403715887924058000,-0.0015622302889823914,0.016978831961750984,0.07856352627277374,9.065685272216797,0.375510573387146,-3.6236987113952637
1403715887929058000,-0.0008604452013969421,0.018368398770689964,0.07996003329753876,9.090154647827148,0.36734867095947266,-3.6400067806243896
1403715887934058000,-0.001567833125591278,0.018388427793979645,0.07717351615428925,9.041190147399902,0.4163813889026642,-3.623695135116577
1403715887939058000,-0.0057359859347343445,0.01699025183916092,0.07438252866268158,9.08207893371582,0.408163845539093,-3.6237308979034424
1403715887944058000,-0.0029455944895744324,0.0169895701110363,0.07716916501522064,9.114747047424316,0.40812596678733826,-3.6400833129882812
1403715887949058000,-0.002255566418170929,0.018381446599960327,0.07926535606384277,9.082035064697266,0.3999885022640228,-3.623713254928589
1403715887954058000,0.0019307807087898254,0.02117554098367691,0.07648243010044098,9.106548309326172,0.4163386821746826,-3.6237244606018066
1403715887959058000,-0.001560799777507782,0.019779369235038757,0.07438415288925171,9.073813438415527,0.4164581298828125,-3.672638416290283
1403715887964058000,-0.0015585348010063171,0.016982126981019974,0.07507286965847015,9.090171813964844,0.39191946387290955,-3.6808314323425293
1403715887969058000,0.0005384013056755066,0.023278292268514633,0.07579271495342255,9.106548309326172,0.44901758432388306,-3.623723268508911
1403715887974058000,-0.0036493614315986633,0.02048039808869362,0.0771794468164444,9.07383918762207,0.42455753684043884,-3.640007972717285
1403715887979058000,-0.00016417354345321655,0.01837734505534172,0.0722883939743042,9.082015037536621,0.39193692803382874,-3.6563384532928467
1403715887984058000,-0.0001654401421546936,0.02048354223370552,0.0736897885799408,9.08202075958252,0.4327617287635803,-3.656346082687378
1403715887989058000,-0.005033813416957855,0.01838206686079502,0.07647538185119629,9.114704132080078,0.40817946195602417,-3.656367063522339
1403715887994058000,-0.00016810745000839233,0.01770632527768612,0.07996030151844025,9.098441123962402,0.45711269974708557,-3.6401243209838867
1403715887999058000,-0.00016655772924423218,0.021885037422180176,0.0792754739522934,9.082036972045898,0.44900983572006226,-3.6237213611602783
1403715888004058000,-0.0015508458018302917,0.020464694127440453,0.07717666029930115,9.106484413146973,0.38372212648391724,-3.6481590270996094
1403715888009058000,-0.004344649612903595,0.01698947884142399,0.07786642014980316,9.090210914611816,0.4081743657588959,-3.64821195602417
1403715888014058000,-0.005049251019954681,0.014909330755472183,0.07507357001304626,9.05760669708252,0.43266746401786804,-3.6319260597229004
1403715888019058000,-0.0029485896229743958,0.020467229187488556,0.07787413895130157,9.090127944946289,0.3919111490249634,-3.6563034057617188
1403715888024058000,-0.005039013922214508,0.019081760197877884,0.07438470423221588,9.09017562866211,0.4164135158061981,-3.664496898651123
1403715888029058000,-0.0008589848875999451,0.020468512549996376,0.07787451148033142,9.0901517868042,0.3918842673301697,-3.6399986743927
1403715888034058000,-0.003646470606327057,0.020462919026613235,0.07926706969738007,9.090084075927734,0.38377201557159424,-3.6807637214660645
1403715888039058000,-0.0022514984011650085,0.019100187346339226,0.07717359066009521,9.122904777526855,0.4653422236442566,-3.6809027194976807
1403715888044058000,-0.0029593780636787415,0.018404215574264526,0.07647489011287689,9.073882102966309,0.4653937518596649,-3.6727113723754883
1403715888049058000,-0.002955816686153412,0.017682895064353943,0.07856342196464539,9.073823928833008,0.4000662565231323,-3.6644997596740723
1403715888054058000,-0.0008591488003730774,0.01976894959807396,0.07508401572704315,9.081999778747559,0.38373425602912903,-3.6318414211273193
1403715888059058000,0.0012283548712730408,0.02186010219156742,0.07439123094081879,9.06562328338623,0.38379010558128357,-3.6318016052246094
1403715888064058000,-0.000164128839969635,0.019068878144025803,0.07717271149158478,9.081989288330078,0.37555554509162903,-3.640000343322754
1403715888069058000,-0.004344917833805084,0.01977984979748726,0.07508493959903717,9.073837280273438,0.4164113998413086,-3.648163080215454
1403715888074058000,-0.00642811506986618,0.023268280550837517,0.07648962736129761,9.098288536071777,0.4327631890773773,-3.6644513607025146
1403715888079058000,-0.0029467567801475525,0.020467190071940422,0.0778740644454956,9.098302841186523,0.3918948471546173,-3.6563122272491455
1403715888084058000,-0.002248339354991913,0.021876368671655655,0.07857632637023926,9.114668846130371,0.4326971173286438,-3.6563477516174316
1403715888089058000,-0.003645189106464386,0.02186514623463154,0.07857774198055267,9.081965446472168,0.400054931640625,-3.6318109035491943
1403715888094058000,-0.004346825182437897,0.019782893359661102,0.07647919654846191,9.07382869720459,0.4245791733264923,-3.656327962875366
1403715888099058000,0.0005210414528846741,0.01839299127459526,0.07647186517715454,9.057503700256348,0.4327732026576996,-3.6726722717285156
1403715888104058000,0.0005308762192726135,0.016981933265924454,0.07925932109355927,9.090208053588867,0.3836537301540375,-3.6318957805633545
1403715888109058000,-0.002940557897090912,0.019768038764595985,0.07926930487155914,9.122861862182617,0.3836285173892975,-3.6237103939056396
1403715888114058000,-0.0001549646258354187,0.0162833072245121,0.0750730037689209,9.131089210510254,0.3836400806903839,-3.64825177192688
1403715888119058000,-0.004343084990978241,0.018371962010860443,0.07577948272228241,9.073843002319336,0.3755410313606262,-3.623673439025879
1403715888124058000,-0.002261318266391754,0.017672661691904068,0.07926297187805176,9.049314498901367,0.3673766851425171,-3.6236608028411865
1403715888129058000,-0.00016210228204727173,0.016284113749861717,0.07855989038944244,9.106562614440918,0.38363218307495117,-3.6400723457336426
1403715888134058000,0.0019221976399421692,0.017009828239679337,0.07647101581096649,9.098474502563477,0.45712313055992126,-3.6401383876800537
1403715888139058000,-0.004345886409282684,0.021170347929000854,0.07648324966430664,9.06562614440918,0.4082692861557007,-3.6481220722198486
1403715888144058000,-0.0022531822323799133,0.019070446491241455,0.07856710255146027,9.090144157409668,0.3837207555770874,-3.656320333480835
1403715888149058000,-0.0029453709721565247,0.021169591695070267,0.07787595689296722,9.106472969055176,0.4082287549972534,-3.664478302001953
1403715888154058000,-0.004338167607784271,0.02114405483007431,0.07508496940135956,9.090046882629395,0.34299638867378235,-3.680713415145874
1403715888159058000,-0.0029464438557624817,0.019786454737186432,0.07648031413555145,9.106558799743652,0.43266600370407104,-3.6400599479675293
1403715888164058000,-0.004346765577793121,0.01839561015367508,0.0764768123626709,9.082056999206543,0.4408532679080963,-3.6482183933258057
1403715888169058000,-0.0015505924820899963,0.019783135503530502,0.07787330448627472,9.122886657714844,0.42448943853378296,-3.648226022720337
1403715888174058000,-0.0036388859152793884,0.019764401018619537,0.07857075333595276,9.114659309387207,0.3755072057247162,-3.6400046348571777
1403715888179058000,0.0005223825573921204,0.016991425305604935,0.07507514953613281,9.049371719360352,0.4082404375076294,-3.640036106109619
1403715888184058000,-0.002253912389278412,0.017677001655101776,0.07716882228851318,9.090169906616211,0.38371139764785767,-3.6563408374786377
1403715888189058000,-0.005734764039516449,0.019778726622462273,0.07926902174949646,9.0983304977417,0.41636088490486145,-3.656336784362793
1403715888194058000,-0.0008651837706565857,0.02048753760755062,0.07717862725257874,9.073860168457031,0.4408794045448303,-3.6400341987609863
1403715888199058000,-0.004338063299655914,0.02255745604634285,0.07927572727203369,9.098268508911133,0.39190253615379333,-3.64811635017395
1403715888204058000,-0.0036474838852882385,0.019103944301605225,0.08066201210021973,9.114744186401367,0.4734639823436737,-3.66458797454834
1403715888209058000,-0.005047105252742767,0.01702696830034256,0.07577857375144958,9.090332984924316,0.5061203837394714,-3.648320198059082
1403715888214058000,-0.002258218824863434,0.018391596153378487,0.07926680147647858,9.073894500732422,0.424481600522995,-3.6155781745910645
1403715888219058000,-0.0015585198998451233,0.016286995261907578,0.07646816968917847,9.090215682983398,0.39185813069343567,-3.6482179164886475
1403715888224058000,-0.003650583326816559,0.019788216799497604,0.07647812366485596,9.082003593444824,0.4409242272377014,-3.672666549682617
1403715888229058000,-0.0015590265393257141,0.023261789232492447,0.0764874815940857,9.065593719482422,0.40830689668655396,-3.6481034755706787
1403715888234058000,-0.004337109625339508,0.021157890558242798,0.07648248970508575,9.098285675048828,0.37558358907699585,-3.648122787475586
1403715888239058000,-0.003654368221759796,0.017699234187602997,0.07926344871520996,9.073884010314941,0.4408414363861084,-3.6482248306274414
1403715888244058000,-0.0036585554480552673,0.018378999084234238,0.07577484846115112,9.041106224060059,0.4001641869544983,-3.6807658672332764
1403715888249058000,-0.0036528483033180237,0.018366437405347824,0.07577440142631531,9.057416915893555,0.3674904704093933,-3.6807520389556885
1403715888254058000,-0.004350297152996063,0.018386416137218475,0.07508094608783722,9.057507514953613,0.4164152145385742,-3.6481707096099854
1403715888259058000,-0.0036527588963508606,0.020459791645407677,0.07717914879322052,9.041094779968262,0.36744198203086853,-3.623608112335205
1403715888264058000,-0.005734927952289581,0.016980353742837906,0.08065679669380188,9.098361015319824,0.3836221694946289,-3.6318764686584473
1403715888269058000,-0.0036485716700553894,0.021202819421887398,0.07718519866466522,9.090267181396484,0.48979905247688293,-3.6237728595733643
1403715888274058000,0.0005300715565681458,0.017699403688311577,0.07647162675857544,9.098413467407227,0.44084230065345764,-3.6564173698425293
1403715888279058000,-0.0022519007325172424,0.01836983673274517,0.07716932892799377,9.098301887512207,0.37557628750801086,-3.6726431846618652
1403715888284058000,-0.002256818115711212,0.01768365502357483,0.0785643458366394,9.082019805908203,0.40002772212028503,-3.6481950283050537
1403715888289058000,0.0005323812365531921,0.01837756298482418,0.07577499747276306,9.090178489685059,0.3918974995613098,-3.6563494205474854
1403715888294058000,-0.0008522793650627136,0.018376000225543976,0.07786701619625092,9.131030082702637,0.39183366298675537,-3.664537191390991
1403715888299058000,-0.0022605136036872864,0.01629457250237465,0.07855860888957977,9.082024574279785,0.41638103127479553,-3.6808600425720215
1403715888304058000,-0.00504332035779953,0.019782792776823044,0.07787488400936127,9.073835372924805,0.4245541989803314,-3.648169994354248
1403715888309058000,-0.0036449208855628967,0.017670687288045883,0.07647264003753662,9.090163230895996,0.3673785924911499,-3.6481664180755615
1403715888314058000,-0.002958230674266815,0.016301052644848824,0.07926148176193237,9.065755844116211,0.4244545102119446,-3.6156015396118164
1403715888319058000,-0.00016724318265914917,0.020466478541493416,0.07508599758148193,9.057477951049805,0.38375887274742126,-3.623652458190918
1403715888324058000,-0.0029455646872520447,0.018358344212174416,0.07717090845108032,9.098299026489258,0.3428855538368225,-3.6481385231018066
1403715888329058000,0.0019253268837928772,0.01837153360247612,0.07716849446296692,9.090161323547363,0.3755566477775574,-3.656339645385742
1403715888334058000,-0.002947576344013214,0.02537008933722973,0.07719333469867706,9.090130805969238,0.4572548568248749,-3.648137331008911
1403715888339058000,-0.004346348345279694,0.021865101531147957,0.0771835446357727,9.05744743347168,0.40009620785713196,-3.6317858695983887
1403715888344058000,-0.003642059862613678,0.021861949935555458,0.07648566365242004,9.09013843536377,0.3918977677822113,-3.6318092346191406
1403715888349058000,-0.005034364759922028,0.018380483612418175,0.07717445492744446,9.106548309326172,0.3999820053577423,-3.63188099861145
1403715888354058000,-0.005036972463130951,0.019761936739087105,0.07996636629104614,9.090128898620605,0.36735638976097107,-3.6318092346191406
1403715888359058000,-0.004352472722530365,0.019086606800556183,0.07996442914009094,9.05749225616455,0.42454957962036133,-3.6481659412384033
1403715888364058000,-0.003654398024082184,0.017008263617753983,0.07856449484825134,9.082082748413086,0.4571581184864044,-3.656416177749634
1403715888369058000,-0.0036496147513389587,0.016278991475701332,0.07576893270015717,9.08198356628418,0.37559038400650024,-3.6808125972747803
1403715888374058000,-0.00016041845083236694,0.01628771796822548,0.07576751708984375,9.122876167297363,0.4000352919101715,-3.689042568206787
1403715888379058000,0.0019092783331871033,0.01701745018362999,0.07786637544631958,9.04944896697998,0.47349435091018677,-3.6319594383239746
1403715888384058000,-0.0022582337260246277,0.018381694331765175,0.07787084579467773,9.065690994262695,0.40002501010894775,-3.623702049255371
1403715888389058000,-0.007127381861209869,0.018395693972706795,0.07787062227725983,9.114706993103027,0.4490169286727905,-3.6808722019195557
1403715888394058000,-0.004353813827037811,0.01630229875445366,0.07716765999794006,9.057558059692383,0.4326998293399811,-3.6482203006744385
1403715888399058000,-0.002254091203212738,0.019763987511396408,0.0778709203004837,9.081938743591309,0.37560388445854187,-3.6644530296325684
1403715888404058000,-0.0015477463603019714,0.019072119146585464,0.07996025681495667,9.139169692993164,0.3918309807777405,-3.672686815261841
1403715888409058000,-0.0015620514750480652,0.019074562937021255,0.07717327773571014,9.065644264221191,0.39191770553588867,-3.6481542587280273
1403715888414058000,-0.0036584660410881042,0.01905721053481102,0.07926779985427856,9.016569137573242,0.3429470360279083,-3.615424633026123
1403715888419058000,-0.0029546990990638733,0.020462140440940857,0.07508577406406403,9.049269676208496,0.37563222646713257,-3.6399378776550293
1403715888424058000,-0.0008637085556983948,0.016983669251203537,0.07646924257278442,9.08202075958252,0.39187726378440857,-3.656358242034912
1403715888429058000,-0.0029423758387565613,0.023266002535820007,0.07648783922195435,9.114629745483398,0.4245758652687073,-3.6644694805145264
1403715888434058000,-0.0008571520447731018,0.02255469560623169,0.07648374140262604,9.090084075927734,0.38379165530204773,-3.6644279956817627
1403715888439058000,0.0005166009068489075,0.01839412935078144,0.08065712451934814,9.04116153717041,0.43273669481277466,-3.6563494205474854
1403715888444058000,0.0005295351147651672,0.01977604068815708,0.07857099175453186,9.07384204864502,0.4000236988067627,-3.6236979961395264
1403715888449058000,-0.0022474899888038635,0.02186155878007412,0.07578736543655396,9.098305702209473,0.391904354095459,-3.639979362487793
1403715888454058000,-0.003642655909061432,0.01839882880449295,0.07647749781608582,9.114773750305176,0.4489579200744629,-3.640103816986084
1403715888459058000,-0.0015647634863853455,0.023281123489141464,0.07927912473678589,9.057476997375488,0.45724987983703613,-3.6399922370910645
1403715888464058000,-0.0029556527733802795,0.01768074557185173,0.07368303835391998,9.057502746582031,0.3919372856616974,-3.6481590270996094
1403715888469058000,-0.0022506192326545715,0.021186310797929764,0.07369451224803925,9.098379135131836,0.44905972480773926,-3.648205041885376
1403715888474058000,-0.002258487045764923,0.01767379231750965,0.07577301561832428,9.065635681152344,0.375609815120697,-3.6644678115844727
1403715888479058000,0.000543348491191864,0.015578115358948708,0.07506716251373291,9.147381782531738,0.367349237203598,-3.68904709815979
1403715888484058000,-0.0029377415776252747,0.014198916964232922,0.07437297701835632,9.147509574890137,0.39988672733306885,-3.6319966316223145
1403715888489058000,-0.002958454191684723,0.01977463811635971,0.07508416473865509,9.041138648986816,0.4001241624355316,-3.6399648189544678
1403715888494058000,-0.0001705959439277649,0.016262881457805634,0.0757695734500885,9.049293518066406,0.32659751176834106,-3.639967203140259
1403715888499058000,-0.0022541508078575134,0.016277361661195755,0.07855971157550812,9.090182304382324,0.3673405647277832,-3.648190975189209
1403715888504058000,-0.0015560165047645569,0.02185867354273796,0.07927297055721283,9.081941604614258,0.3837321400642395,-3.6399588584899902
1403715888509058000,-0.00016445666551589966,0.02184852585196495,0.08136147260665894,9.08187198638916,0.3592797815799713,-3.672569513320923
1403715888514058000,0.001933179795742035,0.022555623203516006,0.07927283644676208,9.1146240234375,0.38370826840400696,-3.6481473445892334
1403715888519058000,0.000529654324054718,0.02327565662562847,0.07858124375343323,9.073822021484375,0.4408882260322571,-3.6318418979644775
1403715888524058000,0.004014737904071808,0.02255474217236042,0.07857583463191986,9.073771476745605,0.37558722496032715,-3.631800413131714
1403715888529058000,-0.002251364290714264,0.023269981145858765,0.07927702367305756,9.098286628723145,0.43274393677711487,-3.6644670963287354
1403715888534058000,-0.00016636401414871216,0.016999466344714165,0.0778648853302002,9.09841537475586,0.43265673518180847,-3.6564173698425293
1403715888539058000,-0.0029589906334877014,0.02046329528093338,0.07857398688793182,9.032925605773926,0.37561073899269104,-3.623609781265259
1403715888544058000,-0.003651149570941925,0.016987480223178864,0.07926206290721893,9.073869705200195,0.39999455213546753,-3.6318793296813965
1403715888549058000,-0.0029460564255714417,0.018370870500802994,0.07926355302333832,9.106497764587402,0.37550801038742065,-3.648176908493042
1403715888554058000,-0.002259276807308197,0.019086474552750587,0.0785684734582901,9.07383918762207,0.4245541989803314,-3.656346082687378
1403715888559058000,-0.0036431029438972473,0.017687054350972176,0.07856270670890808,9.122851371765137,0.41635218262672424,-3.689023733139038
1403715888564058000,-0.005048967897891998,0.015630178153514862,0.07507695257663727,9.08217716217041,0.49795663356781006,-3.6483259201049805
1403715888569058000,-0.0001629963517189026,0.01907033659517765,0.07368879020214081,9.073863983154297,0.37554270029067993,-3.6073694229125977
1403715888574058000,-0.002944059669971466,0.017660148441791534,0.07019379734992981,9.098305702209473,0.3429696559906006,-3.672623872756958
1403715888579058000,-0.005037002265453339,0.014902816154062748,0.07228051126003265,9.114765167236328,0.4245203137397766,-3.6809067726135254
1403715888584058000,-0.005043290555477142,0.019776951521635056,0.07648003101348877,9.065657615661621,0.4082386791706085,-3.6399893760681152
1403715888589058000,-0.0015644058585166931,0.01628047227859497,0.07507213950157166,9.057497024536133,0.37559184432029724,-3.6563291549682617
1403715888594058000,-0.0008591935038566589,0.015583297237753868,0.0743727833032608,9.098383903503418,0.3755300045013428,-3.6563804149627686
1403715888599058000,-0.00016116350889205933,0.0239669531583786,0.07718563079833984,9.098287582397461,0.4327694773674011,-3.6644654273986816
1403715888604058000,-0.004340730607509613,0.021853946149349213,0.07996940612792969,9.090067863464355,0.3755931556224823,-3.664416790008545
1403715888609058000,-0.006428085267543793,0.021156564354896545,0.07927125692367554,9.098249435424805,0.3755793571472168,-3.664428472518921
1403715888614058000,-0.0022562071681022644,0.01768331788480282,0.07995858788490295,9.090177536010742,0.4000130295753479,-3.6563594341278076
1403715888619058000,-0.004337571561336517,0.020463984459638596,0.07927025854587555,9.106467247009277,0.38369613885879517,-3.64814829826355
1403715888624058000,-0.0029354915022850037,0.021159358322620392,0.07857292890548706,9.147313117980957,0.38367825746536255,-3.6644904613494873
1403715888629058000,-0.003646649420261383,0.01978977769613266,0.07927022874355316,9.098382949829102,0.44081732630729675,-3.6400575637817383
1403715888634058000,-0.002256162464618683,0.021159578114748,0.07996951043605804,9.06559944152832,0.3755727708339691,-3.631788730621338
1403715888639058000,-0.0015542581677436829,0.01976686716079712,0.0799623429775238,9.106454849243164,0.3837226629257202,-3.672640085220337
1403715888644058000,-0.00017086416482925415,0.01839262992143631,0.07577534019947052,9.073854446411133,0.43275123834609985,-3.672684669494629
1403715888649058000,-0.0008662864565849304,0.021887265145778656,0.0750904381275177,9.065679550170898,0.45726215839385986,-3.648178815841675
1403715888654058000,-0.0015547201037406921,0.018371231853961945,0.07438178360462189,9.090169906616211,0.3755682408809662,-3.648169994354248
1403715888659058000,-0.0015643760561943054,0.018393531441688538,0.07647483050823212,9.065704345703125,0.43272238969802856,-3.6482062339782715
1403715888664058000,-0.0015619471669197083,0.018385564908385277,0.0743846446275711,9.057547569274902,0.4082084000110626,-3.6155476570129395
1403715888669058000,-0.004336737096309662,0.01977360248565674,0.07578261196613312,9.106520652770996,0.40002772212028503,-3.640019655227661
1403715888674058000,-0.007133372128009796,0.016288992017507553,0.07298406958580017,9.065704345703125,0.40006619691848755,-3.648181200027466
1403715888679058000,-0.004348941147327423,0.018392134457826614,0.07717272639274597,9.073858261108398,0.4327172040939331,-3.656357765197754
1403715888684058000,-0.002937205135822296,0.022553034126758575,0.07578645646572113,9.130941390991211,0.3837556540966034,-3.6726105213165283
1403715888689058000,-0.0015631243586540222,0.017676658928394318,0.07925917208194733,9.073795318603516,0.3837467432022095,-3.672644853591919
1403715888694058000,-0.0001797303557395935,0.018378499895334244,0.07926224172115326,9.0247802734375,0.39194831252098083,-3.648132562637329
1403715888699058000,0.0026188120245933533,0.019082307815551758,0.0785674899816513,9.082032203674316,0.40818092226982117,-3.6318893432617188
1403715888704058000,-0.0008675381541252136,0.01978212594985962,0.07857191562652588,9.057511329650879,0.4163697063922882,-3.623694658279419
1403715888709058000,-0.0015589073300361633,0.020482638850808144,0.07857160270214081,9.090163230895996,0.4327249526977539,-3.6645073890686035
1403715888714058000,-0.003648333251476288,0.016986647620797157,0.07577410340309143,9.082036972045898,0.40003544092178345,-3.6482009887695312
1403715888719058000,-0.002253793179988861,0.022560764104127884,0.07927402853965759,9.081913948059082,0.4001132845878601,-3.6644320487976074
1403715888724058000,-0.002953551709651947,0.02327098697423935,0.08206827938556671,9.07378101348877,0.4327205717563629,-3.6399757862091064
1403715888729058000,-0.0029593482613563538,0.017694072797894478,0.07508015632629395,9.049379348754883,0.4245557188987732,-3.6318740844726562
1403715888734058000,0.0005340054631233215,0.017673175781965256,0.0785602480173111,9.106480598449707,0.3755583167076111,-3.6808297634124756
1403715888739058000,-0.00016260892152786255,0.017677336931228638,0.07647064328193665,9.09835147857666,0.3837081789970398,-3.656358242034912
1403715888744058000,-0.0015652701258659363,0.01978706754744053,0.07647894322872162,9.057507514953613,0.4327498972415924,-3.6481759548187256
1403715888749058000,-0.00016873329877853394,0.015587814152240753,0.07646606862545013,9.073884010314941,0.38368627429008484,-3.6400558948516846
1403715888754058000,-0.0008689388632774353,0.016305753961205482,0.07646834850311279,9.073914527893066,0.4408545196056366,-3.6564137935638428
1403715888759058000,-0.001555226743221283,0.01907717064023018,0.07438413798809052,9.090188026428223,0.40006253123283386,-3.6481833457946777
1403715888764058000,-0.0036365315318107605,0.01907307468354702,0.07089844346046448,9.11470890045166,0.3918943405151367,-3.648190975189209
1403715888769058000,-0.0015456900000572205,0.019788548350334167,0.07438746094703674,9.139266967773438,0.4408121705055237,-3.648258686065674
1403715888774058000,-0.0036577805876731873,0.018380068242549896,0.07717116177082062,9.041131973266602,0.40011635422706604,-3.656297445297241
1403715888779058000,-0.005037449300289154,0.019068505614995956,0.07647867500782013,9.08200454711914,0.375535249710083,-3.623668909072876
1403715888784058000,0.0005375519394874573,0.022568825632333755,0.07997320592403412,9.106508255004883,0.41633087396621704,-3.623699903488159
1403715888789058000,-0.0022565796971321106,0.020490940660238266,0.07927264273166656,9.08205509185791,0.4489869177341461,-3.6237337589263916
1403715888794058000,-0.0008603408932685852,0.021858951076865196,0.07996942102909088,9.081929206848145,0.38374951481819153,-3.6481175422668457
1403715888799058000,-0.00016012042760849,0.016273731365799904,0.07855764031410217,9.1146821975708,0.35917702317237854,-3.6645262241363525
1403715888804058000,-0.0036539509892463684,0.018381725996732712,0.08066101372241974,9.057502746582031,0.40001383423805237,-3.623685836791992
1403715888809058000,-0.004344843327999115,0.01698409765958786,0.0778675526380539,9.082040786743164,0.3918297290802002,-3.6318745613098145
1403715888814058000,-0.005035169422626495,0.020467843860387802,0.07508821785449982,9.090164184570312,0.3918863832950592,-3.6318249702453613
1403715888819058000,-0.0015600696206092834,0.016306210309267044,0.07507570087909698,9.090287208557129,0.44081318378448486,-3.640110731124878
1403715888824058000,-0.0008712783455848694,0.019091825932264328,0.07508338987827301,9.041203498840332,0.43273377418518066,-3.6237010955810547
1403715888829058000,-0.0029627159237861633,0.016287878155708313,0.0764697939157486,9.033011436462402,0.3919033408164978,-3.6318442821502686
1403715888834058000,-0.00364501029253006,0.01840190589427948,0.0757802277803421,9.106608390808105,0.4571382403373718,-3.640103340148926
1403715888839058000,-0.0015637055039405823,0.017695073038339615,0.07856778800487518,9.06574535369873,0.4244682490825653,-3.607426643371582
1403715888844058000,-0.0008599236607551575,0.01906387321650982,0.0764777660369873,9.073833465576172,0.35920193791389465,-3.607346534729004
1403715888849058000,-0.0029509887099266052,0.016297942027449608,0.07438063621520996,9.082121849060059,0.41629481315612793,-3.6074483394622803
1403715888854058000,-0.0015623047947883606,0.01840069144964218,0.07647721469402313,9.073927879333496,0.44899195432662964,-3.6237595081329346
1403715888859058000,-0.0015453770756721497,0.01837053708732128,0.07507939636707306,9.131051063537598,0.3754948079586029,-3.6400458812713623
1403715888864058000,-0.002947203814983368,0.016982845962047577,0.07716727256774902,9.106538772583008,0.39184412360191345,-3.6563706398010254
1403715888869058000,-0.0008543357253074646,0.02117488905787468,0.07648371160030365,9.106544494628906,0.41633832454681396,-3.6237144470214844
1403715888874058000,-0.0015597566962242126,0.02186567895114422,0.07857657968997955,9.065624237060547,0.4000798463821411,-3.631802797317505
1403715888879058000,-0.0036456063389778137,0.019771022722125053,0.07996577024459839,9.090152740478516,0.39185646176338196,-3.639995813369751
1403715888884058000,-0.002260349690914154,0.014205888845026493,0.07785815000534058,9.082098007202148,0.4163070619106293,-3.6482646465301514
1403715888889058000,-0.0015581324696540833,0.019782934337854385,0.0764773041009903,9.09017562866211,0.4245695173740387,-3.6645069122314453
1403715888894058000,-0.0008536949753761292,0.021157078444957733,0.07857099175453186,9.114604949951172,0.37557774782180786,-3.6726202964782715
1403715888899058000,-0.0015559569001197815,0.022580057382583618,0.08276276290416718,9.106501579284668,0.44899794459342957,-3.648195743560791
1403715888904058000,0.0012204274535179138,0.021198851987719536,0.07997205853462219,9.065739631652832,0.47348499298095703,-3.615596294403076
1403715888909058000,-0.0008558109402656555,0.018379293382167816,0.07577495276927948,9.114686012268066,0.4000545144081116,-3.672686815261841
1403715888914058000,-0.005035422742366791,0.016304129734635353,0.07647103071212769,9.122950553894043,0.4407893121242523,-3.656442403793335
1403715888919058000,-0.0036496594548225403,0.01768919825553894,0.07647310197353363,9.082033157348633,0.4163813292980194,-3.6563634872436523
1403715888924058000,0.0012257620692253113,0.019083242863416672,0.07856506109237671,9.090167999267578,0.416403591632843,-3.672679901123047
1403715888929058000,-0.004334114491939545,0.0183711014688015,0.07647228240966797,9.130986213684082,0.383721262216568,-3.6889870166778564
1403715888934058000,-0.003664173185825348,0.01910945400595665,0.0750855803489685,9.02490234375,0.4817376732826233,-3.6318881511688232
1403715888939058000,-0.0022676661610603333,0.01837823912501335,0.07786920666694641,9.024789810180664,0.3919481635093689,-3.639967203140259
1403715888944058000,-0.007826857268810272,0.021877091377973557,0.07648593187332153,9.081955909729004,0.44094717502593994,-3.6726198196411133
1403715888949058000,-0.00435156375169754,0.016307363286614418,0.07577672600746155,9.0576171875,0.4408002495765686,-3.607449531555176
1403715888954058000,-0.00017111748456954956,0.02116922289133072,0.08066530525684357,9.057439804077148,0.40008649230003357,-3.6399712562561035
1403715888959058000,-0.002944372594356537,0.019756557419896126,0.07647499442100525,9.106427192687988,0.35927334427833557,-3.680767774581909
1403715888964058000,-0.0001619383692741394,0.01697826385498047,0.08065405488014221,9.106538772583008,0.3754560351371765,-3.631899833679199
1403715888969058000,-0.00016436725854873657,0.019781798124313354,0.07926881313323975,9.090205192565918,0.41631969809532166,-3.623725414276123
1403715888974058000,-0.003644011914730072,0.018377164378762245,0.07787038385868073,9.098355293273926,0.3918395936489105,-3.640026092529297
1403715888979058000,0.0005374029278755188,0.01698974147439003,0.07716698944568634,9.122922897338867,0.40813127160072327,-3.6482598781585693
1403715888984058000,-0.0029583945870399475,0.017696958035230637,0.07577764987945557,9.057562828063965,0.4326988756656647,-3.6318881511688232
1403715888989058000,-0.0015556737780570984,0.018374688923358917,0.07647447288036346,9.09018611907959,0.38370242714881897,-3.6400208473205566
1403715888994058000,-0.004332415759563446,0.02048007771372795,0.0750894695520401,9.122910499572754,0.4244759976863861,-3.623736619949341
1403715888999058000,-0.005748070776462555,0.018393609672784805,0.07578110694885254,9.033034324645996,0.4327293336391449,-3.6236870288848877
1403715889004058000,0.0005323365330696106,0.020462065935134888,0.07717464864253998,9.081948280334473,0.3756038248538971,-3.6562929153442383
1403715889009058000,-0.001556895673274994,0.01907307654619217,0.07577645778656006,9.090142250061035,0.3919296860694885,-3.672642469406128
1403715889014058000,-0.002954907715320587,0.019093725830316544,0.07368959486484528,9.065728187561035,0.44088253378868103,-3.631882905960083
1403715889019058000,-0.0029539987444877625,0.018386583775281906,0.0757777988910675,9.073856353759766,0.41638943552970886,-3.6481897830963135
1403715889024058000,-0.002245865762233734,0.019054781645536423,0.07856610417366028,9.114622116088867,0.34287452697753906,-3.6563022136688232
1403715889029058000,-0.0008565112948417664,0.019067956134676933,0.07508037984371185,9.098332405090332,0.3755608797073364,-3.64816951751709
1403715889034058000,-0.0029569193720817566,0.01629730872809887,0.07717399299144745,9.049460411071777,0.40806877613067627,-3.5584769248962402
1403715889039058000,-0.0036369040608406067,0.019770657643675804,0.07787449657917023,9.122867584228516,0.3918094336986542,-3.6318705081939697
1403715889044058000,-0.002945058047771454,0.021171756088733673,0.07787501811981201,9.114633560180664,0.4164040982723236,-3.6808032989501953
1403715889049058000,-0.0036563053727149963,0.017680641263723373,0.07507793605327606,9.041150093078613,0.3919444978237152,-3.648138999938965
1403715889054058000,-0.0015485212206840515,0.0218510702252388,0.07787616550922394,9.114596366882324,0.36741575598716736,-3.664440155029297
1403715889059058000,-0.0015557333827018738,0.018387485295534134,0.07717323303222656,9.09839916229248,0.41631582379341125,-3.6319055557250977
1403715889064058000,-0.0029513463377952576,0.016992108896374702,0.07786986231803894,9.082098960876465,0.4080997407436371,-3.5992751121520996
1403715889069058000,-0.0022466108202934265,0.019759468734264374,0.07926875352859497,9.106500625610352,0.3591504693031311,-3.6155145168304443
1403715889074058000,-0.002948872745037079,0.0156021136790514,0.07507352530956268,9.106616973876953,0.42447152733802795,-3.648271083831787
1403715889079058000,-0.0022636130452156067,0.016294213011860847,0.07577270269393921,9.049385070800781,0.4082064926624298,-3.6318776607513428
1403715889084058000,-0.0029556825757026672,0.01909470371901989,0.07787546515464783,9.065744400024414,0.44081127643585205,-3.6074166297912598
1403715889089058000,-0.001554243266582489,0.02117355354130268,0.07648146152496338,9.098325729370117,0.4164014160633087,-3.6563267707824707
1403715889094058000,-0.002259396016597748,0.017010999843478203,0.07995776832103729,9.098429679870605,0.46530643105506897,-3.6646015644073486
1403715889099058000,-0.0015664026141166687,0.015602928586304188,0.07646684348583221,9.065740585327148,0.4245235323905945,-3.648237705230713
1403715889104058000,-0.002949140965938568,0.018375422805547714,0.07716923952102661,9.098311424255371,0.3919166028499603,-3.6808133125305176
1403715889109058000,-0.0029583051800727844,0.01840302348136902,0.07717488706111908,9.06574821472168,0.45717379450798035,-3.63191556930542
1403715889114058000,-0.0015661045908927917,0.01839149370789528,0.07577912509441376,9.04937744140625,0.42455148696899414,-3.6237127780914307
1403715889119058000,-0.0050323233008384705,0.02046799659729004,0.07508441805839539,9.114631652832031,0.4000972807407379,-3.6807947158813477
1403715889124058000,-0.0029462501406669617,0.01418785285204649,0.07785491645336151,9.122883796691895,0.37549033761024475,-3.68088698387146
1403715889129058000,-0.0022571012377738953,0.01839563250541687,0.07786951959133148,9.090219497680664,0.4408523738384247,-3.6563916206359863
1403715889134058000,-0.003644503653049469,0.01837487891316414,0.07717397809028625,9.090195655822754,0.38366904854774475,-3.623701572418213
1403715889139058000,-0.00015582889318466187,0.017673160880804062,0.0778643786907196,9.131026268005371,0.3755025267601013,-3.6645359992980957
1403715889144058000,-0.0008646026253700256,0.019083641469478607,0.0757777988910675,9.073843955993652,0.4164113402366638,-3.6563429832458496
1403715889149058000,-0.001566074788570404,0.02117273584008217,0.0792730450630188,9.041129112243652,0.408247172832489,-3.6236467361450195
1403715889154058000,-0.003630615770816803,0.02047104761004448,0.07578232884407043,9.155522346496582,0.40817990899086,-3.6726863384246826
1403715889159058000,-0.0015607699751853943,0.02187124267220497,0.08066795766353607,9.073786735534668,0.41640177369117737,-3.6481425762176514
1403715889164058000,-0.004345111548900604,0.01907697692513466,0.07577987015247345,9.07382869720459,0.4000759720802307,-3.6481571197509766
1403715889169058000,0.001222364604473114,0.020489465445280075,0.07856960594654083,9.08199405670166,0.44908908009529114,-3.6808407306671143
1403715889174058000,-0.002957157790660858,0.019781392067670822,0.07508537173271179,9.049337387084961,0.4164227247238159,-3.631833791732788
1403715889179058000,-0.0036598071455955505,0.02326844446361065,0.07998277246952057,9.000292778015137,0.41638314723968506,-3.5583291053771973
1403715889184058000,-0.0036476776003837585,0.02117341011762619,0.07787695527076721,9.081966400146484,0.41641512513160706,-3.6563074588775635
1403715889189058000,-0.0015475079417228699,0.01768602803349495,0.0778670459985733,9.139246940612793,0.4081156551837921,-3.6482534408569336
1403715889194058000,-0.004347018897533417,0.01770145259797573,0.07368935644626617,9.06578540802002,0.44081056118011475,-3.599278688430786
1403715889199058000,-0.0022557154297828674,0.015581820160150528,0.0743752121925354,9.07387638092041,0.36736807227134705,-3.631871223449707
1403715889204058000,-0.005036540329456329,0.016988469287753105,0.07926045358181,9.114715576171875,0.40814048051834106,-3.6563875675201416
1403715889209058000,-0.0050514861941337585,0.01838836446404457,0.07857115566730499,9.0330228805542,0.4163591265678406,-3.6073601245880127
1403715889214058000,-0.0015660300850868225,0.018398407846689224,0.07857024669647217,9.057579040527344,0.44081202149391174,-3.6074249744415283
1403715889219058000,0.0005321428179740906,0.0148911839351058,0.0750654935836792,9.106549263000488,0.39188215136528015,-3.68904185295105
1403715889224058000,-0.0036474093794822693,0.018397752195596695,0.07508055865764618,9.098398208618164,0.4490370750427246,-3.664553642272949
1403715889229058000,-0.003649793565273285,0.01978180930018425,0.0771748423576355,9.081984519958496,0.42458754777908325,-3.6726512908935547
1403715889234058000,-0.005028985440731049,0.02045113779604435,0.07578304409980774,9.11462116241455,0.3510676324367523,-3.648122787475586
1403715889239058000,-0.005041487514972687,0.01349898986518383,0.07506753504276276,9.09026050567627,0.39181795716285706,-3.6482505798339844
1403715889244058000,-0.0008708760142326355,0.01629599928855896,0.07855883240699768,9.065695762634277,0.41637951135635376,-3.6645359992980957
1403715889249058000,-0.0015616044402122498,0.02116679772734642,0.07647956907749176,9.065592765808105,0.4001479744911194,-3.672598123550415
1403715889254058000,-0.0015495643019676208,0.02256208285689354,0.07787749171257019,9.12276840209961,0.4082631468772888,-3.688948392868042
1403715889259058000,0.0005106106400489807,0.018414873629808426,0.07995979487895966,9.041205406188965,0.48991337418556213,-3.680882215499878
1403715889264058000,-0.0008698925375938416,0.019078057259321213,0.07787033915519714,9.049304962158203,0.4000968635082245,-3.648151397705078
1403715889269058000,-0.0036476030945777893,0.020461397245526314,0.07857222855091095,9.07376480102539,0.37559133768081665,-3.6481175422668457
1403715889274058000,-0.0050533488392829895,0.017682623118162155,0.07787215709686279,9.016664505004883,0.39188164472579956,-3.599177122116089
1403715889279058000,-0.004345990717411041,0.01628548465669155,0.07507804036140442,9.065728187561035,0.3836647570133209,-3.6073968410491943
1403715889284058000,-0.00015679746866226196,0.019767023622989655,0.07438872754573822,9.098381996154785,0.3754945695400238,-3.5992238521575928
1403715889289058000,-0.0001631602644920349,0.0169900581240654,0.07437777519226074,9.098404884338379,0.40818509459495544,-3.64823317527771
1403715889294058000,-0.0008700713515281677,0.01978449709713459,0.07298721373081207,9.057459831237793,0.4328511953353882,-3.697108745574951
1403715889299058000,-0.0022548511624336243,0.019091926515102386,0.07787065207958221,9.098371505737305,0.4408588111400604,-3.664541244506836
1403715889304058000,-0.0008578374981880188,0.015598627738654613,0.07437390089035034,9.114774703979492,0.4163188934326172,-3.656435966491699
1403715889309058000,0.0005327239632606506,0.019794151186943054,0.08136114478111267,9.106589317321777,0.448932021856308,-3.6237804889678955
1403715889314058000,-0.0008546188473701477,0.02117175981402397,0.07787781953811646,9.106529235839844,0.40816831588745117,-3.6237080097198486
1403715889319058000,-0.003634057939052582,0.01978030800819397,0.07578025758266449,9.147369384765625,0.42452606558799744,-3.6808629035949707
1403715889324058000,-0.0008640512824058533,0.01630013808608055,0.07437722384929657,9.082100868225098,0.42451271414756775,-3.6400904655456543
1403715889329058000,-0.00016289204359054565,0.021171273663640022,0.08066502213478088,9.098316192626953,0.40820255875587463,-3.648172378540039
1403715889334058000,-0.005034215748310089,0.021166350692510605,0.07927186787128448,9.106465339660645,0.40004751086235046,-3.6563069820404053
1403715889339058000,-0.002951778471469879,0.021189551800489426,0.07857617735862732,9.09019947052002,0.45719534158706665,-3.648205041885376
1403715889344058000,-0.0022590532898902893,0.0225802194327116,0.08067068457603455,9.073801040649414,0.4490746855735779,-3.6563196182250977
1403715889349058000,-0.0015590563416481018,0.020473824813961983,0.07787352800369263,9.081965446472168,0.4082624912261963,-3.664475202560425
1403715889354058000,-0.0008571520447731018,0.016293155029416084,0.07646839320659637,9.114758491516113,0.4081430435180664,-3.648261070251465
1403715889359058000,-0.0008651986718177795,0.017695866525173187,0.07856352627277374,9.090211868286133,0.43269258737564087,-3.664555311203003
1403715889364058000,0.000539533793926239,0.01628229022026062,0.07646524906158447,9.131056785583496,0.3836714029312134,-3.672724962234497
1403715889369058000,-0.0022538229823112488,0.01768048107624054,0.07368311285972595,9.082029342651367,0.3919019401073456,-3.6481876373291016
1403715889374058000,-0.0022574588656425476,0.016300123184919357,0.07298396527767181,9.073936462402344,0.42451775074005127,-3.6319212913513184
1403715889379058000,-0.002244703471660614,0.019780196249485016,0.07648016512393951,9.122901916503906,0.4163091778755188,-3.631903886795044
1403715889384058000,-0.005730397999286652,0.017709817737340927,0.07647687196731567,9.131149291992188,0.4734238088130951,-3.6483054161071777
1403715889389058000,-0.0057361796498298645,0.022585898637771606,0.07649073004722595,9.08203411102295,0.46537330746650696,-3.6318624019622803
1403715889394058000,-0.002951301634311676,0.02048090286552906,0.07439017295837402,9.073860168457031,0.42457202076911926,-3.6318535804748535
1403715889399058000,-0.0043382421135902405,0.01976809650659561,0.07717712223529816,9.098336219787598,0.3836964964866638,-3.6318373680114746
1403715889404058000,-0.0015668496489524841,0.01839209347963333,0.07787148654460907,9.0493803024292,0.4245235323905945,-3.6155552864074707
1403715889409058000,-0.0043490007519721985,0.02259497530758381,0.07788871228694916,9.057578086853027,0.4816479980945587,-3.5910863876342773
1403715889414058000,-0.002254687249660492,0.019060423597693443,0.07717494666576385,9.065634727478027,0.35106024146080017,-3.615480661392212
1403715889419058000,-0.00434025377035141,0.014894066378474236,0.07437130808830261,9.114728927612305,0.40002837777137756,-3.680880546569824
1403715889424058000,-0.0015566721558570862,0.019078804180026054,0.07996486127376556,9.090203285217285,0.3999696671962738,-3.6155552864074707
1403715889429058000,-0.0036513134837150574,0.019768942147493362,0.08205865323543549,9.065629005432129,0.38369038701057434,-3.6236536502838135
1403715889434058000,-0.002939559519290924,0.020463604480028152,0.0799664705991745,9.130990982055664,0.38365620374679565,-3.64816951751709
1403715889439058000,-0.0029665306210517883,0.01978205144405365,0.080664724111557,9.016626358032227,0.41641542315483093,-3.6236448287963867
1403715889444058000,-0.0015665218234062195,0.015584072098135948,0.08204397559165955,9.065654754638672,0.375519335269928,-3.6563453674316406
1403715889449058000,-0.0029509887099266052,0.017697684466838837,0.07786716520786285,9.106554985046387,0.44084179401397705,-3.6727242469787598
1403715889454058000,-0.00225859135389328,0.01839880272746086,0.07647548615932465,9.082059860229492,0.4490312337875366,-3.656390428543091
1403715889459058000,-0.0022532567381858826,0.02256491407752037,0.07927611470222473,9.081951141357422,0.40823811292648315,-3.639970541000366
1403715889464058000,-0.0015461370348930359,0.023242633789777756,0.07788188755512238,9.114591598510742,0.35923901200294495,-3.639943838119507
1403715889469058000,-0.003643520176410675,0.020473696291446686,0.07787589728832245,9.098326683044434,0.4082077443599701,-3.648167610168457
1403715889474058000,-0.002953477203845978,0.01768503710627556,0.07438287138938904,9.065712928771973,0.40003806352615356,-3.623706817626953
1403715889479058000,-0.002235881984233856,0.021844735369086266,0.07718019187450409,9.147296905517578,0.3510262072086334,-3.648136615753174
1403715889484058000,-0.0015544220805168152,0.019778039306402206,0.07787397503852844,9.098366737365723,0.40816909074783325,-3.6318745613098145
1403715889489058000,-0.005039416253566742,0.017699718475341797,0.07787178456783295,9.098441123962402,0.44077104330062866,-3.6237728595733643
1403715889494058000,-0.002253301441669464,0.02185165509581566,0.076481893658638,9.073729515075684,0.3674846291542053,-3.664400577545166
1403715889499058000,-0.004338212311267853,0.023259572684764862,0.07648716866970062,9.09825611114502,0.4082922041416168,-3.67258882522583
1403715889504058000,-0.0029612556099891663,0.015591536648571491,0.07995545864105225,9.049367904663086,0.3918287754058838,-3.623716115951538
1403715889509058000,0.0005274936556816101,0.01838977448642254,0.08066125214099884,9.073904991149902,0.416273832321167,-3.599268674850464
1403715889514058000,-0.0015524700284004211,0.020460061728954315,0.07787148654460907,9.106431007385254,0.37559375166893005,-3.680776596069336
1403715889519058000,-0.0008608773350715637,0.01698702946305275,0.07856211066246033,9.098382949829102,0.39999470114707947,-3.6482248306274414
1403715889524058000,-0.0008690133690834045,0.021189112216234207,0.07788069546222687,9.049373626708984,0.44902175664901733,-3.6073875427246094
1403715889529058000,-0.0015470460057258606,0.02255208045244217,0.07788029313087463,9.114622116088867,0.3755521774291992,-3.6399683952331543
1403715889534058000,-0.0015634968876838684,0.020483747124671936,0.08136121928691864,9.073813438415527,0.4327148497104645,-3.656337261199951
1403715889539058000,-0.0022639259696006775,0.0204937607049942,0.08066639304161072,9.057519912719727,0.45720016956329346,-3.6400325298309326
1403715889544058000,-0.00016938894987106323,0.016283243894577026,0.07925496995449066,9.081995964050293,0.3837200105190277,-3.672678232192993
1403715889549058000,-0.0029580220580101013,0.017691005021333694,0.07716791331768036,9.073824882507324,0.4245985746383667,-3.688991069793701
1403715889554058000,-0.003648824989795685,0.018395643681287766,0.07717393338680267,9.090227127075195,0.44084304571151733,-3.6482295989990234
1403715889559058000,-0.000856257975101471,0.02048029564321041,0.07578299939632416,9.106534004211426,0.42453885078430176,-3.6482045650482178
1403715889564058000,-0.0022484585642814636,0.01698409393429756,0.07437999546527863,9.10657787322998,0.3918270170688629,-3.631908655166626
1403715889569058000,-0.0015555843710899353,0.019093558192253113,0.07508395612239838,9.09842300415039,0.440833181142807,-3.6319220066070557
1403715889574058000,-0.0015545114874839783,0.022559471428394318,0.07788160443305969,9.081964492797852,0.3918982744216919,-3.6236443519592285
1403715889579058000,-0.0022392049431800842,0.01907172054052353,0.0743824690580368,9.147364616394043,0.3918631076812744,-3.672689914703369
1403715889584058000,-0.0015598013997077942,0.016292894259095192,0.07716508209705353,9.090224266052246,0.40817990899086,-3.656390905380249
1403715889589058000,-0.0008643642067909241,0.018402688205242157,0.07717770338058472,9.07397747039795,0.4489164650440216,-3.5829896926879883
1403715889594058000,-0.0008602514863014221,0.020471952855587006,0.0771779865026474,9.082002639770508,0.400048166513443,-3.631842613220215
1403715889599058000,0.0019256994128227234,0.01979486458003521,0.07717671990394592,9.098433494567871,0.44897523522377014,-3.623774528503418
1403715889604058000,0.0033158138394355774,0.016999632120132446,0.07577510178089142,9.082138061523438,0.4244440197944641,-3.5993154048919678
1403715889609058000,-0.0022523924708366394,0.021174922585487366,0.07997077703475952,9.090177536010742,0.41634035110473633,-3.623692274093628
1403715889614058000,-0.002253212034702301,0.0190848670899868,0.07926367223262787,9.106505393981934,0.4245441257953644,-3.6808431148529053
1403715889619058000,-0.0043469443917274475,0.022595539689064026,0.07858270406723022,9.082048416137695,0.489858478307724,-3.640049457550049
1403715889624058000,-0.004345349967479706,0.019793454557657242,0.07787732779979706,9.082067489624023,0.4489923119544983,-3.623737096786499
1403715889629058000,-0.002249516546726227,0.02256881445646286,0.07648834586143494,9.090164184570312,0.4163893461227417,-3.6236729621887207
1403715889634058000,-0.0022517815232276917,0.017013870179653168,0.07577946782112122,9.106698989868164,0.4652175009250641,-3.599365234375
1403715889639058000,0.0012260451912879944,0.019081581383943558,0.07717202603816986,9.082016944885254,0.40822699666023254,-3.6481916904449463
1403715889644058000,-0.0043401047587394714,0.016970455646514893,0.07716721296310425,9.098326683044434,0.35921186208724976,-3.6563260555267334
1403715889649058000,-0.004347391426563263,0.019094765186309814,0.07996401190757751,9.090195655822754,0.44902166724205017,-3.664536714553833
1403715889654058000,-0.0008726641535758972,0.02119065448641777,0.0792723000049591,9.049331665039062,0.4572494626045227,-3.64817476272583
1403715889659058000,-0.0050408318638801575,0.01696743257343769,0.07925954461097717,9.081958770751953,0.3510524332523346,-3.656303882598877
1403715889664058000,-0.004335545003414154,0.019769471138715744,0.07996495068073273,9.122822761535645,0.39183834195137024,-3.656336784362793
1403715889669058000,-0.005741424858570099,0.01979505829513073,0.07299491763114929,9.065712928771973,0.4572452902793884,-3.648192882537842
1403715889674058000,-0.0008662715554237366,0.0218711756169796,0.07578572630882263,9.057446479797363,0.4164751470088959,-3.656285285949707
1403715889679058000,-0.0015564486384391785,0.019760895520448685,0.07856720685958862,9.090093612670898,0.36743152141571045,-3.672612190246582
1403715889684058000,-0.002960614860057831,0.017668213695287704,0.07926082611083984,9.041089057922363,0.359279990196228,-3.656273603439331
1403715889689058000,-0.00016585737466812134,0.02185068279504776,0.07997001707553864,9.065573692321777,0.3592570722103119,-3.6317718029022217
1403715889694058000,0.0019141808152198792,0.0204661563038826,0.08065688610076904,9.057357788085938,0.3920268714427948,-3.721555471420288
1403715889699058000,-0.001583985984325409,0.023288648575544357,0.07927589118480682,8.992057800292969,0.48189669847488403,-3.688896894454956
1403715889704058000,-0.009263433516025543,0.016406048089265823,0.08555227518081665,9.074183464050293,0.7101259231567383,-3.705714464187622
1403715889709058000,-0.021778739988803864,0.014271372929215431,0.08902929723262787,9.131158828735352,0.6203315258026123,-3.754560947418213
1403715889714058000,-0.02872820943593979,0.021854305639863014,0.08765389025211334,9.040996551513672,0.39189282059669495,-3.623508930206299
1403715889719058000,-0.011999331414699554,0.004956278949975967,0.09457533061504364,9.212485313415527,-0.09843267500400543,-3.664323329925537
1403715889724058000,0.015819616615772247,0.04240710288286209,0.06958669424057007,9.056475639343262,-0.6605417132377625,-3.3856213092803955
1403715889729058000,0.06739533692598343,0.007650179788470268,0.05760284140706062,9.237486839294434,-0.24513667821884155,-3.6158077716827393
1403715889734058000,0.08405423909425735,0.013628022745251656,0.05060415342450142,9.025320053100586,0.6695502400398254,-3.6567800045013428
1403715889739058000,0.049014173448085785,0.03848408907651901,0.03683147206902504,8.85493278503418,1.6478618383407593,-3.6418111324310303
1403715889744058000,-0.020284824073314667,-0.0011024344712495804,0.06973499059677124,9.0612154006958,2.2158732414245605,-3.906524658203125
1403715889749058000,-0.09883592277765274,0.0043023210018873215,0.08027029037475586,8.890154838562012,2.0122897624969482,-3.6360325813293457
1403715889754058000,-0.1380421221256256,0.01414213702082634,0.11276084184646606,9.334290504455566,0.38335493206977844,-3.8192386627197266
1403715889759058000,-0.11387891322374344,0.02846546657383442,0.09334664046764374,8.900761604309082,-0.913654088973999,-3.441633701324463
1403715889764058000,-0.03302112966775894,-0.00020524300634860992,0.11764678359031677,9.064310073852539,-1.0453317165374756,-3.385002851486206
1403715889769058000,0.03391783684492111,0.01722112111747265,0.09250591695308685,9.400073051452637,-0.914570689201355,-3.5573203563690186
1403715889774058000,0.07851208001375198,0.0536113902926445,0.06331619620323181,9.105953216552734,-0.41595879197120667,-3.329256057739258
1403715889779058000,0.09731357544660568,-0.011522458866238594,0.06517860293388367,9.254827499389648,0.5953947901725769,-3.657475233078003
1403715889784058000,0.08270140737295151,0.02634311094880104,0.07791420817375183,9.557123184204102,1.1259753704071045,-3.894380569458008
1403715889789058000,0.026715852320194244,0.05579039454460144,0.06471632421016693,8.453371047973633,1.452905535697937,-3.6979048252105713
1403715889794058000,-0.01640147715806961,0.008359478786587715,0.10174056887626648,9.215105056762695,1.4839953184127808,-3.789764404296875
1403715889799058000,-0.0573376789689064,0.03316884487867355,0.09193381667137146,9.041388511657715,0.9305161833763123,-3.746535539627075
1403715889804058000,-0.07818972319364548,0.017753463238477707,0.09674964845180511,9.139188766479492,0.7018766403198242,-3.73820424079895
1403715889809058000,-0.07960022240877151,0.01689804159104824,0.08418408036231995,8.91837215423584,0.17161907255649567,-3.500640869140625
1403715889814058000,-0.04682358354330063,0.03062422387301922,0.08698640763759613,9.449097633361816,-0.5307994484901428,-3.548966884613037
1403715889819058000,0.0025185272097587585,0.014564527198672295,0.06885212659835815,8.557755470275879,-0.5462040901184082,-3.385782480239868
1403715889824058000,0.03968774527311325,0.0278130155056715,0.05416825786232948,9.964908599853516,-0.3271021842956543,-3.786863088607788
1403715889829058000,0.06525629013776779,0.05039577931165695,0.05979946628212929,8.623516082763672,0.1967560350894928,-3.5251221656799316
1403715889834058000,0.07219009846448898,0.033227209001779556,0.053470153361558914,8.845328330993652,0.8083105683326721,-3.501528263092041
1403715889839058000,0.046427033841609955,0.02149922400712967,0.07723450660705566,9.361100196838379,1.1830967664718628,-3.837416172027588
1403715889844058000,-0.003134496510028839,0.04175204038619995,0.06265829503536224,8.789009094238281,1.3219445943832397,-3.6246910095214844
1403715889849058000,-0.04071793705224991,-0.00092327781021595,0.09741443395614624,8.911564826965332,0.9707690477371216,-3.6574878692626953
1403715889854058000,-0.06147217005491257,0.024712491780519485,0.0904884785413742,9.016837120056152,0.6284400820732117,-3.5339624881744385
1403715889859058000,-0.05869557708501816,0.006424587219953537,0.10714390873908997,9.073389053344727,0.10586537420749664,-3.6395926475524902
1403715889864058000,-0.040537409484386444,0.01262141577899456,0.09181652963161469,9.318758964538574,-0.12299778312444687,-3.5007524490356445
1403715889869058000,-0.009927220642566681,0.02928030677139759,0.08698081970214844,9.163104057312012,-0.3183750510215759,-3.516761541366577
1403715889874058000,0.026955150067806244,0.019498785957694054,0.07091973721981049,8.942530632019043,-0.3589814305305481,-3.484400987625122
1403715889879058000,0.05076078325510025,0.020282527431845665,0.0652909129858017,9.54783821105957,-0.00037800223799422383,-3.819751739501953
1403715889884058000,0.05831489711999893,0.05338125675916672,0.06470723450183868,8.97567081451416,0.6941360831260681,-3.5175905227661133
1403715889889058000,0.040833644568920135,0.026973096653819084,0.08138534426689148,8.951884269714355,0.8897998929023743,-3.648773431777954
1403715889894058000,0.014353089034557343,0.030499037355184555,0.07654725015163422,8.919442176818848,1.028361439704895,-3.591797113418579
1403715889899058000,-0.0253613218665123,0.004664672538638115,0.08277641236782074,8.928009033203125,0.9707915186882019,-3.5757951736450195
1403715889904058000,-0.04330601543188095,0.004436248913407326,0.07157282531261444,9.261853218078613,0.40794801712036133,-3.7381885051727295
1403715889909058000,-0.027951397001743317,0.022434299811720848,0.0660291463136673,9.351306915283203,0.08158247917890549,-3.7377398014068604
1403715889914058000,-0.011344946920871735,0.009243423119187355,0.08413055539131165,8.910269737243652,0.18784615397453308,-3.5826516151428223
1403715889919058000,-0.007058925926685333,0.03307720273733139,0.09116482734680176,9.425049781799316,0.6283861994743347,-3.746279716491699
1403715889924058000,-0.02113068848848343,0.03809140622615814,0.09472386538982391,8.943650245666504,0.9303555488586426,-3.5344104766845703
1403715889929058000,-0.04410741478204727,0.019841229543089867,0.09395955502986908,8.845348358154297,0.6120874881744385,-3.4523401260375977
1403715889934058000,-0.04545452445745468,0.016841914504766464,0.07928456366062164,9.0162353515625,-0.016218392178416252,-3.5741326808929443
1403715889939058000,-0.0043967291712760925,0.011657128110527992,0.06671899557113647,9.261025428771973,-0.9636914134025574,-3.638988733291626
1403715889944058000,0.06594870239496231,0.014411834999918938,0.0645955353975296,9.253212928771973,-0.8574018478393555,-3.6314079761505127
1403715889949058000,0.12033871561288834,0.03573667258024216,0.05901395156979561,9.359957695007324,0.3021300137042999,-3.795372486114502
1403715889954058000,0.09912004321813583,0.039282266050577164,0.07864923775196075,8.609761238098145,1.6726652383804321,-3.5117404460906982
1403715889959058000,0.013180769979953766,0.017135007306933403,0.07816821336746216,9.12658977508545,2.2894692420959473,-3.914689064025879
1403715889964058000,-0.07014595717191696,0.02657194621860981,0.0781821757555008,8.913969039916992,1.866377353668213,-3.577968120574951
1403715889969058000,-0.11521784216165543,-0.011454885825514793,0.09323626756668091,8.862221717834473,0.8156561255455017,-3.640799045562744
1403715889974058000,-0.10746055096387863,0.011897934600710869,0.07859937846660614,9.220276832580566,-0.3103346526622772,-3.6963515281677246
1403715889979058000,-0.04760108143091202,0.010303834453225136,0.09602999687194824,9.318048477172852,-0.9473113417625427,-3.5240767002105713
1403715889984058000,0.0046604350209236145,0.010367920622229576,0.09461112320423126,9.171294212341309,-0.5798854827880859,-3.5495011806488037
1403715889989058000,0.04649258404970169,0.038379594683647156,0.07094988226890564,9.106107711791992,-0.17132262885570526,-3.468250036239624
1403715889994058000,0.06668553501367569,0.01968546397984028,0.08553048968315125,9.114873886108398,0.1708870232105255,-3.4118130207061768
1403715889999058000,0.056832633912563324,0.0031997859477996826,0.0715099424123764,8.927369117736816,0.7512814998626709,-3.8119518756866455
1403715890004058000,0.037391193211078644,0.01505683921277523,0.05972263589501381,9.00914478302002,0.7590453028678894,-3.575269937515259
1403715890009058000,0.018577732145786285,0.007461650297045708,0.09042903780937195,9.287416458129883,0.9871708154678345,-3.7964327335357666
1403715890014058000,-0.01914813369512558,0.01730327494442463,0.08493202924728394,8.977112770080566,1.2156249284744263,-3.73942494392395
1403715890019058000,-0.04825601726770401,0.026230236515402794,0.09959341585636139,9.156255722045898,0.9545239210128784,-3.6000235080718994
1403715890024058000,-0.07057470828294754,0.01357199065387249,0.10300908982753754,8.97593879699707,0.6691996455192566,-3.6483500003814697
1403715890029058000,-0.0677536353468895,0.0029064230620861053,0.08136418461799622,9.032907485961914,-0.057344041764736176,-3.419114589691162
1403715890034058000,-0.03084384649991989,0.018072867766022682,0.09533102810382843,9.252950668334961,-0.5226986408233643,-3.5410268306732178
1403715890039058000,0.013733379542827606,0.015313947573304176,0.07090555131435394,9.065208435058594,-0.36733493208885193,-3.590613842010498
1403715890044058000,0.047943346202373505,0.018895326182246208,0.06947652995586395,9.417057037353516,-0.016630345955491066,-3.7544329166412354
1403715890049058000,0.06387504190206528,0.0414503738284111,0.067447230219841,8.902042388916016,0.49831077456474304,-3.5501468181610107
1403715890054058000,0.05125913769006729,0.022857623174786568,0.06183968856930733,9.041973114013672,1.0449250936508179,-3.7632789611816406
1403715890059058000,0.013669215142726898,0.033261120319366455,0.0625935047864914,8.853918075561523,0.9795288443565369,-3.5343987941741943
1403715890064058000,-0.013590358197689056,0.01237357035279274,0.08278439939022064,8.772696495056152,1.0853101015090942,-3.6410138607025146
1403715890069058000,-0.04550638049840927,0.0024692006409168243,0.07856354117393494,9.017226219177246,0.7507902979850769,-3.714041233062744
1403715890074058000,-0.05169827491044998,0.01140022836625576,0.08902660012245178,9.139119148254395,0.39984437823295593,-3.664478302001953
1403715890079058000,-0.047504670917987823,0.010638989508152008,0.08344285190105438,9.17989444732666,0.19569942355155945,-3.623518228530884
1403715890084058000,-0.025878556072711945,0.023059776052832603,0.08485536277294159,9.41661548614502,-0.13917112350463867,-3.6558735370635986
1403715890089058000,0.0018909797072410583,0.028628895059227943,0.08559061586856842,8.926118850708008,-0.18752576410770416,-3.443389654159546
1403715890094058000,0.023535631597042084,0.023734739050269127,0.07718417048454285,9.269746780395508,-0.17984728515148163,-3.566302537918091
1403715890099058000,0.047161899507045746,0.014117514714598656,0.08272528648376465,8.9429931640625,0.17144668102264404,-3.6073992252349854
1403715890104058000,0.05059259384870529,0.021348737180233,0.08274637162685394,8.951774597167969,0.7755959033966064,-3.673161268234253
1403715890109058000,0.027568615972995758,0.013114559464156628,0.0876680463552475,9.099763870239258,1.1095638275146484,-3.6904594898223877
1403715890114058000,-0.01910259574651718,0.017283879220485687,0.08563658595085144,9.164782524108887,1.1911907196044922,-3.845566511154175
1403715890119058000,-0.05527319759130478,0.016481690108776093,0.09538577497005463,9.041990280151367,0.9708495140075684,-3.6490864753723145
1403715890124058000,-0.06772308796644211,0.01552027277648449,0.09254123270511627,9.098259925842285,0.2037990540266037,-3.4519102573394775
1403715890129058000,-0.03576502948999405,0.010372402146458626,0.08975833654403687,9.032129287719727,-0.6367140412330627,-3.4591827392578125
1403715890134058000,0.025558941066265106,-0.0009042229503393173,0.0743478536605835,9.261329650878906,-0.8737326264381409,-3.492293119430542
1403715890139058000,0.07506755739450455,0.018806559965014458,0.06250083446502686,9.335421562194824,-0.22061961889266968,-3.754518747329712
1403715890144058000,0.08617938309907913,0.028994102030992508,0.038108889013528824,9.18864917755127,0.7511455416679382,-3.648573160171509
1403715890149058000,0.051147378981113434,0.03154023736715317,0.06064477935433388,9.345598220825195,1.7452363967895508,-3.9285361766815186
1403715890154058000,-0.02302476018667221,0.04762236028909683,0.059186745434999466,8.373761177062988,2.143357038497925,-3.578035831451416
1403715890159058000,-0.09502517431974411,0.019373033195734024,0.07668648660182953,9.059226989746094,1.3618552684783936,-3.690838575363159
1403715890164058000,-0.12429412454366684,0.004964800551533699,0.10511422157287598,8.656529426574707,-0.048496875911951065,-3.5245048999786377
1403715890169058000,-0.07971770316362381,0.0019349325448274612,0.09606142342090607,8.909083366394043,-0.9712679982185364,-3.3031129837036133
1403715890174058000,0.003984726965427399,-0.0079414714127779,0.09801982343196869,9.579710960388184,-1.3481673002243042,-3.573166608810425
1403715890179058000,0.06945780664682388,0.04446602612733841,0.06466569006443024,9.359363555908203,-0.6284770965576172,-3.6557886600494385
1403715890184058000,0.0952124372124672,0.021187128499150276,0.05760291591286659,9.008604049682617,0.41641682386398315,-3.6076393127441406
1403715890189058000,0.07844214886426926,0.034061022102832794,0.05839565768837929,9.05850601196289,1.117933750152588,-3.5349395275115967
1403715890194058000,0.03311968594789505,0.037577107548713684,0.06750644743442535,9.009322166442871,1.2324734926223755,-3.7716400623321533
1403715890199058000,-0.0073791369795799255,0.013827239163219929,0.08209393918514252,8.756429672241211,1.2240055799484253,-3.7392520904541016
1403715890204058000,-0.04352521151304245,0.012435561046004295,0.09891501069068909,8.98579216003418,1.2640501260757446,-3.6010749340057373
1403715890209058000,-0.08242610841989517,0.01287605706602335,0.09325739741325378,8.902543067932129,0.6937369704246521,-3.6320013999938965
1403715890214058000,-0.07809332758188248,-0.0012928023934364319,0.08759748935699463,9.514570236206055,-0.06613023579120636,-3.9011244773864746
1403715890219058000,-0.041262976825237274,0.019496088847517967,0.08208443224430084,9.318619728088379,-0.43286892771720886,-3.418605089187622
1403715890224058000,-0.00086946040391922,0.04105600714683533,0.06957222521305084,9.277368545532227,-0.5466914176940918,-3.581868886947632
1403715890229058000,0.03114178031682968,0.013979529961943626,0.06392395496368408,8.926433563232422,-0.1958070546388626,-3.4764938354492188
1403715890234058000,0.04369986802339554,0.03653763234615326,0.06605446338653564,8.983880996704102,0.4409594237804413,-3.509399890899658
1403715890239058000,0.04779825359582901,0.010779235512018204,0.0827145129442215,8.71448040008545,0.5143795013427734,-3.5258617401123047
1403715890244058000,0.0318823978304863,0.011551188305020332,0.06599357724189758,9.368631362915039,0.7834693193435669,-3.820338726043701
1403715890249058000,0.005227483808994293,-0.003661254420876503,0.08063012361526489,8.919953346252441,1.0443971157073975,-3.722940444946289
1403715890254058000,-0.01972641795873642,0.015749584883451462,0.07093001902103424,8.952056884765625,0.8078983426094055,-3.5344700813293457
1403715890259058000,-0.033549465239048004,-0.0010766349732875824,0.08759789168834686,9.392895698547363,0.5953105092048645,-3.746802568435669
1403715890264058000,-0.03990412503480911,0.013490279205143452,0.09600742161273956,8.943034172058105,0.3918253481388092,-3.58270001411438
1403715890269058000,-0.03358849138021469,0.008508775383234024,0.0945931226015091,9.171744346618652,0.08120308816432953,-3.5336709022521973
1403715890274058000,-0.011374972760677338,0.003604346886277199,0.099490687251091,8.795751571655273,0.007940748706459999,-3.321272850036621
1403715890279058000,0.009621940553188324,0.011216344311833382,0.0736600011587143,9.310654640197754,-0.09827423095703125,-3.754262924194336
1403715890284058000,0.025665365159511566,0.006345862522721291,0.05969526246190071,9.409038543701172,-0.04121589660644531,-3.7137019634246826
1403715890289058000,0.04021394997835159,0.026100680232048035,0.06043723598122597,9.03309154510498,0.5063470005989075,-3.623772144317627
1403715890294058000,0.03603292256593704,0.03167637437582016,0.07021251320838928,9.041040420532227,0.5147014856338501,-3.7378933429718018
1403715890299058000,0.019238241016864777,0.021372860297560692,0.07440236210823059,8.89474868774414,0.8734422922134399,-3.607898712158203
1403715890304058000,-0.010028041899204254,0.012342732399702072,0.08348964154720306,8.927955627441406,0.9789761304855347,-3.5267839431762695
1403715890309058000,-0.03150268644094467,0.019151747226715088,0.07719914615154266,9.172029495239258,0.6448786854743958,-3.7300405502319336
1403715890314058000,-0.03574175387620926,0.009220222011208534,0.08135545253753662,8.795778274536133,0.1390521079301834,-3.55788516998291
1403715890319058000,-0.021011196076869965,0.0014887265861034393,0.05692056193947792,9.310924530029297,-0.0656735971570015,-3.6074326038360596
1403715890324058000,0.008205883204936981,0.01552499271929264,0.06599675118923187,9.130938529968262,0.22867587208747864,-3.697115182876587
1403715890329058000,0.014483220875263214,0.017765572294592857,0.06671440601348877,9.245865821838379,0.6120389699935913,-3.632323741912842
1403715890334058000,-0.007844872772693634,0.02973083034157753,0.07795310020446777,9.229640007019043,0.9385221004486084,-3.7141716480255127
1403715890339058000,-0.04769132286310196,0.03535972535610199,0.09196285903453827,8.829545021057129,1.1587169170379639,-3.6979854106903076
1403715890344058000,-0.06915003806352615,0.021175993606448174,0.1016385555267334,8.951383590698242,0.4731716215610504,-3.386826515197754
1403715890349058000,-0.04689117521047592,0.024335792288184166,0.11209763586521149,9.228100776672363,-0.6207780241966248,-3.6305148601531982
1403715890354058000,0.009509392082691193,0.03047686256468296,0.08839069306850433,8.998763084411621,-0.9466849565505981,-3.4668667316436768
1403715890359058000,0.0784604474902153,-0.007259724661707878,0.07639969885349274,9.02400016784668,-0.9796925783157349,-3.337218999862671
1403715890364058000,0.12520372867584229,0.03911963105201721,0.06949935853481293,9.360163688659668,0.07301116734743118,-3.5179901123046875
1403715890369058000,0.09758023172616959,0.00943184457719326,0.05695951357483864,8.822846412658691,1.9409035444259644,-3.8723971843719482
1403715890374058000,0.01594650000333786,0.015063149854540825,0.06081511452794075,9.36435317993164,2.4762587547302246,-3.9721271991729736
1403715890379058000,-0.07729054242372513,0.016772055998444557,0.08989055454730988,8.366297721862793,1.8416880369186401,-3.4799184799194336
1403715890384058000,-0.12345617264509201,-0.00043868646025657654,0.10576590895652771,9.171655654907227,0.43217799067497253,-3.664492130279541
1403715890389058000,-0.0929071381688118,0.009647032245993614,0.10373030602931976,9.318015098571777,-0.9310207962989807,-3.4910643100738525
1403715890394058000,-0.030206583440303802,0.003982098773121834,0.07231450080871582,8.974523544311523,-0.9957265853881836,-3.360746383666992
1403715890399058000,0.03534746915102005,0.006096461787819862,0.0513400174677372,9.457913398742676,-0.7594773769378662,-3.6478867530822754
1403715890404058000,0.08620140701532364,0.03414066135883331,0.05208231881260872,9.310824394226074,-0.2204156070947647,-3.599259376525879
1403715890409058000,0.08820085972547531,0.012195293791592121,0.03732748702168465,8.755244255065918,0.5718166828155518,-3.574711561203003
1403715890414058000,0.07146211713552475,0.02780391275882721,0.05488959327340126,9.107656478881836,1.167040467262268,-3.681931257247925
1403715890419058000,0.03294268995523453,0.011862490326166153,0.0911448746919632,8.691365242004395,1.3871700763702393,-3.772569417953491
1403715890424058000,-0.021322421729564667,0.0013398528099060059,0.0786316841840744,8.936964988708496,1.3783106803894043,-3.7401773929595947
1403715890429058000,-0.060133956372737885,-0.002998078241944313,0.0883808434009552,9.165181159973145,1.0193463563919067,-3.617077589035034
1403715890434058000,-0.0858045145869255,0.007938362658023834,0.08276224136352539,9.269688606262207,0.5304579734802246,-3.844273328781128
1403715890439058000,-0.0768294706940651,7.611885666847229e-05,0.08763033151626587,9.040733337402344,-0.1797628104686737,-3.598578453063965
1403715890444058000,-0.04193110018968582,0.02230025641620159,0.08556468784809113,9.424689292907715,-0.3759046494960785,-3.639235258102417
1403715890449058000,-0.005786888301372528,0.021616654470562935,0.08348305523395538,8.93415641784668,-0.31001827120780945,-3.5984947681427
1403715890454058000,0.03671503812074661,0.025087298825383186,0.08975289762020111,9.040631294250488,-0.31026872992515564,-3.459972381591797
1403715890459058000,0.06460662931203842,0.026576219126582146,0.08553802967071533,9.188071250915527,-0.016552584245800972,-3.6319026947021484
1403715890464058000,0.06109651178121567,0.022635523229837418,0.04855096712708473,9.04947566986084,0.555433988571167,-3.6972692012786865
1403715890469058000,0.04921417683362961,0.013004375621676445,0.052728403359651566,9.066414833068848,0.8571599721908569,-3.7059504985809326
1403715890474058000,0.02415197342634201,0.024970224127173424,0.06052102521061897,9.271210670471191,1.1749396324157715,-3.722946882247925
1403715890479058000,-0.016375340521335602,0.02987963892519474,0.07380698621273041,8.91974925994873,1.2973694801330566,-3.755600690841675
1403715890484058000,-0.05733295530080795,0.02484472282230854,0.08914043009281158,9.090950965881348,0.9954209923744202,-3.6490094661712646
1403715890489058000,-0.0782446339726448,0.01974281296133995,0.10441535711288452,8.795825004577637,0.4083399474620819,-3.5252087116241455
1403715890494058000,-0.063604436814785,0.00842110626399517,0.09323625266551971,8.991730690002441,-0.22048673033714294,-3.3942208290100098
1403715890499058000,-0.026626117527484894,0.010412653908133507,0.07368732988834381,9.384015083312988,-0.4902263879776001,-3.6394543647766113
1403715890504058000,0.015126310288906097,0.016675209626555443,0.06462973356246948,9.114192962646484,-0.45725002884864807,-3.7213008403778076
1403715890509058000,0.0499524250626564,0.01816979981958866,0.06810669600963593,8.975496292114258,-0.15506553649902344,-3.517448663711548
1403715890514058000,0.061853401362895966,0.02403012290596962,0.06739020347595215,9.417229652404785,0.6204383969306946,-3.8689262866973877
1403715890519058000,0.029594428837299347,0.031282685697078705,0.07723657786846161,8.748011589050293,1.1834365129470825,-3.608309268951416
1403715890524058000,-0.0044996365904808044,0.018693972378969193,0.08422213792800903,8.977120399475098,1.166701316833496,-3.674015760421753
1403715890529058000,-0.027300991117954254,0.025319073349237442,0.08279299736022949,9.13105583190918,0.326278418302536,-3.4521737098693848
1403715890534058000,-0.019718177616596222,0.002850554883480072,0.07577331364154816,8.852885246276855,-0.16317357122898102,-3.4680910110473633
1403715890539058000,0.0054783895611763,0.007026815786957741,0.06807088851928711,9.457940101623535,-0.10664073377847672,-3.729888677597046
1403715890544058000,0.02694595605134964,0.004523491486907005,0.06666310131549835,8.959981918334961,0.5795140266418457,-3.575141429901123
1403715890549058000,0.009481675922870636,0.013119452632963657,0.07305286824703217,9.303852081298828,1.2075295448303223,-3.886500358581543
1403715890554058000,-0.033699773252010345,0.02363402582705021,0.08016717433929443,9.288317680358887,1.4271184206008911,-3.699307918548584
1403715890559058000,-0.07623197883367538,0.015798041597008705,0.09122253954410553,8.846151351928711,1.0605238676071167,-3.616478204727173
1403715890564058000,-0.08163701742887497,0.025212790817022324,0.08628018200397491,9.195883750915527,0.024482453241944313,-3.5903029441833496
1403715890569058000,-0.03997913748025894,0.01099088229238987,0.08350257575511932,8.868167877197266,-0.8976174592971802,-3.3687915802001953
1403715890574058000,0.01926017552614212,0.006821790710091591,0.07508811354637146,8.917677879333496,-0.7263745665550232,-3.4104998111724854
1403715890579058000,0.05906734615564346,0.011160960420966148,0.05342850461602211,9.376507759094238,-0.17993943393230438,-3.583148717880249
1403715890584058000,0.07150889188051224,0.01434149220585823,0.05828617885708809,9.04982852935791,0.710407018661499,-3.730239152908325
1403715890589058000,0.05121246725320816,0.0242918748408556,0.05974281206727028,8.878582000732422,1.1184018850326538,-3.714271306991577
1403715890594058000,0.015028245747089386,0.020875580608844757,0.05148761346936226,9.271632194519043,1.4031217098236084,-3.8051369190216064
1403715890599058000,-0.041412822902202606,0.015859194099903107,0.08144518733024597,8.968801498413086,1.1503492593765259,-3.7228941917419434
1403715890604058000,-0.057995207607746124,0.030917596071958542,0.08351629972457886,8.902146339416504,0.4574207365512848,-3.541654109954834
1403715890609058000,-0.05243804305791855,0.002967188134789467,0.08762861788272858,8.943073272705078,0.1549241840839386,-3.4601504802703857
1403715890614058000,-0.0412704274058342,0.007110653445124626,0.06948699057102203,9.032756805419922,0.06539271026849747,-3.6723713874816895
1403715890619058000,-0.013345636427402496,0.01119455136358738,0.06948414444923401,9.400437355041504,-0.17999915778636932,-3.786825180053711
1403715890624058000,0.01443406194448471,0.018163105472922325,0.06462374329566956,8.98347282409668,-0.18756036460399628,-3.6805007457733154
1403715890629058000,0.030508436262607574,0.034315139055252075,0.04860629513859749,9.171566009521484,0.1636318862438202,-3.7051048278808594
1403715890634058000,0.03675442188978195,0.035174351185560226,0.06952965259552002,9.171799659729004,0.5553560256958008,-3.72983717918396
1403715890639058000,0.02901855856180191,0.03661198914051056,0.0862816721200943,8.812289237976074,0.6290148496627808,-3.63175368309021
1403715890644058000,0.017176635563373566,0.03384029120206833,0.08141113817691803,8.771660804748535,0.6858804821968079,-3.4768238067626953
1403715890649058000,-0.007232017815113068,0.00881163589656353,0.08346493542194366,8.878711700439453,0.8566392064094543,-3.485743999481201
1403715890654058000,-0.023805253207683563,0.009359853342175484,0.08343341946601868,9.32727336883545,0.5466293692588806,-3.7628233432769775
1403715890659058000,-0.02661231905221939,0.020441468805074692,0.08345942199230194,9.147171974182129,0.34286561608314514,-3.6725146770477295
1403715890664058000,-0.023121215403079987,0.019050464034080505,0.07648864388465881,9.163704872131348,0.33458900451660156,-3.5910027027130127
1403715890669058000,-0.021664075553417206,0.03224721550941467,0.08418263494968414,9.416753768920898,0.2609242796897888,-3.6071417331695557
1403715890674058000,-0.010602898895740509,0.03572234883904457,0.08767710626125336,9.065091133117676,0.18802985548973083,-3.672147274017334
1403715890679058000,0.010264195501804352,0.034281037747859955,0.08071291446685791,8.909893035888672,0.024794740602374077,-3.484377145767212
1403715890684058000,0.022133775055408478,0.02875818870961666,0.06673766672611237,9.073668479919434,0.1796976774930954,-3.5419135093688965
1403715890689058000,0.026984520256519318,0.010737144388258457,0.05900149419903755,9.074088096618652,0.4490797817707062,-3.6728663444519043
1403715890694058000,0.027646593749523163,0.00942118838429451,0.06109074130654335,9.017109870910645,0.6368260383605957,-3.6730263233184814
1403715890699058000,0.007440291345119476,0.014390077441930771,0.05904798582196236,9.09912109375,0.8815134763717651,-3.6978487968444824
1403715890704058000,-0.023176364600658417,0.008800026029348373,0.0702245682477951,9.197314262390137,0.881171464920044,-3.681771755218506
1403715890709058000,-0.03713061660528183,0.016407186165452003,0.07999259233474731,9.033374786376953,0.7591235637664795,-3.705688953399658
1403715890714058000,-0.03425220400094986,0.026652101427316666,0.08208991587162018,9.212553024291992,0.16308923065662384,-3.509079694747925
1403715890719058000,-0.015504248440265656,0.018853290006518364,0.07301382720470428,9.065279006958008,-0.24482540786266327,-3.476156234741211
1403715890724058000,0.010300882160663605,0.012646080926060677,0.05693522468209267,9.163686752319336,-0.024527212604880333,-3.599149703979492
1403715890729058000,0.02488880604505539,0.021863088011741638,0.06810660660266876,8.967616081237793,0.36751410365104675,-3.566526174545288
1403715890734058000,0.01153794676065445,0.01096795592457056,0.06461594998836517,9.03384780883789,1.0366365909576416,-3.828684091567993
1403715890739058000,-0.02189304679632187,0.017967715859413147,0.07655492424964905,8.993390083312988,1.1422170400619507,-3.6738944053649902
1403715890744058000,-0.048264436423778534,0.01987183280289173,0.09952805936336517,9.163582801818848,0.7591360807418823,-3.877056121826172
1403715890749058000,-0.04967503994703293,0.03490021824836731,0.10586005449295044,8.877119064331055,-0.17937801778316498,-3.2223961353302
1403715890754058000,-0.009284622967243195,-0.003026651218533516,0.08342726528644562,9.21993637084961,-1.086197853088379,-3.4507851600646973
1403715890759058000,0.07294226437807083,0.03890302777290344,0.07371540367603302,9.326732635498047,-0.5878412127494812,-3.6967756748199463
1403715890764058000,0.09934460371732712,0.00940161757171154,0.06525731086730957,8.706326484680176,0.5383420586585999,-3.297748327255249
1403715890769058000,0.06380150467157364,0.020905546844005585,0.05774307623505592,9.483863830566406,1.427737832069397,-4.001147747039795
1403715890774058000,0.004187725484371185,0.021176258102059364,0.06476250290870667,8.660719871520996,2.054016351699829,-3.5622060298919678
1403715890779058000,-0.05957186967134476,-0.004234449937939644,0.06756569445133209,9.247797012329102,1.5083359479904175,-3.8388547897338867
1403715890784058000,-0.08433573693037033,0.05667126923799515,0.09474010765552521,9.342432022094727,0.5228176116943359,-3.753567934036255
1403715890789058000,-0.07891509681940079,0.007042774930596352,0.06812068819999695,8.999934196472168,-0.187587171792984,-3.606718063354492
1403715890794058000,-0.03155515342950821,0.03480201214551926,0.08073732256889343,9.064743995666504,-0.5382861495018005,-3.434532642364502
1403715890799058000,0.005402259528636932,0.04401784390211105,0.07029050588607788,8.942625045776367,-0.0404701866209507,-3.3291995525360107
1403715890804058000,0.027063436806201935,0.00431736558675766,0.06873951852321625,9.441641807556152,0.13025414943695068,-3.8525309562683105
1403715890809058000,0.03531821817159653,0.03792360797524452,0.07721813023090363,8.836599349975586,0.416681706905365,-3.5091872215270996
1403715890814058000,0.029053978621959686,0.023346928879618645,0.061821360141038895,9.065729141235352,0.6126406192779541,-3.7870097160339355
1403715890819058000,0.022801928222179413,0.019838305190205574,0.07088857889175415,9.082184791564941,0.5470448136329651,-3.6810054779052734
1403715890824058000,0.014402277767658234,0.039507124572992325,0.08283701539039612,9.082265853881836,0.9226124286651611,-3.7628695964813232
1403715890829058000,-0.009250916540622711,0.026902124285697937,0.07932277023792267,9.090644836425781,0.8162054419517517,-3.640479326248169
1403715890834058000,-0.03016916662454605,0.018516940996050835,0.09395492076873779,9.009016036987305,0.7751864194869995,-3.567068338394165
1403715890839058000,-0.04756426066160202,0.042837321758270264,0.09611067175865173,8.877650260925293,0.6696172952651978,-3.549959897994995
1403715890844058000,-0.03989710658788681,0.003620510920882225,0.10434971749782562,9.03262996673584,0.048696864396333694,-3.5825095176696777
