#timestamp [ns],w_RS_S_x [rad s^-1],w_RS_S_y [rad s^-1],w_RS_S_z [rad s^-1],a_RS_S_x [m s^-2],a_RS_S_y [m s^-2],a_RS_S_z [m s^-2]
1403715886544058000,-0.0020943951023931952,0.01884955592153876,0.07609635538695278,9.062979041666667,0.4494714583333333,-3.6529771249999996
1403715886549058000,-0.003490658503988659,0.021642082724729686,0.07609635538695278,9.062979041666667,0.416782625,-3.6366327083333334
1403715886554058000,-0.0027925268031909274,0.01884955592153876,0.0767944870877505,9.062979041666667,0.367749375,-3.6611493333333334
1403715886559058000,0.0006981317007977319,0.016057029118347832,0.07958701389094143,9.054806833333332,0.4004382083333333,-3.6202882916666663
1403715886564058000,-0.0013962634015954637,0.01884955592153876,0.07749261878854824,9.062979041666667,0.367749375,-3.6121160833333334
1403715886569058000,-0.0006981317007977319,0.013962634015954637,0.07749261878854824,9.095667875,0.40861041666666664,-3.6284604999999996
1403715886574058000,-0.0020943951023931952,0.013962634015954637,0.07749261878854824,9.079323458333333,0.392266,-3.6121160833333334
1403715886579058000,-0.0020943951023931952,0.0153588974175501,0.07609635538695278,9.062979041666667,0.40861041666666664,-3.6202882916666663
1403715886584058000,-0.0020943951023931952,0.012566370614359173,0.07819075048934597,9.054806833333332,0.40861041666666664,-3.6529771249999996
1403715886589058000,-0.0006981317007977319,0.01815142422074103,0.07819075048934597,9.046634625,0.392266,-3.6448049166666663
1403715886594058000,-0.0020943951023931952,0.01815142422074103,0.07609635538695278,9.112012291666666,0.4739880833333333,-3.693838166666666
1403715886599058000,-0.003490658503988659,0.01815142422074103,0.07749261878854824,9.062979041666667,0.416782625,-3.6448049166666663
1403715886604058000,-0.006283185307179587,0.020943951023931952,0.07749261878854824,9.07115125,0.392266,-3.6039438749999997
1403715886609058000,-0.004886921905584123,0.016755160819145562,0.07330382858376185,9.144701125,0.40861041666666664,-3.6284604999999996
1403715886614058000,-0.0041887902047863905,0.01884955592153876,0.07120943348136866,9.103840083333333,0.4494714583333333,-3.6448049166666663
1403715886619058000,-0.004886921905584123,0.02024581932313422,0.07749261878854824,9.103840083333333,0.40861041666666664,-3.6611493333333334
1403715886624058000,-0.0020943951023931952,0.01884955592153876,0.07539822368615504,9.112012291666666,0.40861041666666664,-3.6448049166666663
1403715886629058000,-0.0020943951023931952,0.016057029118347832,0.07539822368615504,9.062979041666667,0.3840937916666667,-3.6529771249999996
1403715886634058000,-0.0013962634015954637,0.016755160819145562,0.07400196028455958,9.079323458333333,0.3759215833333333,-3.6856659583333333
1403715886639058000,0.0,0.01815142422074103,0.07888888219014369,9.030290208333332,0.40861041666666664,-3.6611493333333334
1403715886644058000,-0.0020943951023931952,0.02024581932313422,0.07819075048934597,9.022118,0.43312704166666666,-3.6284604999999996
1403715886649058000,-0.003490658503988659,0.019547687622336492,0.08098327729253688,9.087495666666666,0.43312704166666666,-3.6448049166666663
1403715886654058000,-0.0013962634015954637,0.020943951023931952,0.08098327729253688,9.087495666666666,0.416782625,-3.6284604999999996
1403715886659058000,0.0006981317007977319,0.02234021442552742,0.08028514559173915,9.054806833333332,0.3840937916666667,-3.6448049166666663
1403715886664058000,-0.0041887902047863905,0.02024581932313422,0.07749261878854824,9.087495666666666,0.3840937916666667,-3.6693215416666662
1403715886669058000,-0.0020943951023931952,0.020943951023931952,0.07958701389094143,9.095667875,0.392266,-3.6202882916666663
1403715886674058000,-0.0020943951023931952,0.02024581932313422,0.07609635538695278,9.1201845,0.3840937916666667,-3.6366327083333334
1403715886679058000,-0.004886921905584123,0.016057029118347832,0.07819075048934597,9.087495666666666,0.392266,-3.6202882916666663
1403715886684058000,-0.003490658503988659,0.019547687622336492,0.07819075048934597,9.038462416666666,0.3840937916666667,-3.6202882916666663
1403715886689058000,-0.005528438836336136,0.021326452493667603,0.07729709148406982,9.083380699157715,0.40244606137275696,-3.6744143962860107
1403715886694058000,-0.0034576207399368286,0.020838767290115356,0.07859069854021072,9.074827194213867,0.4106241762638092,-3.6663284301757812
1403715886699058000,-0.005436129868030548,0.02415335178375244,0.07385775446891785,9.081992149353027,0.3472388982772827,-3.642561435699463
1403715886704058000,-0.004223555326461792,0.02203841507434845,0.07523492723703384,9.106732368469238,0.4266231656074524,-3.666630506515503
1403715886709058000,-0.0035509541630744934,0.01811525970697403,0.07717429101467133,9.082803726196289,0.4186382293701172,-3.666565179824829
1403715886714058000,-0.004074349999427795,0.021329447627067566,0.07523608952760696,9.066800117492676,0.33936744928359985,-3.6585869789123535
1403715886719058000,-0.004251599311828613,0.023341849446296692,0.07657620310783386,9.156204223632812,0.4418402314186096,-3.7141010761260986
1403715886724058000,-0.003529101610183716,0.02099442481994629,0.07789507508277893,9.083105087280273,0.37040525674819946,-3.6901967525482178
1403715886729058000,-0.0053836628794670105,0.024245448410511017,0.07791977375745773,9.123322486877441,0.33884960412979126,-3.6743688583374023
1403715886734058000,-0.002906281501054764,0.018734820187091827,0.07922196388244629,9.123884201049805,0.39361241459846497,-3.674555778503418
1403715886739058000,-0.003465697169303894,0.022786378860473633,0.07923208922147751,9.107073783874512,0.37029170989990234,-3.6585793495178223
1403715886744058000,-0.004044424742460251,0.024763628840446472,0.07991742342710495,9.131361961364746,0.3547907769680023,-3.6506948471069336
1403715886749058000,-0.0015945881605148315,0.021572574973106384,0.08057098835706711,9.067231178283691,0.40192458033561707,-3.650890350341797
1403715886754058000,-0.0034601837396621704,0.024867944419384003,0.07790803164243698,9.067059516906738,0.41071999073028564,-3.6666390895843506
1403715886759058000,-0.004869706928730011,0.022664472460746765,0.07859739661216736,9.051621437072754,0.42722445726394653,-3.690645933151245
1403715886764058000,-0.002333998680114746,0.023463457822799683,0.07851337641477585,9.050332069396973,0.41866597533226013,-3.6512022018432617
1403715886769058000,-0.00404854491353035,0.022093981504440308,0.0758986845612526,9.058448791503906,0.38727399706840515,-3.666959285736084
1403715886774058000,-0.00480019673705101,0.023414507508277893,0.07451613247394562,9.09870433807373,0.3949158787727356,-3.674816608428955
1403715886779058000,-0.005538634955883026,0.024164021015167236,0.07448995858430862,9.105992317199707,0.37833261489868164,-3.6351308822631836
1403715886784058000,-0.004103347659111023,0.022840164601802826,0.07583809643983841,9.106566429138184,0.39452633261680603,-3.627196788787842
1403715886789058000,-0.006134208291769028,0.020809605717658997,0.07584410905838013,9.067129135131836,0.40257522463798523,-3.658747434616089
1403715886794058000,-0.0009184926748275757,0.018722746521234512,0.07858303189277649,9.06723690032959,0.3944214880466461,-3.6585803031921387
1403715886799058000,-0.0032870061695575714,0.0200590081512928,0.07795640826225281,9.091063499450684,0.36240366101264954,-3.658449649810791
1403715886804058000,-0.0034311898052692413,0.01943659409880638,0.07792104780673981,9.098544120788574,0.4262065291404724,-3.6587142944335938
1403715886809058000,-0.004887096583843231,0.022195249795913696,0.07652441412210464,9.09804630279541,0.38682281970977783,-3.642739772796631
1403715886814058000,-0.0034562088549137115,0.020840711891651154,0.07651838660240173,9.106428146362305,0.3870314955711365,-3.642831802368164
1403715886819058000,-0.00476856529712677,0.020146332681179047,0.07582174986600876,9.090739250183105,0.38667336106300354,-3.642827272415161
1403715886824058000,-0.002836577594280243,0.02211453765630722,0.07587220519781113,9.083523750305176,0.338717520236969,-3.7057929039001465
1403715886829058000,-0.006089646369218826,0.02008211240172386,0.08056307584047318,9.132026672363281,0.4339553117752075,-3.6823322772979736
1403715886834058000,-0.006840329617261887,0.020152613520622253,0.07585085928440094,9.098968505859375,0.3945169150829315,-3.642948627471924
1403715886839058000,-0.004959791898727417,0.025421909987926483,0.07720111310482025,9.082799911499023,0.36321160197257996,-3.658582925796509
1403715886844058000,-0.0021124184131622314,0.020868897438049316,0.07984641939401627,9.083173751831055,0.37830546498298645,-3.6506600379943848
1403715886849058000,-0.004719708114862442,0.019556239247322083,0.07725220173597336,9.075403213500977,0.39424559473991394,-3.6826441287994385
1403715886854058000,-0.005593936890363693,0.022531770169734955,0.07517640292644501,9.091025352478027,0.45092812180519104,-3.6669750213623047
1403715886859058000,-0.005578592419624329,0.02268776297569275,0.07651618868112564,9.091020584106445,0.4107169806957245,-3.6666793823242188
1403715886864058000,-0.0067870356142520905,0.02223808318376541,0.07453659921884537,9.106649398803711,0.37899115681648254,-3.6350560188293457
1403715886869058000,-0.007544666528701782,0.0188109390437603,0.07853133231401443,9.091573715209961,0.3703160881996155,-3.674525499343872
1403715886874058000,-0.004228260368108749,0.018699131906032562,0.07789365947246552,9.08356761932373,0.37000736594200134,-3.674489736557007
1403715886879058000,-0.005382344126701355,0.020626291632652283,0.07527316361665726,9.051007270812988,0.386814147233963,-3.651021718978882
1403715886884058000,-0.004194874316453934,0.018757931888103485,0.07851787656545639,9.107242584228516,0.44257286190986633,-3.6431291103363037
1403715886889058000,-0.0022621937096118927,0.020821906626224518,0.07782731205224991,9.07437801361084,0.4109208583831787,-3.650850772857666
1403715886894058000,-0.0060407258570194244,0.022077813744544983,0.07589061558246613,9.082736015319824,0.3706527054309845,-3.6744539737701416
1403715886899058000,-0.0023063309490680695,0.019449226558208466,0.0737876445055008,9.082725524902344,0.3943973183631897,-3.6588566303253174
1403715886904058000,-0.0015691109001636505,0.02074071764945984,0.07652391493320465,9.058506965637207,0.41878077387809753,-3.6589105129241943
1403715886909058000,-0.001303594559431076,0.0166570246219635,0.07718726247549057,9.115235328674316,0.41094398498535156,-3.6587233543395996
1403715886914058000,-0.0041344910860061646,0.019384734332561493,0.07716471701860428,9.10712718963623,0.3865751624107361,-3.6665759086608887
1403715886919058000,-0.0008692741394042969,0.019381780177354813,0.07720060646533966,9.058158874511719,0.37071123719215393,-3.63499116897583
1403715886924058000,-0.0046745650470256805,0.018152877688407898,0.07724083960056305,9.115480422973633,0.38618963956832886,-3.6586356163024902
1403715886929058000,-0.005570445209741592,0.018738865852355957,0.07855018973350525,9.091296195983887,0.41816532611846924,-3.6744742393493652
1403715886934058000,-0.0016051791608333588,0.01999478042125702,0.07651162892580032,9.058460235595703,0.35510340332984924,-3.6585073471069336
1403715886939058000,-0.0026156120002269745,0.020092293620109558,0.07521364837884903,9.091341972351074,0.37079674005508423,-3.674473524093628
1403715886944058000,-0.005320560187101364,0.018785417079925537,0.07719694077968597,9.050369262695312,0.3465059697628021,-3.6348037719726562
1403715886949058000,-0.0062272511422634125,0.019386783242225647,0.07451048493385315,9.106829643249512,0.3545304536819458,-3.658613920211792
1403715886954058000,-0.00684916228055954,0.02334466576576233,0.07514631003141403,9.098712921142578,0.40247905254364014,-3.6667208671569824
1403715886959058000,-0.006918586790561676,0.01879853755235672,0.07718993723392487,9.050704956054688,0.3948923647403717,-3.682487726211548
1403715886964058000,-0.004926938563585281,0.0207899808883667,0.07856924086809158,9.06738567352295,0.38698112964630127,-3.6903581619262695
1403715886969058000,-0.0034519024193286896,0.023935899138450623,0.08122945576906204,9.091124534606934,0.4261009693145752,-3.682551622390747
1403715886974058000,-0.004008330404758453,0.021442577242851257,0.07722207903862,9.122285842895508,0.39456504583358765,-3.6350741386413574
1403715886979058000,-0.002849400043487549,0.01751038432121277,0.07661200314760208,9.106847763061523,0.3949664831161499,-3.6589674949645996
1403715886984058000,-0.006127096712589264,0.019897960126399994,0.07714670896530151,9.090681076049805,0.4025498032569885,-3.643038511276245
1403715886989058000,-0.005540497601032257,0.020626503974199295,0.07782604545354843,9.107196807861328,0.38654476404190063,-3.642829656600952
1403715886994058000,-0.005618494004011154,0.020841948688030243,0.07853362709283829,9.123825073242188,0.4261089265346527,-3.6744728088378906
1403715886999058000,-0.0041876547038555145,0.02415083348751068,0.07992308586835861,9.08307933807373,0.41809791326522827,-3.682297945022583
1403715887004058000,-0.006083037704229355,0.02214355766773224,0.07730145007371902,9.115559577941895,0.3626864552497864,-3.6744461059570312
1403715887009058000,-0.0042803846299648285,0.019425757229328156,0.07654882222414017,9.147932052612305,0.43421855568885803,-3.6906349658966064
1403715887014058000,-0.002894837409257889,0.02327907085418701,0.07512559741735458,9.131006240844727,0.43438056111335754,-3.651102066040039
1403715887019058000,-0.0014660581946372986,0.02337421476840973,0.07782818377017975,9.107421875,0.4109727740287781,-3.651087522506714
1403715887024058000,-0.0034451037645339966,0.020242691040039062,0.07920074462890625,9.100208282470703,0.41048941016197205,-3.6589200496673584
1403715887029058000,-0.0055074505507946014,0.02276262640953064,0.07658065110445023,9.067865371704102,0.39466384053230286,-3.666677713394165
1403715887034058000,-0.007575385272502899,0.024705834686756134,0.07593634724617004,9.075898170471191,0.3708040416240692,-3.6903045177459717
1403715887039058000,-0.0056790634989738464,0.01882452517747879,0.0751987174153328,9.099748611450195,0.43422722816467285,-3.6827120780944824
1403715887044058000,0.0004622936248779297,0.02278410643339157,0.07782705873250961,9.090585708618164,0.38676249980926514,-3.6587862968444824
1403715887049058000,6.62095844745636e-05,0.023964107036590576,0.07713509351015091,9.074589729309082,0.4029969573020935,-3.651120662689209
1403715887054058000,2.8252601623535156e-05,0.02089373767375946,0.07990393042564392,9.05852222442627,0.3863276243209839,-3.6114189624786377
1403715887059058000,-0.002819489687681198,0.02290584146976471,0.081327423453331,9.075347900390625,0.3625258207321167,-3.6822657585144043
1403715887064058000,-0.0041966065764427185,0.019368499517440796,0.07327497750520706,9.07541275024414,0.3789151608943939,-3.690401315689087
1403715887069058000,-0.0042385198175907135,0.02077201008796692,0.08120661228895187,9.074397087097168,0.3945171535015106,-3.634909152984619
1403715887074058000,-0.007470384240150452,0.024753667414188385,0.07648627460002899,9.123005867004395,0.3948299288749695,-3.6902987957000732
1403715887079058000,-0.006853979080915451,0.01949886977672577,0.07725097984075546,9.114856719970703,0.45048725605010986,-3.6511096954345703
1403715887084058000,-0.005461685359477997,0.02087549865245819,0.07579270005226135,9.06613826751709,0.36293652653694153,-3.603567123413086
1403715887089058000,-0.008084136992692947,0.019924864172935486,0.07525023818016052,9.107735633850098,0.40290117263793945,-3.66689133644104
1403715887094058000,-0.002979438751935959,0.020757094025611877,0.07786782085895538,9.1474609375,0.41823461651802063,-3.666348934173584
1403715887099058000,-0.0027990341186523438,0.02080097794532776,0.07710559666156769,9.074377059936523,0.41890189051628113,-3.63505482673645
1403715887104058000,-0.0039818137884140015,0.024133652448654175,0.07391323894262314,9.107211112976074,0.37876006960868835,-3.6664414405822754
1403715887109058000,-0.005526624619960785,0.018828727304935455,0.07785166800022125,9.115316390991211,0.4101957380771637,-3.6347451210021973
1403715887114058000,-0.0035267621278762817,0.022772163152694702,0.07784047722816467,9.122950553894043,0.39435234665870667,-3.642756700515747
1403715887119058000,-0.006039470434188843,0.019994787871837616,0.07587549090385437,9.123461723327637,0.3944072425365448,-3.6348717212677
1403715887124058000,-0.0062315016984939575,0.02210965007543564,0.07849279791116714,9.067061424255371,0.4024841785430908,-3.6268205642700195
1403715887129058000,-0.0049315690994262695,0.022117979824543,0.07792212069034576,9.059657096862793,0.3948657214641571,-3.674332618713379
1403715887134058000,-0.00349266454577446,0.016758993268013,0.07995685189962387,9.092074394226074,0.4424649477005005,-3.6665163040161133
1403715887139058000,-0.0028510577976703644,0.01936851069331169,0.07918472588062286,9.08278751373291,0.41846826672554016,-3.650672197341919
1403715887144058000,-0.006133977323770523,0.02127481997013092,0.07727044075727463,9.050728797912598,0.3710482120513916,-3.658602237701416
1403715887149058000,-0.004930067807435989,0.02019675448536873,0.07724957168102264,9.083396911621094,0.3944113552570343,-3.682314157485962
1403715887154058000,-0.004306335002183914,0.024150751531124115,0.07648231834173203,9.066447257995605,0.42653268575668335,-3.658825635910034
1403715887159058000,-0.004786085337400436,0.024102017283439636,0.07853969931602478,9.10703182220459,0.39471349120140076,-3.674424409866333
1403715887164058000,-0.004230562597513199,0.019516974687576294,0.08192459493875504,9.115520477294922,0.43416503071784973,-3.690316677093506
1403715887169058000,-0.004863746464252472,0.021990887820720673,0.07726974040269852,9.066568374633789,0.41870760917663574,-3.6589386463165283
1403715887174058000,-0.002145014703273773,0.022632837295532227,0.07795100659132004,9.09089183807373,0.3867877125740051,-3.6508514881134033
1403715887179058000,-0.005477625876665115,0.018856804817914963,0.07991418242454529,9.067398071289062,0.41026413440704346,-3.674639940261841
1403715887184058000,-0.002833254635334015,0.019470535218715668,0.07792618125677109,9.090547561645508,0.37868061661720276,-3.642786979675293
1403715887189058000,-0.0035412386059761047,0.019931308925151825,0.07254374027252197,9.058571815490723,0.41123372316360474,-3.6749730110168457
1403715887194058000,-0.002761632204055786,0.020130593329668045,0.07788912951946259,9.09886646270752,0.37840935587882996,-3.690272092819214
1403715887199058000,-0.003469310700893402,0.022804468870162964,0.07791955769062042,9.0660982131958,0.37059077620506287,-3.6507503986358643
1403715887204058000,-0.0074198320508003235,0.02085624635219574,0.07856906205415726,9.123135566711426,0.370182603597641,-3.666719436645508
1403715887209058000,-0.0062701888382434845,0.020112615078687668,0.07854369282722473,9.114740371704102,0.41033315658569336,-3.635053873062134
1403715887214058000,-0.006242565810680389,0.018017366528511047,0.08001720160245895,9.067217826843262,0.3868599236011505,-3.6586949825286865
1403715887219058000,-0.00418056920170784,0.019994288682937622,0.07591580599546432,9.059304237365723,0.403004914522171,-3.6747725009918213
1403715887224058000,-0.008098859339952469,0.020077064633369446,0.08120791614055634,9.075078964233398,0.4104854464530945,-3.6349480152130127
1403715887229058000,-0.004934974014759064,0.02218817174434662,0.08196177333593369,9.106901168823242,0.3944582939147949,-3.6821885108947754
1403715887234058000,-0.005485963076353073,0.01882793754339218,0.07798311114311218,9.098604202270508,0.38657113909721375,-3.650763750076294
1403715887239058000,-0.005469776690006256,0.020030871033668518,0.07793790847063065,9.114644050598145,0.41040974855422974,-3.6429128646850586
1403715887244058000,0.0010339319705963135,0.024038121104240417,0.08062281459569931,9.1392240524292,0.3862766623497009,-3.6900274753570557
1403715887249058000,-0.003988441079854965,0.020153257995843887,0.08064612001180649,9.116332054138184,0.4259968400001526,-3.714003801345825
1403715887254058000,-0.004098374396562576,0.021518416702747345,0.07855125516653061,9.067326545715332,0.37853100895881653,-3.642946243286133
1403715887259058000,-0.00497160479426384,0.01868600770831108,0.07800496369600296,9.1000394821167,0.36270493268966675,-3.6588363647460938
1403715887264058000,-0.0054390765726566315,0.02137681096792221,0.07999639958143234,9.12338924407959,0.39415958523750305,-3.6585350036621094
1403715887269058000,-0.004230033606290817,0.024764947593212128,0.07452049851417542,9.090436935424805,0.3707325756549835,-3.650804042816162
1403715887274058000,-0.0041914284229278564,0.023544669151306152,0.07720626890659332,9.09908390045166,0.39477890729904175,-3.6666572093963623
1403715887279058000,-0.002090808004140854,0.021541856229305267,0.07587731629610062,9.123475074768066,0.41045740246772766,-3.6665451526641846
1403715887284058000,-0.0040509700775146484,0.02068435400724411,0.07523509860038757,9.091168403625488,0.3470045030117035,-3.6348490715026855
1403715887289058000,-0.00294606015086174,0.017980560660362244,0.07860258221626282,9.10056209564209,0.4262039065361023,-3.7143030166625977
1403715887294058000,-0.003528401255607605,0.02205576002597809,0.07858679443597794,9.091483116149902,0.41042476892471313,-3.6588194370269775
1403715887299058000,-0.00739520788192749,0.022799894213676453,0.080616794526577,9.091188430786133,0.387086421251297,-3.635174036026001
1403715887304058000,-0.0036854520440101624,0.018255285918712616,0.08129860460758209,9.10007095336914,0.4342226982116699,-3.6985056400299072
1403715887309058000,-0.001537967473268509,0.018738102167844772,0.08072070777416229,9.099897384643555,0.4343021512031555,-3.714129686355591
1403715887314058000,-0.0032228752970695496,0.02324029803276062,0.07860016077756882,9.106868743896484,0.37888383865356445,-3.6351025104522705
1403715887319058000,0.0031050406396389008,0.018849626183509827,0.07922276854515076,9.083227157592773,0.378291517496109,-3.6588854789733887
1403715887324058000,-0.000531323254108429,0.018903471529483795,0.07657583057880402,9.082945823669434,0.3545617163181305,-3.626939058303833
1403715887329058000,-0.0020390450954437256,0.023979023098945618,0.07655015587806702,9.091184616088867,0.39463111758232117,-3.6667191982269287
1403715887334058000,-0.003672543913125992,0.02278827130794525,0.07787448912858963,9.090897560119629,0.4101164937019348,-3.6508941650390625
1403715887339058000,-0.003447767347097397,0.026912592351436615,0.07451775670051575,9.066045761108398,0.3948937654495239,-3.6269547939300537
1403715887344058000,-0.0020839162170886993,0.023468591272830963,0.07317358255386353,9.122885704040527,0.37899839878082275,-3.6585586071014404
1403715887349058000,-0.005451451987028122,0.020710721611976624,0.07782356441020966,9.05870246887207,0.42653781175613403,-3.6588239669799805
1403715887354058000,-0.0007652640342712402,0.02332521229982376,0.08257623016834259,9.074238777160645,0.378825843334198,-3.6188647747039795
1403715887359058000,-0.0026932694017887115,0.02141382545232773,0.0826604962348938,9.107179641723633,0.386688768863678,-3.6585006713867188
1403715887364058000,-0.003394622355699539,0.018849797546863556,0.07464216649532318,9.10666561126709,0.4266485869884491,-3.6349151134490967
1403715887369058000,-0.004877198487520218,0.022036686539649963,0.07663502544164658,9.058401107788086,0.39492669701576233,-3.6427037715911865
1403715887374058000,-0.005422908812761307,0.020736046135425568,0.07783640176057816,9.107267379760742,0.40228351950645447,-3.6505937576293945
1403715887379058000,-0.0055085159838199615,0.021481744945049286,0.07645765691995621,9.114962577819824,0.45015108585357666,-3.658639669418335
1403715887384058000,-0.0008095763623714447,0.02077118307352066,0.07719799876213074,9.090631484985352,0.37905314564704895,-3.642535924911499
1403715887389058000,-0.0006521828472614288,0.018728181719779968,0.07665164768695831,9.091523170471191,0.4106617271900177,-3.6902244091033936
1403715887394058000,-0.003973927348852158,0.018707647919654846,0.07459650933742523,9.083050727844238,0.41038578748703003,-3.642845392227173
1403715887399058000,-0.005594391375780106,0.02273660898208618,0.0757688358426094,9.11557674407959,0.39471617341041565,-3.6902921199798584
1403715887404058000,-0.004930045455694199,0.022237613797187805,0.07851163297891617,9.083404541015625,0.3784103989601135,-3.6980974674224854
1403715887409058000,-0.004148177802562714,0.020899929106235504,0.07654471695423126,9.083020210266113,0.39424166083335876,-3.658769369125366
1403715887414058000,-0.007347188889980316,0.020756803452968597,0.07790375500917435,9.091062545776367,0.34685543179512024,-3.634896755218506
1403715887419058000,-0.002197127789258957,0.02068527787923813,0.07859054952859879,9.082901954650879,0.37850889563560486,-3.658630132675171
1403715887424058000,-0.005369909107685089,0.018047932535409927,0.07590558379888535,9.058900833129883,0.40259793400764465,-3.6508591175079346
1403715887429058000,-0.0047956593334674835,0.021419495344161987,0.07783645391464233,9.115248680114746,0.3869194984436035,-3.6585240364074707
1403715887434058000,-0.004951659590005875,0.02342863380908966,0.07515732198953629,9.122673034667969,0.3867606222629547,-3.6585676670074463
1403715887439058000,-0.003438260406255722,0.018871791660785675,0.0758819729089737,9.10688591003418,0.40254777669906616,-3.650792360305786
1403715887444058000,-0.003398839384317398,0.019438475370407104,0.07916516810655594,9.123414993286133,0.3947213590145111,-3.642789602279663
1403715887449058000,-0.0034709908068180084,0.019860759377479553,0.08058255910873413,9.083338737487793,0.42662760615348816,-3.6429553031921387
1403715887454058000,-0.004078935831785202,0.022080138325691223,0.07726666331291199,9.075533866882324,0.37071576714515686,-3.666435718536377
1403715887459058000,-0.006141837686300278,0.022901222109794617,0.07856248319149017,9.107705116271973,0.3705306053161621,-3.674259901046753
1403715887464058000,-0.0029090046882629395,0.020206525921821594,0.08059665560722351,9.090802192687988,0.37805187702178955,-3.6504950523376465
1403715887469058000,-0.004052016884088516,0.02276722341775894,0.07987931370735168,9.082406044006348,0.3702072203159332,-3.626739978790283
1403715887474058000,-0.005416255444288254,0.02072439342737198,0.07724310457706451,9.11561393737793,0.37834444642066956,-3.682166337966919
1403715887479058000,-0.006293430924415588,0.02144145965576172,0.08063153177499771,9.10744857788086,0.4262835681438446,-3.6743836402893066
1403715887484058000,-0.004182901233434677,0.020096465945243835,0.07865239679813385,9.099570274353027,0.3945963680744171,-3.6585941314697266
1403715887489058000,-0.004134766757488251,0.02004677802324295,0.07591087371110916,9.107776641845703,0.41058337688446045,-3.658729076385498
1403715887494058000,-0.0055794864892959595,0.02000792697072029,0.07518237084150314,9.075614929199219,0.45860806107521057,-3.6748175621032715
1403715887499058000,-0.004873603582382202,0.020713776350021362,0.07318583875894547,9.067303657531738,0.39540740847587585,-3.658925771713257
1403715887504058000,-0.0042184703052043915,0.02008112519979477,0.07653266191482544,9.099685668945312,0.4187037944793701,-3.6905853748321533
1403715887509058000,-0.004159238189458847,0.020745404064655304,0.07715104520320892,9.090798377990723,0.402255117893219,-3.6587905883789062
1403715887514058000,-0.004780273884534836,0.020113646984100342,0.07998417317867279,9.090938568115234,0.36253640055656433,-3.6586291790008545
1403715887519058000,-0.004127912223339081,0.018748439848423004,0.07926320284605026,9.106961250305176,0.40212392807006836,-3.6271870136260986
1403715887524058000,-0.0028841495513916016,0.016668397933244705,0.07861438393592834,9.091361045837402,0.4500947892665863,-3.658925771713257
1403715887529058000,-0.0041417814791202545,0.02471296489238739,0.07723671942949295,9.123710632324219,0.38674265146255493,-3.698141098022461
1403715887534058000,-0.004201732575893402,0.021530061960220337,0.07655923813581467,9.075870513916016,0.3625553846359253,-3.7220475673675537
1403715887539058000,-0.005538489669561386,0.02025626227259636,0.07787439972162247,9.075369834899902,0.4022192656993866,-3.6669070720672607
1403715887544058000,-0.005525127053260803,0.023332767188549042,0.07856611162424088,9.091273307800293,0.37891265749931335,-3.666813373565674
1403715887549058000,-0.0075570158660411835,0.022627592086791992,0.07860070466995239,9.09099006652832,0.41071340441703796,-3.666987657546997
1403715887554058000,-0.0029338039457798004,0.02017480880022049,0.07788857817649841,9.09859561920166,0.41072961688041687,-3.6432437896728516
1403715887559058000,-0.004703059792518616,0.01939333975315094,0.0752178207039833,9.131265640258789,0.3949322998523712,-3.6510162353515625
1403715887564058000,-0.004104305058717728,0.016669921576976776,0.0785583108663559,9.131756782531738,0.4020729660987854,-3.6744532585144043
1403715887569058000,-0.0029028616845607758,0.022032171487808228,0.08052398264408112,9.075159072875977,0.39422398805618286,-3.642761707305908
1403715887574058000,-0.00012090802192687988,0.020114414393901825,0.08063936233520508,9.067554473876953,0.4028201103210449,-3.6508209705352783
1403715887579058000,-0.0027120113372802734,0.021549120545387268,0.07730578631162643,9.123763084411621,0.41059547662734985,-3.6666200160980225
1403715887584058000,-0.0048545487225055695,0.020014695823192596,0.07593570649623871,9.090958595275879,0.42659199237823486,-3.6511635780334473
1403715887589058000,-0.0048145391047000885,0.022716253995895386,0.07651905715465546,9.122776985168457,0.3546374440193176,-3.6428682804107666
1403715887594058000,-0.0061804912984371185,0.02144496887922287,0.07918987423181534,9.123814582824707,0.4100261926651001,-3.690256357192993
1403715887599058000,-0.0041970424354076385,0.022158324718475342,0.07992462813854218,9.083215713500977,0.3782666325569153,-3.6505320072174072
1403715887604058000,-0.003429759293794632,0.021502584218978882,0.07532503455877304,9.1000337600708,0.33094850182533264,-3.68228816986084
1403715887609058000,-0.0014725103974342346,0.0186910480260849,0.0766192227602005,9.059585571289062,0.4424137473106384,-3.659025192260742
1403715887614058000,-0.0021128319203853607,0.022005751729011536,0.07647918164730072,9.08256721496582,0.4266984462738037,-3.619340181350708
1403715887619058000,-0.004080191254615784,0.021409407258033752,0.07649364322423935,9.074877738952637,0.36327701807022095,-3.6507790088653564
1403715887624058000,-0.0035795867443084717,0.020165160298347473,0.081861212849617,9.09875202178955,0.4259950816631317,-3.6585609912872314
1403715887629058000,-0.004849445074796677,0.024069488048553467,0.08128315210342407,9.090426445007324,0.42649707198143005,-3.6427414417266846
1403715887634058000,-0.0027620457112789154,0.02281893789768219,0.07804720103740692,9.058989524841309,0.32346922159194946,-3.6820876598358154
1403715887639058000,-0.002119157463312149,0.02018578350543976,0.07723323255777359,9.12353515625,0.4179803729057312,-3.6744015216827393
1403715887644058000,-0.002696562558412552,0.022024385631084442,0.07787739485502243,9.09885311126709,0.4104404151439667,-3.642923593521118
1403715887649058000,-0.00676301121711731,0.020058833062648773,0.07656220346689224,9.147711753845215,0.37881964445114136,-3.6902692317962646
1403715887654058000,-0.007587961852550507,0.018142130225896835,0.0765257328748703,9.091264724731445,0.38605499267578125,-3.6428935527801514
1403715887659058000,-0.0062169358134269714,0.019414372742176056,0.07794922590255737,9.091261863708496,0.3703609108924866,-3.635042190551758
1403715887664058000,-0.004802387207746506,0.022734396159648895,0.07590141147375107,9.147847175598145,0.394910991191864,-3.6744072437286377
1403715887669058000,-0.005390949547290802,0.016201317310333252,0.07519251108169556,9.140021324157715,0.40225455164909363,-3.666410446166992
1403715887674058000,-0.0007654502987861633,0.020154140889644623,0.07853091508150101,9.107181549072266,0.3467426002025604,-3.658391237258911
1403715887679058000,-0.0026949644088745117,0.020648133009672165,0.07724922150373459,9.108426094055176,0.37068167328834534,-3.6981143951416016
1403715887684058000,-0.00349324569106102,0.01882648468017578,0.07659182697534561,9.116414070129395,0.4098854064941406,-3.6903345584869385
1403715887689058000,-0.004907671362161636,0.022188983857631683,0.07790367305278778,9.067602157592773,0.354769229888916,-3.6588447093963623
1403715887694058000,-0.005471069365739822,0.024746790528297424,0.07858410477638245,9.115870475769043,0.3705812692642212,-3.6666994094848633
1403715887699058000,-0.004881482571363449,0.022186987102031708,0.07720689475536346,9.083407402038574,0.4103679060935974,-3.6667728424072266
1403715887704058000,-0.003516741096973419,0.022128403186798096,0.07586632668972015,9.083271980285645,0.3949054479598999,-3.666788101196289
1403715887709058000,-0.001452382653951645,0.019949205219745636,0.07991938292980194,9.099508285522461,0.4343966245651245,-3.6589162349700928
1403715887714058000,-0.001379363238811493,0.01999162882566452,0.07514899969100952,9.090818405151367,0.3948124051094055,-3.6113362312316895
1403715887719058000,-0.006031710654497147,0.020090006291866302,0.07722076773643494,9.091459274291992,0.35491612553596497,-3.650678873062134
1403715887724058000,-0.005623195320367813,0.017446864396333694,0.08057107776403427,9.08375072479248,0.394087016582489,-3.6586761474609375
1403715887729058000,-0.0055904872715473175,0.021404564380645752,0.08130016922950745,9.058945655822754,0.4021628201007843,-3.6507461071014404
1403715887734058000,-0.006090391427278519,0.02542395144701004,0.07926236093044281,9.115309715270996,0.37861454486846924,-3.6743526458740234
1403715887739058000,-0.004890672862529755,0.022248253226280212,0.07523884624242783,9.13135051727295,0.41821619868278503,-3.6903021335601807
1403715887744058000,-0.0034503042697906494,0.023521818220615387,0.07724783569574356,9.066322326660156,0.37848252058029175,-3.6507415771484375
1403715887749058000,-0.0034119635820388794,0.019961852580308914,0.0771527886390686,9.083484649658203,0.3946923017501831,-3.6668429374694824
1403715887754058000,-0.0028974823653697968,0.022727593779563904,0.07923531532287598,9.12362289428711,0.41007348895072937,-3.6823434829711914
1403715887759058000,-0.0028045549988746643,0.022779226303100586,0.07793071120977402,9.090535163879395,0.39487388730049133,-3.63498854637146
1403715887764058000,-0.0040510110557079315,0.01820407062768936,0.07597003132104874,9.066998481750488,0.371151328086853,-3.64300274848938
1403715887769058000,-0.00478232279419899,0.016805507242679596,0.07927887886762619,9.099489212036133,0.36215847730636597,-3.6583573818206787
1403715887774058000,-0.0021783895790576935,0.016553446650505066,0.08055892586708069,9.058650016784668,0.4023107588291168,-3.6348724365234375
1403715887779058000,-0.002048395574092865,0.022028088569641113,0.07990743964910507,9.066248893737793,0.39460498094558716,-3.619105339050293
1403715887784058000,-0.0027569420635700226,0.01750979945063591,0.07727672904729843,9.074810028076172,0.41078174114227295,-3.642758369445801
1403715887789058000,-0.005530316382646561,0.021445050835609436,0.0799747109413147,9.066234588623047,0.44261133670806885,-3.6348977088928223
1403715887794058000,-0.004278142005205154,0.022661857306957245,0.07925538718700409,9.066405296325684,0.4186486005783081,-3.6586740016937256
1403715887799058000,-0.0056097544729709625,0.02205915004014969,0.07922353595495224,9.099004745483398,0.4664817750453949,-3.6824862957000732
1403715887804058000,-0.004802674055099487,0.02211475372314453,0.07656478881835938,9.10620403289795,0.41878193616867065,-3.627002716064453
1403715887809058000,-0.003484487533569336,0.021353483200073242,0.0779510885477066,9.114835739135742,0.4108000099658966,-3.658709764480591
1403715887814058000,-0.0033895187079906464,0.02071467787027359,0.07855521887540817,9.12299633026123,0.418279230594635,-3.6506400108337402
1403715887819058000,-0.004776623100042343,0.020063042640686035,0.07857361435890198,9.091320037841797,0.4023582935333252,-3.6664133071899414
1403715887824058000,-0.005515642464160919,0.025438480079174042,0.07860035449266434,9.115299224853516,0.3702767491340637,-3.6583263874053955
1403715887829058000,-0.004919901490211487,0.018816731870174408,0.07797334343194962,9.132081031799316,0.4338803291320801,-3.6980721950531006
1403715887834058000,-0.003522392362356186,0.021468915045261383,0.0739201083779335,9.067025184631348,0.37883657217025757,-3.6823527812957764
1403715887839058000,-0.0047314949333667755,0.024650707840919495,0.07855105400085449,9.083210945129395,0.35477200150489807,-3.6743714809417725
1403715887844058000,-0.0027962513267993927,0.023517757654190063,0.07717490196228027,9.139404296875,0.3860616981983185,-3.658582925796509
1403715887849058000,-0.0014425627887248993,0.018918320536613464,0.07657607644796371,9.07449722290039,0.38703712821006775,-3.6271917819976807
1403715887854058000,-0.003388877958059311,0.020000576972961426,0.07390076667070389,9.083558082580566,0.36337873339653015,-3.682436227798462
1403715887859058000,-0.006087899208068848,0.019326157867908478,0.0772375538945198,9.083434104919434,0.338769793510437,-3.6346702575683594
1403715887864058000,-0.004889827221632004,0.020167000591754913,0.07784406840801239,9.04257869720459,0.35483086109161377,-3.6190247535705566
1403715887869058000,-0.003425080329179764,0.02159249037504196,0.07784779369831085,9.067098617553711,0.31480392813682556,-3.6661441326141357
1403715887874058000,0.0005692578852176666,0.02085224539041519,0.08128207176923752,9.09870719909668,0.38611602783203125,-3.6582424640655518
1403715887879058000,-0.002670072019100189,0.01946934312582016,0.08334579318761826,9.058262825012207,0.4025791585445404,-3.6665101051330566
1403715887884058000,-0.003992326557636261,0.019464854151010513,0.07734303176403046,9.099010467529297,0.3071666359901428,-3.6741743087768555
1403715887889058000,-0.006205383688211441,0.017383035272359848,0.07792176306247711,9.10714054107666,0.3781557083129883,-3.6506175994873047
1403715887894058000,-0.004191093146800995,0.0187394879758358,0.077195905148983,9.074450492858887,0.3624727427959442,-3.62697696685791
1403715887899058000,-0.003389168530702591,0.020810618996620178,0.07990966737270355,9.115131378173828,0.3389524221420288,-3.650282859802246
1403715887904058000,-0.0013585202395915985,0.01749429851770401,0.07721118628978729,9.139162063598633,0.402279794216156,-3.650378942489624
1403715887909058000,-0.003327213227748871,0.019413407891988754,0.0759657770395279,9.098827362060547,0.40248146653175354,-3.6584324836730957
1403715887914058000,-0.005428556352853775,0.021977856755256653,0.07727079093456268,9.07524299621582,0.3550195097923279,-3.6661314964294434
1403715887919058000,-0.007574699819087982,0.01677647978067398,0.07586042582988739,9.107932090759277,0.3859351575374603,-3.6663832664489746
1403715887924058000,-0.0035783983767032623,0.018777236342430115,0.07921674847602844,9.074793815612793,0.3624047636985779,-3.6347742080688477
1403715887929058000,-0.002685144543647766,0.019970223307609558,0.08058953285217285,9.09897518157959,0.3547932505607605,-3.6504781246185303
1403715887934058000,-0.0033374689519405365,0.02007279545068741,0.07798886299133301,9.050496101379395,0.4021977484226227,-3.6348819732666016
1403715887939058000,-0.007409099489450455,0.018801741302013397,0.0752645954489708,9.090940475463867,0.39451730251312256,-3.6348297595977783
1403715887944058000,-0.004931095987558365,0.018671303987503052,0.07788753509521484,9.123282432556152,0.3946046829223633,-3.65041446685791
1403715887949058000,-0.004177812486886978,0.019970547407865524,0.0798671767115593,9.090707778930664,0.3861512839794159,-3.634500026702881
1403715887954058000,-0.00012064352631568909,0.02270893007516861,0.07718253880739212,9.114811897277832,0.402326762676239,-3.634608745574951
1403715887959058000,-0.0033738277852535248,0.021471649408340454,0.07525915652513504,9.083575248718262,0.4028823971748352,-3.6822543144226074
1403715887964058000,-0.003421347588300705,0.018806766718626022,0.07592961937189102,9.099739074707031,0.3786715567111969,-3.6901023387908936
1403715887969058000,-0.001590978354215622,0.024568580090999603,0.07645788788795471,9.114871978759766,0.4344765245914459,-3.6351020336151123
1403715887974058000,-0.005424723029136658,0.022026225924491882,0.07780338823795319,9.082901000976562,0.4104515016078949,-3.650803565979004
1403715887979058000,-0.002233445644378662,0.020220927894115448,0.07319138199090958,9.091057777404785,0.3787638545036316,-3.666383743286133
1403715887984058000,-0.0021817050874233246,0.02196885645389557,0.07453528791666031,9.091175079345703,0.4184669554233551,-3.6667189598083496
1403715887989058000,-0.006579108536243439,0.01998382806777954,0.07716743648052216,9.123442649841309,0.3945344388484955,-3.666405200958252
1403715887994058000,-0.0023625344038009644,0.019420549273490906,0.08051585406064987,9.107329368591309,0.44259950518608093,-3.650707721710205
1403715887999058000,-0.0021483376622200012,0.023334980010986328,0.07986313849687576,9.090899467468262,0.4344298541545868,-3.634986400604248
1403715888004058000,-0.0032397396862506866,0.022141359746456146,0.07795833796262741,9.115568161010742,0.3708016574382782,-3.658442735671997
1403715888009058000,-0.006188102066516876,0.018858641386032104,0.0786462128162384,9.099822998046875,0.3944893181324005,-3.6585867404937744
1403715888014058000,-0.0068597979843616486,0.016613107174634933,0.07584946602582932,9.067365646362305,0.4184175133705139,-3.6430959701538086
1403715888019058000,-0.004851885139942169,0.021927759051322937,0.07850344479084015,9.099559783935547,0.3789285719394684,-3.6663286685943604
1403715888024058000,-0.006829544901847839,0.020756512880325317,0.07517359405755997,9.099499702453613,0.40275806188583374,-3.6744179725646973
1403715888029058000,-0.002804849296808243,0.022302351891994476,0.07860606163740158,9.098848342895508,0.37822675704956055,-3.6505937576293945
1403715888034058000,-0.0053872838616371155,0.022178903222084045,0.07993388921022415,9.099608421325684,0.37038275599479675,-3.690138578414917
1403715888039058000,-0.0042192526161670685,0.020685739815235138,0.07791972160339355,9.131908416748047,0.45005491375923157,-3.6904590129852295
1403715888044058000,-0.005000073462724686,0.020007677376270294,0.07724455744028091,9.083696365356445,0.45082077383995056,-3.682870626449585
1403715888049058000,-0.004823487251996994,0.019359230995178223,0.07923204451799393,9.083931922912598,0.387454628944397,-3.674743890762329
1403715888054058000,-0.0028097108006477356,0.021395243704319,0.07590354979038239,9.091324806213379,0.37065619230270386,-3.6429800987243652
1403715888059058000,-0.0007590390741825104,0.023468323051929474,0.07517953962087631,9.074618339538574,0.3704105615615845,-3.6429567337036133
1403715888064058000,-0.0019574202597141266,0.02090466022491455,0.07787472009658813,9.090758323669434,0.36270764470100403,-3.6505746841430664
1403715888069058000,-0.006162703037261963,0.021425530314445496,0.07589041441679001,9.082881927490234,0.402532160282135,-3.6586928367614746
1403715888074058000,-0.008350744843482971,0.024623282253742218,0.07719891518354416,9.107039451599121,0.4184495806694031,-3.674536943435669
1403715888079058000,-0.004983056336641312,0.022150292992591858,0.0785507783293724,9.107283592224121,0.3786187767982483,-3.6664278507232666
1403715888084058000,-0.0041462816298007965,0.023549571633338928,0.07927855104207993,9.123353958129883,0.4178025722503662,-3.66666579246521
1403715888089058000,-0.005367141216993332,0.02341943234205246,0.07920108735561371,9.09101676940918,0.3865737020969391,-3.6430318355560303
1403715888094058000,-0.006200704723596573,0.021438315510749817,0.07723239809274673,9.083635330200195,0.41117697954177856,-3.666940689086914
1403715888099058000,-0.0016440562903881073,0.020105279982089996,0.07728324085474014,9.06746768951416,0.41870489716529846,-3.682626485824585
1403715888104058000,-0.00136488676071167,0.018726781010627747,0.07987945526838303,9.099043846130371,0.3707095682621002,-3.642707586288452
1403715888109058000,-0.0046494267880916595,0.0214347243309021,0.07988227158784866,9.13072681427002,0.37025439739227295,-3.6347687244415283
1403715888114058000,-0.0021947138011455536,0.01819559931755066,0.07592964917421341,9.139081954956055,0.36985281109809875,-3.658428907394409
1403715888119058000,-0.006012510508298874,0.020182445645332336,0.07656804472208023,9.082984924316406,0.3625897169113159,-3.6347455978393555
1403715888124058000,-0.0041366517543792725,0.019422590732574463,0.0799114778637886,9.0595064163208,0.35468190908432007,-3.6346793174743652
1403715888129058000,-0.0022026561200618744,0.018140248954296112,0.07924394309520721,9.116060256958008,0.3701704144477844,-3.6503288745880127
1403715888134058000,-3.3389776945114136e-05,0.018718749284744263,0.07724231481552124,9.10721492767334,0.44242003560066223,-3.65071964263916
1403715888139058000,-0.006021607667207718,0.022700414061546326,0.07728099822998047,9.074713706970215,0.3949081301689148,-3.658562183380127
1403715888144058000,-0.004295617341995239,0.020866751670837402,0.0792720764875412,9.099295616149902,0.37085580825805664,-3.666245698928833
1403715888149058000,-0.00488247349858284,0.022873207926750183,0.07854590564966202,9.115375518798828,0.39437922835350037,-3.6742897033691406
1403715888154058000,-0.006073985248804092,0.022782601416110992,0.0759005919098854,9.09952163696289,0.33080875873565674,-3.6900625228881836
1403715888159058000,-0.004913337528705597,0.02139294147491455,0.07726101577281952,9.115647315979004,0.41827142238616943,-3.650857925415039
1403715888164058000,-0.006117150187492371,0.020049110054969788,0.07725264132022858,9.091547012329102,0.4263014495372772,-3.658914089202881
1403715888169058000,-0.0034682974219322205,0.021357983350753784,0.07855113595724106,9.131600379943848,0.4106672704219818,-3.658663511276245
1403715888174058000,-0.0054471902549266815,0.02145591378211975,0.07921494543552399,9.123473167419434,0.362304151058197,-3.6505022048950195
1403715888179058000,-0.0015169531106948853,0.01877918839454651,0.07593740522861481,9.059097290039062,0.3942945897579193,-3.650848150253296
1403715888184058000,-0.004056107252836227,0.019431177526712418,0.07793713361024857,9.09994125366211,0.37065669894218445,-3.666311740875244
1403715888189058000,-0.007424533367156982,0.02132963389158249,0.0798770859837532,9.107839584350586,0.4024846851825714,-3.6664748191833496
1403715888194058000,-0.0030530840158462524,0.02207903563976288,0.07790230959653854,9.08276653289795,0.4265134930610657,-3.650954246520996
1403715888199058000,-0.006057005375623703,0.024225197732448578,0.07990559190511703,9.107327461242676,0.37865230441093445,-3.6585373878479004
1403715888204058000,-0.005541246384382248,0.020787283778190613,0.08129958063364029,9.123795509338379,0.45788124203681946,-3.674738645553589
1403715888209058000,-0.007050111889839172,0.018636688590049744,0.07663927972316742,9.09957504272461,0.49034878611564636,-3.6593177318573
1403715888214058000,-0.004137963056564331,0.019923683255910873,0.07988846302032471,9.083486557006836,0.41138485074043274,-3.6271963119506836
1403715888219058000,-0.0034567415714263916,0.018037639558315277,0.07724570482969284,9.09996223449707,0.3788071572780609,-3.6586127281188965
1403715888224058000,-0.005531616508960724,0.021457478404045105,0.07728151977062225,9.091706275939941,0.42607560753822327,-3.682469606399536
1403715888229058000,-0.003564048558473587,0.02478368580341339,0.07716019451618195,9.074808120727539,0.39476335048675537,-3.658679246902466
1403715888234058000,-0.0060950107872486115,0.022911936044692993,0.07727161049842834,9.107152938842773,0.36241835355758667,-3.6584999561309814
1403715888239058000,-0.005563709884881973,0.019464388489723206,0.07998131960630417,9.083174705505371,0.4258880317211151,-3.658724308013916
1403715888244058000,-0.005627430975437164,0.019912071526050568,0.07658815383911133,9.05130386352539,0.3867950737476349,-3.690490245819092
1403715888249058000,-0.005460672080516815,0.01998140662908554,0.07665196806192398,9.067648887634277,0.35472118854522705,-3.6904051303863525
1403715888254058000,-0.006191801279783249,0.02011464536190033,0.07588403671979904,9.066950798034668,0.4023514986038208,-3.6589701175689697
1403715888259058000,-0.005523737519979477,0.022194981575012207,0.07789186388254166,9.050052642822266,0.3553085923194885,-3.6349635124206543
1403715888264058000,-0.007436562329530716,0.018840700387954712,0.08125181496143341,9.10672378540039,0.37089604139328003,-3.6427254676818848
1403715888269058000,-0.005688171833753586,0.022645778954029083,0.07788950949907303,9.098008155822754,0.4742446541786194,-3.635307550430298
1403715888274058000,-0.0016128793358802795,0.019338227808475494,0.07732369005680084,9.106718063354492,0.42705702781677246,-3.6666336059570312
1403715888279058000,-0.003954008221626282,0.020150087773799896,0.07792063057422638,9.107467651367188,0.36302101612091064,-3.682183265686035
1403715888284058000,-0.004149671643972397,0.019385606050491333,0.07923133671283722,9.091246604919434,0.38593414425849915,-3.65866756439209
1403715888289058000,-0.0016129985451698303,0.0200909823179245,0.0765366181731224,9.09920883178711,0.37853100895881653,-3.6665942668914795
1403715888294058000,-0.0026968084275722504,0.02018849551677704,0.07859654724597931,9.139432907104492,0.3785554766654968,-3.67439866065979
1403715888299058000,-0.004194926470518112,0.01810659095644951,0.07934705913066864,9.091280937194824,0.4019550383090973,-3.690518856048584
1403715888304058000,-0.006914578378200531,0.02135579288005829,0.07860542833805084,9.083199501037598,0.4105553925037384,-3.658954381942749
1403715888309058000,-0.0054801106452941895,0.019412435591220856,0.07722046226263046,9.099578857421875,0.35469314455986023,-3.6586267948150635
1403715888314058000,-0.00486692413687706,0.01809176802635193,0.07992296665906906,9.074978828430176,0.4099790155887604,-3.627166271209717
1403715888319058000,-0.0021476484835147858,0.0220230370759964,0.07589791715145111,9.066606521606445,0.37096667289733887,-3.6348838806152344
1403715888324058000,-0.004621155560016632,0.02011319249868393,0.077907994389534,9.107292175292969,0.33120596408843994,-3.6582467555999756
1403715888329058000,-0.00017030909657478333,0.020221665501594543,0.07792100310325623,9.098828315734863,0.3621581792831421,-3.6662437915802
1403715888334058000,-0.004819583147764206,0.026680365204811096,0.07791289687156677,9.098609924316406,0.4421273171901703,-3.658696174621582
1403715888339058000,-0.00617033988237381,0.023460544645786285,0.07785725593566895,9.066868782043457,0.38713064789772034,-3.6427931785583496
1403715888344058000,-0.005634039640426636,0.02357478439807892,0.07722189277410507,9.099141120910645,0.37857210636138916,-3.6427180767059326
1403715888349058000,-0.006725013256072998,0.019995354115962982,0.0779380276799202,9.115250587463379,0.3863908648490906,-3.6427700519561768
1403715888354058000,-0.006755869835615158,0.021344080567359924,0.08054644614458084,9.098776817321777,0.35479170083999634,-3.6425015926361084
1403715888359058000,-0.006270810961723328,0.020722635090351105,0.080626480281353,9.067002296447754,0.41032591462135315,-3.6585001945495605
1403715888364058000,-0.005516700446605682,0.018780775368213654,0.079330213367939,9.091588973999023,0.44234707951545715,-3.6664929389953613
1403715888369058000,-0.0055139437317848206,0.018148519098758698,0.07665038853883743,9.091548919677734,0.3632884621620178,-3.6900241374969482
1403715888374058000,-0.002241034060716629,0.01802355796098709,0.07659114897251129,9.131686210632324,0.3861728310585022,-3.698164701461792
1403715888379058000,-0.0001623779535293579,0.018643729388713837,0.07850310206413269,9.058485984802246,0.45799487829208374,-3.6433770656585693
1403715888384058000,-0.0039738863706588745,0.020108811557292938,0.07852160185575485,9.074898719787598,0.3872365355491638,-3.6351206302642822
1403715888389058000,-0.00890878215432167,0.020082734525203705,0.07864683121442795,9.124231338500977,0.43460750579833984,-3.6904945373535156
1403715888394058000,-0.0064304545521736145,0.018073532730340958,0.07799278199672699,9.067055702209473,0.4184327721595764,-3.6587862968444824
1403715888399058000,-0.00419771671295166,0.021416395902633667,0.07861753553152084,9.091160774230957,0.36283695697784424,-3.6743271350860596
1403715888404058000,-0.0033792220056056976,0.020769193768501282,0.0805831030011177,9.147733688354492,0.3777269721031189,-3.6820876598358154
1403715888409058000,-0.0034461170434951782,0.02083323895931244,0.07791955769062042,9.074644088745117,0.3781895041465759,-3.6587209701538086
1403715888414058000,-0.005364071577787399,0.020773760974407196,0.07998501509428024,9.026724815368652,0.33139273524284363,-3.6271162033081055
1403715888419058000,-0.004904884845018387,0.02203834056854248,0.07592995464801788,9.059256553649902,0.362481951713562,-3.650899648666382
1403715888424058000,-0.0029494017362594604,0.018782760947942734,0.07729918509721756,9.090777397155762,0.37808969616889954,-3.6664884090423584
1403715888429058000,-0.004774849861860275,0.024710185825824738,0.07717201113700867,9.122323989868164,0.41080883145332336,-3.6744933128356934
1403715888434058000,-0.002823043614625931,0.024107851088047028,0.07722286880016327,9.098196029663086,0.3707635998725891,-3.674288272857666
1403715888439058000,-0.0015166699886322021,0.020200666040182114,0.0812898799777031,9.050662994384766,0.4186972379684448,-3.6666817665100098
1403715888444058000,-0.001341063529253006,0.021373189985752106,0.0792696475982666,9.083040237426758,0.3871269226074219,-3.634976863861084
1403715888449058000,-0.004111763089895248,0.023264899849891663,0.0766267478466034,9.107067108154297,0.3787989914417267,-3.6508090496063232
1403715888454058000,-0.005570642650127411,0.02013145387172699,0.0772133469581604,9.122876167297363,0.4342755675315857,-3.650944709777832
1403715888459058000,-0.0036194361746311188,0.024791039526462555,0.07988224923610687,9.066144943237305,0.44260504841804504,-3.6508893966674805
1403715888464058000,-0.004763375967741013,0.019428260624408722,0.07455848157405853,9.066871643066406,0.378968745470047,-3.6586761474609375
1403715888469058000,-0.004173725843429565,0.022744178771972656,0.07451268285512924,9.107056617736816,0.4341561198234558,-3.6587021350860596
1403715888474058000,-0.00413285568356514,0.01940023899078369,0.07658897340297699,9.075027465820312,0.36247536540031433,-3.674348831176758
1403715888479058000,-0.0014100000262260437,0.017501913011074066,0.07591637969017029,9.155660629272461,0.35441991686820984,-3.698028564453125
1403715888484058000,-0.004663478583097458,0.01605769246816635,0.07516305148601532,9.155387878417969,0.3859784007072449,-3.6429035663604736
1403715888489058000,-0.004873521625995636,0.021298199892044067,0.07584521919488907,9.05074691772461,0.3868564963340759,-3.650968313217163
1403715888494058000,-0.002141200006008148,0.01825954020023346,0.07658939808607101,9.059802055358887,0.3151566684246063,-3.6505229473114014
1403715888499058000,-0.003946680575609207,0.018257491290569305,0.07919298112392426,9.100021362304688,0.3539777994155884,-3.6584465503692627
1403715888504058000,-0.0034455545246601105,0.023354321718215942,0.07987181842327118,9.09037971496582,0.3704070746898651,-3.65051531791687
1403715888509058000,-0.002155520021915436,0.023489169776439667,0.08197762817144394,9.09069538116455,0.34691405296325684,-3.681783437728882
1403715888514058000,-1.2546777725219727e-05,0.024317093193531036,0.07994000613689423,9.122481346130371,0.3703633248806,-3.6582114696502686
1403715888519058000,-0.0014569871127605438,0.024757415056228638,0.07924281805753708,9.082371711730957,0.4266817271709442,-3.6430373191833496
1403715888524058000,0.0018721893429756165,0.024111106991767883,0.07920504361391068,9.0829496383667,0.3632567226886749,-3.6426403522491455
1403715888529058000,-0.0039989277720451355,0.024767480790615082,0.07989335805177689,9.107646942138672,0.4182330071926117,-3.6744940280914307
1403715888534058000,-0.0022033117711544037,0.018764354288578033,0.07862293720245361,9.10740852355957,0.4183117151260376,-3.666665554046631
1403715888539058000,-0.004807915538549423,0.02203848958015442,0.07926908880472183,9.04249382019043,0.36338910460472107,-3.63486385345459
1403715888544058000,-0.005344424396753311,0.01865103468298912,0.07998072355985641,9.083183288574219,0.38633185625076294,-3.642665147781372
1403715888549058000,-0.004810236394405365,0.020191997289657593,0.07995479553937912,9.115092277526855,0.36192789673805237,-3.658236503601074
1403715888554058000,-0.004131495952606201,0.02077876776456833,0.07929196208715439,9.082698822021484,0.4104543626308441,-3.6665515899658203
1403715888559058000,-0.0053911469876766205,0.019485533237457275,0.07933828234672546,9.131819725036621,0.40174320340156555,-3.698105812072754
1403715888564058000,-0.0069398581981658936,0.01735999435186386,0.07595815509557724,9.091496467590332,0.4824773073196411,-3.6592438220977783
1403715888569058000,-0.002159055322408676,0.02067452296614647,0.07454705238342285,9.082728385925293,0.3633326590061188,-3.6191623210906982
1403715888574058000,-0.004593901336193085,0.01945364475250244,0.07120607793331146,9.108060836791992,0.3307245075702667,-3.682331085205078
1403715888579058000,-0.006772689521312714,0.016854971647262573,0.07318968325853348,9.12405776977539,0.409908264875412,-3.6903982162475586
1403715888584058000,-0.006960030645132065,0.021365046501159668,0.07714369148015976,9.074761390686035,0.3949291706085205,-3.6508877277374268
1403715888589058000,-0.0034828074276447296,0.018059611320495605,0.0758964791893959,9.067449569702148,0.3631381392478943,-3.666626453399658
1403715888594058000,-0.002715904265642166,0.01751164346933365,0.07524387538433075,9.107483863830566,0.36230143904685974,-3.6663899421691895
1403715888599058000,-0.0021740980446338654,0.025309838354587555,0.07783296704292297,9.106956481933594,0.41816312074661255,-3.6746315956115723
1403715888604058000,-0.006046511232852936,0.02350194752216339,0.08055628091096878,9.09911823272705,0.36238643527030945,-3.674494743347168
1403715888609058000,-0.00820617750287056,0.023011356592178345,0.07988859713077545,9.10753059387207,0.3622719645500183,-3.674447536468506
1403715888614058000,-0.004396524280309677,0.01936286687850952,0.08062322437763214,9.099614143371582,0.3867104649543762,-3.6666274070739746
1403715888619058000,-0.006063919514417648,0.021934837102890015,0.07997564971446991,9.115609169006348,0.37091949582099915,-3.658637285232544
1403715888624058000,-0.004747960716485977,0.022755876183509827,0.07925983518362045,9.155905723571777,0.37007462978363037,-3.674311876296997
1403715888629058000,-0.0055483803153038025,0.021495983004570007,0.07985947281122208,9.10737419128418,0.42618420720100403,-3.6509883403778076
1403715888634058000,-0.004087124019861221,0.022867895662784576,0.08057987689971924,9.075343132019043,0.3629675805568695,-3.642810344696045
1403715888639058000,-0.0035219304263591766,0.021420083940029144,0.08067125082015991,9.116297721862793,0.37032032012939453,-3.6822597980499268
1403715888644058000,-0.002235308289527893,0.02006608247756958,0.0766388475894928,9.083691596984863,0.4179624021053314,-3.6825928688049316
1403715888649058000,-0.002815987914800644,0.02333933115005493,0.07591293752193451,9.075032234191895,0.44282856583595276,-3.6591453552246094
1403715888654058000,-0.0033988207578659058,0.02013053372502327,0.07521578669548035,9.09945011138916,0.3629533350467682,-3.658817768096924
1403715888659058000,-0.0035402923822402954,0.02015463262796402,0.07720125466585159,9.075011253356934,0.418213427066803,-3.6590304374694824
1403715888664058000,-0.003478817641735077,0.020024441182613373,0.07519499212503433,9.066726684570312,0.3947167694568634,-3.627375364303589
1403715888669058000,-0.006106283515691757,0.0214068666100502,0.07659397274255753,9.115521430969238,0.38661378622055054,-3.650773286819458
1403715888674058000,-0.008871491998434067,0.018125202506780624,0.07392062991857529,9.075247764587402,0.3864869475364685,-3.6586554050445557
1403715888679058000,-0.006344601511955261,0.020046621561050415,0.07789408415555954,9.08336067199707,0.4185082018375397,-3.666639804840088
1403715888684058000,-0.004820045083761215,0.024086326360702515,0.076508529484272,9.13948917388916,0.37060412764549255,-3.682173252105713
1403715888689058000,-0.003426540642976761,0.01957663893699646,0.07995306700468063,9.083094596862793,0.37000730633735657,-3.6823136806488037
1403715888694058000,-0.002167891710996628,0.02017972618341446,0.07993022352457047,9.034797668457031,0.37858548760414124,-3.6587910652160645
1403715888699058000,0.0005895569920539856,0.020624075084924698,0.07927947491407394,9.091083526611328,0.3947577178478241,-3.6429715156555176
1403715888704058000,-0.0026972144842147827,0.021380513906478882,0.079226553440094,9.066143035888672,0.4027024805545807,-3.6351115703582764
1403715888709058000,-0.003588397055864334,0.022173725068569183,0.07919391244649887,9.098559379577637,0.41849133372306824,-3.6745238304138184
1403715888714058000,-0.005527809262275696,0.018793758004903793,0.07657422870397568,9.090730667114258,0.38696110248565674,-3.6586155891418457
1403715888719058000,-0.004177380353212357,0.024064667522907257,0.07987921684980392,9.090582847595215,0.38647350668907166,-3.674294948577881
1403715888724058000,-0.004842914640903473,0.024706684052944183,0.08258462697267532,9.082773208618164,0.41821977496147156,-3.6507184505462646
1403715888729058000,-0.00480424240231514,0.01954321190714836,0.07595129311084747,9.058927536010742,0.4109809994697571,-3.643205165863037
1403715888734058000,-0.001491304486989975,0.019476279616355896,0.0793265700340271,9.115381240844727,0.3626312017440796,-3.6902287006378174
1403715888739058000,-0.0020446181297302246,0.01923074573278427,0.07725493609905243,9.106945991516113,0.3702200651168823,-3.666583299636841
1403715888744058000,-0.0034654587507247925,0.021386347711086273,0.07726689428091049,9.066267967224121,0.4182870388031006,-3.6589486598968506
1403715888749058000,-0.0021886788308620453,0.017569206655025482,0.07720455527305603,9.082979202270508,0.3706706464290619,-3.650723695755005
1403715888754058000,-0.002780511975288391,0.01806817203760147,0.07731402665376663,9.083212852478027,0.4264516532421112,-3.666781425476074
1403715888759058000,-0.003401767462491989,0.020639002323150635,0.07528889179229736,9.09875774383545,0.3867408335208893,-3.6587204933166504
1403715888764058000,-0.005437206476926804,0.020746305584907532,0.0718068927526474,9.123126029968262,0.37891843914985657,-3.6587789058685303
1403715888769058000,-0.0035053640604019165,0.021516934037208557,0.07517023384571075,9.146963119506836,0.4260658323764801,-3.6587541103363037
1403715888774058000,-0.00544850155711174,0.020085029304027557,0.07782914489507675,9.051025390625,0.386867880821228,-3.6667070388793945
1403715888779058000,-0.0067571066319942474,0.02072206139564514,0.07718054205179214,9.0916109085083,0.36313506960868835,-3.6349222660064697
1403715888784058000,-0.0015960410237312317,0.024060703814029694,0.08056213706731796,9.115093231201172,0.4020535945892334,-3.6348540782928467
1403715888789058000,-0.004017163068056107,0.022116467356681824,0.07992257177829742,9.09057903289795,0.434378445148468,-3.634943962097168
1403715888794058000,-0.0027421899139881134,0.023543953895568848,0.0805954709649086,9.09076976776123,0.37082377076148987,-3.6581997871398926
1403715888799058000,-0.002144448459148407,0.01811666041612625,0.07923675328493118,9.123574256896973,0.34625691175460815,-3.673980236053467
1403715888804058000,-0.005317088216543198,0.019991081207990646,0.0812550038099289,9.066774368286133,0.38643789291381836,-3.634699583053589
1403715888809058000,-0.006196558475494385,0.018668800592422485,0.0786103829741478,9.091577529907227,0.3787337839603424,-3.6426503658294678
1403715888814058000,-0.0069045498967170715,0.022115498781204224,0.07588633894920349,9.099344253540039,0.3785443603992462,-3.6427292823791504
1403715888819058000,-0.0034873895347118378,0.018133096396923065,0.07588440179824829,9.09912109375,0.42670735716819763,-3.6508307456970215
1403715888824058000,-0.002793259918689728,0.02069738879799843,0.07581990957260132,9.050548553466797,0.41927894949913025,-3.635004758834839
1403715888829058000,-0.004680957645177841,0.01798723265528679,0.07720702886581421,9.042922019958496,0.3789142072200775,-3.6425983905792236
1403715888834058000,-0.005546689033508301,0.019994474947452545,0.07652672380208969,9.115131378173828,0.44226735830307007,-3.650592565536499
1403715888839058000,-0.003586217761039734,0.019379369914531708,0.07927577942609787,9.074089050292969,0.4109775722026825,-3.6189327239990234
1403715888844058000,-0.0027095451951026917,0.020795360207557678,0.07722204178571701,9.082025527954102,0.347248911857605,-3.618669033050537
1403715888849058000,-0.004699476063251495,0.018081508576869965,0.07521611452102661,9.090714454650879,0.4021702706813812,-3.618891954421997
1403715888854058000,-0.003538757562637329,0.01999443769454956,0.07719486206769943,9.08255672454834,0.43425920605659485,-3.6345937252044678
1403715888859058000,-0.003388281911611557,0.020055484026670456,0.07584219425916672,9.139060974121094,0.3628760874271393,-3.649998664855957
1403715888864058000,-0.004732858389616013,0.018769145011901855,0.07791274040937424,9.115310668945312,0.3780624568462372,-3.665992498397827
1403715888869058000,-0.002900298684835434,0.022723883390426636,0.07716929167509079,9.114548683166504,0.40228191018104553,-3.6344690322875977
1403715888874058000,-0.0034356527030467987,0.02339988946914673,0.07924124598503113,9.074995040893555,0.3870108425617218,-3.642418622970581
1403715888879058000,-0.005373317748308182,0.02154436707496643,0.08056358247995377,9.099358558654785,0.3784122169017792,-3.6501543521881104
1403715888884058000,-0.004251763224601746,0.016050029546022415,0.07858792692422867,9.09144401550293,0.4026854932308197,-3.6583468914031982
1403715888889058000,-0.0035165660083293915,0.02120017260313034,0.07725775986909866,9.099214553833008,0.41091179847717285,-3.6741867065429688
1403715888894058000,-0.002741631120443344,0.02272440493106842,0.07921641319990158,9.1231689453125,0.362275093793869,-3.681708574295044
1403715888899058000,-0.003513369709253311,0.024290308356285095,0.08324289321899414,9.11516284942627,0.43379390239715576,-3.6583855152130127
1403715888904058000,-0.0008629970252513885,0.022833310067653656,0.08057112991809845,9.074726104736328,0.4588747024536133,-3.627204179763794
1403715888909058000,-0.0027089230716228485,0.020056121051311493,0.07666810601949692,9.124373435974121,0.38699695467948914,-3.682187080383301
1403715888914058000,-0.006774190813302994,0.01792280375957489,0.0773150771856308,9.132304191589355,0.4261459410190582,-3.666534423828125
1403715888919058000,-0.005656860768795013,0.019264765083789825,0.07722187787294388,9.09161376953125,0.40244174003601074,-3.6665823459625244
1403715888924058000,-0.000883202999830246,0.0207710862159729,0.07921704649925232,9.099920272827148,0.4025766849517822,-3.682304859161377
1403715888929058000,-0.00588449090719223,0.020255178213119507,0.0772857517004013,9.140385627746582,0.3700827360153198,-3.6980020999908447
1403715888934058000,-0.0056406110525131226,0.020700909197330475,0.07597999274730682,9.034908294677734,0.4667285680770874,-3.643559217453003
1403715888939058000,-0.00426429882645607,0.020042944699525833,0.07861300557851791,9.03537368774414,0.3791339695453644,-3.651027202606201
1403715888944058000,-0.009419357404112816,0.023331478238105774,0.0771993026137352,9.091822624206543,0.42633649706840515,-3.682673454284668
1403715888949058000,-0.006392698734998703,0.018030405044555664,0.07653109729290009,9.06619930267334,0.4265499413013458,-3.6194963455200195
1403715888954058000,-0.002248082309961319,0.022778935730457306,0.08122939616441727,9.066170692443848,0.3871574401855469,-3.6506805419921875
1403715888959058000,-0.00447666272521019,0.021430887281894684,0.07732195407152176,9.11523723602295,0.34675195813179016,-3.6898438930511475
1403715888964058000,-0.002161990851163864,0.018892444670200348,0.08130411058664322,9.114701271057129,0.36203449964523315,-3.6425013542175293
1403715888969058000,-0.0021599605679512024,0.021402455866336823,0.07989195734262466,9.098837852478027,0.40262940526008606,-3.6349682807922363
1403715888974058000,-0.005302987992763519,0.02000853791832924,0.07866699248552322,9.107560157775879,0.37848326563835144,-3.650517225265503
1403715888979058000,-0.0016863271594047546,0.018822260200977325,0.07789649814367294,9.131503105163574,0.3943226933479309,-3.658409833908081
1403715888984058000,-0.004773203283548355,0.01933414489030838,0.07654984295368195,9.066910743713379,0.4187963306903839,-3.6430680751800537
1403715888989058000,-0.0033606886863708496,0.02004678174853325,0.07727359235286713,9.099112510681152,0.37081238627433777,-3.6504714488983154
1403715888994058000,-0.006215289235115051,0.022090919315814972,0.07581038773059845,9.130985260009766,0.4105747640132904,-3.634772300720215
1403715888999058000,-0.007512018084526062,0.02007727324962616,0.07657187432050705,9.042474746704102,0.4189341068267822,-3.6350507736206055
1403715889004058000,-0.0016287565231323242,0.022144079208374023,0.07791177928447723,9.091222763061523,0.36305147409439087,-3.6661672592163086
1403715889009058000,-0.0033861063420772552,0.020724818110466003,0.07658906280994415,9.09959602355957,0.37831518054008484,-3.6820881366729736
1403715889014058000,-0.00472717359662056,0.020684700459241867,0.07453063130378723,9.074522018432617,0.42627888917922974,-3.6429855823516846
1403715889019058000,-0.0049575455486774445,0.02007298544049263,0.0765325129032135,9.083235740661621,0.402827650308609,-3.6587257385253906
1403715889024058000,-0.004049967974424362,0.020802699029445648,0.07924158126115799,9.123395919799805,0.3304557204246521,-3.666090965270996
1403715889029058000,-0.00277058407664299,0.0207846537232399,0.07589856535196304,9.106911659240723,0.36215847730636597,-3.6584417819976807
1403715889034058000,-0.004710748791694641,0.018070627003908157,0.07787470519542694,9.058353424072266,0.3946368992328644,-3.5716404914855957
1403715889039058000,-0.005395099520683289,0.021411485970020294,0.0785650759935379,9.131356239318848,0.37849298119544983,-3.642336130142212
1403715889044058000,-0.004922304302453995,0.022718355059623718,0.0785728394985199,9.123551368713379,0.4023549258708954,-3.6896958351135254
1403715889049058000,-0.0055108144879341125,0.019509699195623398,0.07583640515804291,9.05086898803711,0.3790789246559143,-3.658482551574707
1403715889054058000,-0.0034905262291431427,0.023508340120315552,0.07857153564691544,9.1234769821167,0.3545382618904114,-3.6740715503692627
1403715889059058000,-0.0034624896943569183,0.020012326538562775,0.07789167016744614,9.107089042663574,0.4021158814430237,-3.6427202224731445
1403715889064058000,-0.004698470234870911,0.018778175115585327,0.07849886268377304,9.090560913085938,0.39488863945007324,-3.611185312271118
1403715889069058000,-0.0041119009256362915,0.021403029561042786,0.07989068329334259,9.115199089050293,0.3471285104751587,-3.626676321029663
1403715889074058000,-0.00485612079501152,0.01736951619386673,0.07591843605041504,9.115668296813965,0.41021960973739624,-3.6583962440490723
1403715889079058000,-0.004167631268501282,0.01811029389500618,0.0765494629740715,9.059154510498047,0.3945811092853546,-3.642406463623047
1403715889084058000,-0.004832226783037186,0.020597364753484726,0.07848841696977615,9.075239181518555,0.426785409450531,-3.618894338607788
1403715889089058000,-0.0034932680428028107,0.022761210799217224,0.07722092419862747,9.107270240783691,0.40242934226989746,-3.666114091873169
1403715889094058000,-0.004170052707195282,0.018834635615348816,0.08061619102954865,9.107410430908203,0.4504539370536804,-3.674323320388794
1403715889099058000,-0.0035066530108451843,0.01734292134642601,0.07729560881853104,9.075093269348145,0.41081809997558594,-3.6587412357330322
1403715889104058000,-0.004817835986614227,0.01992475986480713,0.07801574468612671,9.107809066772461,0.3783093988895416,-3.690112829208374
1403715889109058000,-0.004882108420133591,0.019963905215263367,0.0778408870100975,9.075172424316406,0.4423264265060425,-3.6429762840270996
1403715889114058000,-0.003551904112100601,0.020151428878307343,0.07651760429143906,9.058862686157227,0.41092821955680847,-3.635054349899292
1403715889119058000,-0.006758593022823334,0.022126592695713043,0.07590427249670029,9.123771667480469,0.3864838182926178,-3.690094470977783
1403715889124058000,-0.004856228828430176,0.016104094684123993,0.07858915627002716,9.131660461425781,0.3618984818458557,-3.689811944961548
1403715889129058000,-0.004252254962921143,0.019958429038524628,0.07859399169683456,9.098968505859375,0.4263341724872589,-3.666689395904541
1403715889134058000,-0.005330272018909454,0.01995677500963211,0.07790835946798325,9.099312782287598,0.3706521689891815,-3.634889602661133
1403715889139058000,-0.002193927764892578,0.019536778330802917,0.07858245819807053,9.140020370483398,0.3623880445957184,-3.6741890907287598
1403715889144058000,-0.002801019698381424,0.020787417888641357,0.07656165957450867,9.08345890045166,0.40260136127471924,-3.6667518615722656
1403715889149058000,-0.003399670124053955,0.022677108645439148,0.07986997812986374,9.050905227661133,0.3949424624443054,-3.635089635848999
1403715889154058000,-0.005543962121009827,0.022153116762638092,0.07655135542154312,9.164012908935547,0.39438945055007935,-3.682257652282715
1403715889159058000,-0.003566756844520569,0.023425422608852386,0.08129057288169861,9.082725524902344,0.4024176001548767,-3.6585195064544678
1403715889164058000,-0.006103835999965668,0.02071136236190796,0.07658237963914871,9.08320426940918,0.3870372772216797,-3.658649206161499
1403715889169058000,-0.000991780310869217,0.022046074271202087,0.0793079361319542,9.091937065124512,0.43440166115760803,-3.6904995441436768
1403715889174058000,-0.004713188856840134,0.02134384959936142,0.07585960626602173,9.058966636657715,0.40271681547164917,-3.6431350708007812
1403715889179058000,-0.005404133349657059,0.024713680148124695,0.08049213141202927,9.00973129272461,0.40327391028404236,-3.572016716003418
1403715889184058000,-0.005673620849847794,0.022846408188343048,0.07859183102846146,9.091231346130371,0.4023597538471222,-3.666543960571289
1403715889189058000,-0.003474876284599304,0.01949818804860115,0.07861915975809097,9.146531105041504,0.3941531479358673,-3.658112049102783
1403715889194058000,-0.006071992218494415,0.019245725125074387,0.07457960397005081,9.073785781860352,0.42678511142730713,-3.6113221645355225
1403715889199058000,-0.0041588470339775085,0.01731303334236145,0.07523498684167862,9.083011627197266,0.3546826243400574,-3.642458915710449
1403715889204058000,-0.006744425743818283,0.01877395063638687,0.0798746719956398,9.124007225036621,0.39434942603111267,-3.666006565093994
1403715889209058000,-0.006841279566287994,0.020077526569366455,0.07918120175600052,9.042645454406738,0.40255340933799744,-3.619096040725708
1403715889214058000,-0.0036653317511081696,0.02012154459953308,0.07929892838001251,9.066587448120117,0.4266689419746399,-3.6191155910491943
1403715889219058000,-0.0014162547886371613,0.016851268708705902,0.07598987221717834,9.115436553955078,0.3787325322628021,-3.697675943374634
1403715889224058000,-0.005371220409870148,0.019936561584472656,0.07593216747045517,9.106351852416992,0.43461641669273376,-3.6743521690368652
1403715889229058000,-0.005642171949148178,0.02131783217191696,0.07781455665826797,9.090804100036621,0.41067442297935486,-3.682363748550415
1403715889234058000,-0.0068209208548069,0.022245734930038452,0.07649660855531693,9.123265266418457,0.3388191759586334,-3.658241033554077
1403715889239058000,-0.006842996925115585,0.015510614961385727,0.0759386271238327,9.09974479675293,0.37847989797592163,-3.6586039066314697
1403715889244058000,-0.0029908381402492523,0.01796140894293785,0.07928290963172913,9.075780868530273,0.4024103581905365,-3.674534797668457
1403715889249058000,-0.0034051910042762756,0.02256155014038086,0.0772482380270958,9.075406074523926,0.3868415951728821,-3.682415008544922
1403715889254058000,-0.0034240037202835083,0.024216726422309875,0.07855131477117538,9.131439208984375,0.3940408527851105,-3.698060989379883
1403715889259058000,-0.0017387829720973969,0.020231440663337708,0.08056049793958664,9.05078125,0.47438740730285645,-3.6908011436462402
1403715889264058000,-0.002776842564344406,0.020670630037784576,0.07864316552877426,9.058759689331055,0.3872259557247162,-3.6588664054870605
1403715889269058000,-0.0054389312863349915,0.021894022822380066,0.07928528636693954,9.083112716674805,0.36273378133773804,-3.658900022506714
1403715889274058000,-0.006899140775203705,0.019367046654224396,0.07854713499546051,9.026093482971191,0.37867340445518494,-3.6116061210632324
1403715889279058000,-0.006131205707788467,0.01813039556145668,0.0759357437491417,9.074402809143066,0.3710905611515045,-3.6192193031311035
1403715889284058000,-0.0021105632185935974,0.021344825625419617,0.07513643801212311,9.105978965759277,0.3626163601875305,-3.611025810241699
1403715889289058000,-0.002045821398496628,0.018744200468063354,0.07518252730369568,9.106217384338379,0.39406898617744446,-3.6583385467529297
1403715889294058000,-0.002820141613483429,0.021467506885528564,0.07387174665927887,9.066936492919922,0.4187352657318115,-3.7060956954956055
1403715889299058000,-0.004224155098199844,0.020704738795757294,0.07851198315620422,9.107280731201172,0.4264904856681824,-3.674525260925293
1403715889304058000,-0.002880837768316269,0.017384756356477737,0.07519218325614929,9.123381614685059,0.40268293023109436,-3.6667771339416504
1403715889309058000,-0.0014881864190101624,0.021323904395103455,0.0819360762834549,9.114768981933594,0.4346751868724823,-3.6350929737091064
1403715889314058000,-0.002681095153093338,0.02270156890153885,0.0785294845700264,9.114570617675781,0.39482855796813965,-3.634999990463257
1403715889319058000,-0.0054143331944942474,0.021586008369922638,0.07663852721452713,9.155890464782715,0.41020631790161133,-3.6901867389678955
1403715889324058000,-0.0029075518250465393,0.01810493692755699,0.07516969740390778,9.091282844543457,0.4105885624885559,-3.650592565536499
1403715889329058000,-0.002119891345500946,0.022626012563705444,0.08118846267461777,9.10760498046875,0.39436453580856323,-3.6582610607147217
1403715889334058000,-0.006693478673696518,0.02271304279565811,0.07992005348205566,9.116018295288086,0.38616129755973816,-3.6662778854370117
1403715889339058000,-0.005017045885324478,0.022835925221443176,0.07923001796007156,9.099474906921387,0.44211694598197937,-3.658677816390991
1403715889344058000,-0.004231434315443039,0.024128809571266174,0.08133009076118469,9.083396911621094,0.4345448613166809,-3.6667582988739014
1403715889349058000,-0.003386799246072769,0.022076241672039032,0.07862597703933716,9.091649055480957,0.39488184452056885,-3.6746256351470947
1403715889354058000,-0.002815980464220047,0.018094584345817566,0.077207550406456,9.123692512512207,0.39454224705696106,-3.658726930618286
1403715889359058000,-0.0027798600494861603,0.01930006593465805,0.07920227944850922,9.099770545959473,0.41851142048835754,-3.6747052669525146
1403715889364058000,-0.0013895370066165924,0.018055029213428497,0.07731848955154419,9.140193939208984,0.37055572867393494,-3.6822540760040283
1403715889369058000,-0.004098307341337204,0.019467957317829132,0.07456687837839127,9.09181022644043,0.3787645995616913,-3.6588361263275146
1403715889374058000,-0.004161369055509567,0.018091462552547455,0.07385362684726715,9.083778381347656,0.410732626914978,-3.6433017253875732
1403715889379058000,-0.004152406007051468,0.02142975479364395,0.07719440758228302,9.131858825683594,0.4025561809539795,-3.642929792404175
1403715889384058000,-0.0074526406824588776,0.019373595714569092,0.07717621326446533,9.13994026184082,0.45819559693336487,-3.6590328216552734
1403715889389058000,-0.007623709738254547,0.024028107523918152,0.07716958969831467,9.09092903137207,0.4508228302001953,-3.6431679725646973
1403715889394058000,-0.004935149103403091,0.02207253873348236,0.0752372220158577,9.083585739135742,0.4114567041397095,-3.6430106163024902
1403715889399058000,-0.005998969078063965,0.02149227261543274,0.07789698243141174,9.107781410217285,0.3707176148891449,-3.6426234245300293
1403715889404058000,-0.0035351477563381195,0.019997917115688324,0.0784914419054985,9.05907154083252,0.4105980396270752,-3.62699294090271
1403715889409058000,-0.006184741854667664,0.023894421756267548,0.07848002761602402,9.066559791564941,0.46679288148880005,-3.6035258769989014
1403715889414058000,-0.004067722707986832,0.020843446254730225,0.07791247963905334,9.074772834777832,0.3389809727668762,-3.626455545425415
1403715889419058000,-0.006190646439790726,0.01683664321899414,0.07527293264865875,9.123714447021484,0.3861756920814514,-3.6899116039276123
1403715889424058000,-0.0034821927547454834,0.02063177525997162,0.08052480965852737,9.098429679870605,0.38598117232322693,-3.6265742778778076
1403715889429058000,-0.005409084260463715,0.021343320608139038,0.08253003656864166,9.07485580444336,0.3705057203769684,-3.6344411373138428
1403715889434058000,-0.00478728860616684,0.022292211651802063,0.0806267186999321,9.139714241027832,0.37027767300605774,-3.657956123352051
1403715889439058000,-0.004891950637102127,0.021478623151779175,0.08134249597787857,9.026739120483398,0.40280434489250183,-3.6345880031585693
1403715889444058000,-0.0034803375601768494,0.017453491687774658,0.08273927122354507,9.075450897216797,0.36284396052360535,-3.6660854816436768
1403715889449058000,-0.00486910343170166,0.019309185445308685,0.07865852862596512,9.115561485290527,0.42611628770828247,-3.682126522064209
1403715889454058000,-0.004268966615200043,0.01995440572500229,0.07721249014139175,9.090370178222656,0.43452513217926025,-3.6664223670959473
1403715889459058000,-0.004167422652244568,0.024190671741962433,0.07994220405817032,9.090380668640137,0.39518553018569946,-3.6505775451660156
1403715889464058000,-0.0034223757684230804,0.024966895580291748,0.07863453775644302,9.123042106628418,0.3465145230293274,-3.650275707244873
1403715889469058000,-0.005476918071508408,0.02221304178237915,0.07861388474702835,9.107069969177246,0.39393097162246704,-3.6584558486938477
1403715889474058000,-0.004859454929828644,0.019381463527679443,0.07527757436037064,9.075244903564453,0.3867812752723694,-3.6349334716796875
1403715889479058000,-0.0041017718613147736,0.023317009210586548,0.07796463370323181,9.155550003051758,0.3383737802505493,-3.658010482788086
1403715889484058000,-0.003447461873292923,0.021404854953289032,0.07853158563375473,9.106904983520508,0.3940964937210083,-3.642493486404419
1403715889489058000,-0.006784744560718536,0.019562792032957077,0.07859288156032562,9.107245445251465,0.4262978732585907,-3.6348788738250732
1403715889494058000,-0.0042497217655181885,0.023459620773792267,0.07732512801885605,9.083468437194824,0.3548160195350647,-3.674135208129883
1403715889499058000,-0.006183229386806488,0.024743646383285522,0.07726896554231644,9.107769012451172,0.39428678154945374,-3.6821513175964355
1403715889504058000,-0.004807028919458389,0.017576467245817184,0.08060891926288605,9.059195518493652,0.378818541765213,-3.6348190307617188
1403715889509058000,-0.0015385746955871582,0.020036544650793076,0.081239715218544,9.082799911499023,0.40285927057266235,-3.611149549484253
1403715889514058000,-0.0033348873257637024,0.021950267255306244,0.07865782082080841,9.115338325500488,0.3622775077819824,-3.689741849899292
1403715889519058000,-0.002786654978990555,0.018898099660873413,0.07931091636419296,9.107222557067871,0.38631054759025574,-3.6582748889923096
1403715889524058000,-0.0029370374977588654,0.022840313613414764,0.07855835556983948,9.05837631225586,0.4347047507762909,-3.619249105453491
1403715889529058000,-0.003377772867679596,0.02411864697933197,0.078560009598732,9.12349796295166,0.36240869760513306,-3.650146961212158
1403715889534058000,-0.003556814044713974,0.022182993590831757,0.0819077417254448,9.08335018157959,0.4183180034160614,-3.666137933731079
1403715889539058000,-0.004223093390464783,0.022086575627326965,0.08132493495941162,9.066944122314453,0.4424382746219635,-3.6507177352905273
1403715889544058000,-0.0020984485745429993,0.018051601946353912,0.0800899937748909,9.091634750366211,0.37087664008140564,-3.682121992111206
1403715889549058000,-0.004816602915525436,0.019339915364980698,0.07798362523317337,9.083354949951172,0.410455584526062,-3.698209524154663
1403715889554058000,-0.005529772490262985,0.01999683305621147,0.07796062529087067,9.098931312561035,0.42622894048690796,-3.6588330268859863
1403715889559058000,-0.0029318518936634064,0.02216559648513794,0.0765569657087326,9.115002632141113,0.4108978509902954,-3.6588358879089355
1403715889564058000,-0.004006464034318924,0.01887759566307068,0.0752236396074295,9.115025520324707,0.3784502446651459,-3.6428489685058594
1403715889569058000,-0.0034554265439510345,0.02065971866250038,0.07590916007757187,9.107247352600098,0.42631080746650696,-3.643033504486084
1403715889574058000,-0.0034578442573547363,0.0239977166056633,0.07858744263648987,9.090967178344727,0.3788492977619171,-3.634721517562866
1403715889579058000,-0.004046216607093811,0.020865872502326965,0.07524307817220688,9.1559419631958,0.37834131717681885,-3.681990623474121
1403715889584058000,-0.0035108625888824463,0.01818392425775528,0.0779157504439354,9.099581718444824,0.394284725189209,-3.6664137840270996
1403715889589058000,-0.0028067119419574738,0.019891146570444107,0.07786401361227036,9.082600593566895,0.43491116166114807,-3.595670223236084
1403715889594058000,-0.002705346792936325,0.02201683819293976,0.07791999727487564,9.091439247131348,0.38676032423973083,-3.6427555084228516
1403715889599058000,-0.00015672296285629272,0.021509535610675812,0.07785194367170334,9.107080459594727,0.43436872959136963,-3.634877920150757
1403715889604058000,0.0013107135891914368,0.018801987171173096,0.07652909308671951,9.090559005737305,0.4109271168708801,-3.611164093017578
1403715889609058000,-0.003924991935491562,0.022656172513961792,0.08059871196746826,9.099143028259277,0.40262407064437866,-3.6345815658569336
1403715889614058000,-0.004274740815162659,0.020693372935056686,0.07990698516368866,9.115853309631348,0.4101663827896118,-3.6896116733551025
1403715889619058000,-0.006313275545835495,0.024079039692878723,0.07925454527139664,9.091294288635254,0.4745310842990875,-3.6506996154785156
1403715889624058000,-0.0061456747353076935,0.02142411470413208,0.07857052236795425,9.091394424438477,0.434988796710968,-3.635063409805298
1403715889629058000,-0.00420524924993515,0.024084120988845825,0.07720121741294861,9.09923267364502,0.402635395526886,-3.6347591876983643
1403715889634058000,-0.004025425761938095,0.018658921122550964,0.07651864737272263,9.115110397338867,0.4504356384277344,-3.6112220287323
1403715889639058000,-0.0007350482046604156,0.020720459520816803,0.07786940783262253,9.09107780456543,0.39469054341316223,-3.658233880996704
1403715889644058000,-0.005973093211650848,0.018730752170085907,0.07795798778533936,9.10770320892334,0.3466399610042572,-3.6658663749694824
1403715889649058000,-0.006252560764551163,0.020727917551994324,0.08063487708568573,9.099716186523438,0.43388721346855164,-3.6740856170654297
1403715889654058000,-0.003064427524805069,0.02277117222547531,0.07993702590465546,9.05907154083252,0.44269874691963196,-3.6585116386413574
1403715889659058000,-0.006562449038028717,0.018904179334640503,0.08002593368291855,9.091805458068848,0.338848739862442,-3.666145086288452
1403715889664058000,-0.0061187781393527985,0.021464474499225616,0.08063413947820663,9.131531715393066,0.37787261605262756,-3.6663036346435547
1403715889669058000,-0.00764123722910881,0.02123899757862091,0.07390692830085754,9.074755668640137,0.44265565276145935,-3.659043788909912
1403715889674058000,-0.0028716884553432465,0.02346249669790268,0.07657333463430405,9.06691837310791,0.4034653604030609,-3.6665663719177246
1403715889679058000,-0.003451131284236908,0.02157827466726303,0.07920647412538528,9.099624633789062,0.3548184335231781,-3.6820647716522217
1403715889684058000,-0.004739586263895035,0.01948511227965355,0.07998871058225632,9.051012992858887,0.34671297669410706,-3.6663565635681152
1403715889689058000,-0.002176675945520401,0.023417912423610687,0.08062280714511871,9.074541091918945,0.34662914276123047,-3.6425788402557373
1403715889694058000,-0.00020997971296310425,0.022141948342323303,0.08139287680387497,9.067191123962402,0.3778814673423767,-3.7296576499938965
1403715889699058000,-0.00353066623210907,0.024817481637001038,0.08001440763473511,9.002025604248047,0.46652141213417053,-3.6986865997314453
1403715889704058000,-0.011192750185728073,0.017868828028440475,0.08598830550909042,9.083633422851562,0.6912077069282532,-3.715944528579712
1403715889709058000,-0.023271556943655014,0.01586398482322693,0.08950941264629364,9.141024589538574,0.6030014157295227,-3.762923002243042
1403715889714058000,-0.029916226863861084,0.023157507181167603,0.08821374177932739,9.050583839416504,0.37927255034446716,-3.6357202529907227
1403715889719058000,-0.013471374288201332,0.007951229810714722,0.09504438936710358,9.218716621398926,-0.100678451359272,-3.6730496883392334
1403715889724058000,0.014253664761781693,0.0439729318022728,0.07093042880296707,9.056618690490723,-0.646379292011261,-3.3990588188171387
1403715889729058000,0.0637645572423935,0.010931726545095444,0.05932275205850601,9.236857414245605,-0.24610958993434906,-3.6227738857269287
1403715889734058000,0.07993815839290619,0.01569267362356186,0.051942743360996246,9.031935691833496,0.6472655534744263,-3.6671085357666016
1403715889739058000,0.046872127801179886,0.0367785319685936,0.03807244822382927,8.86251163482666,1.6199946403503418,-3.6644270420074463
1403715889744058000,-0.020936250686645508,-0.0010468140244483948,0.06947069615125656,9.081890106201172,2.1937544345855713,-3.9339165687561035
1403715889749058000,-0.09793699532747269,0.004057064652442932,0.07966067641973495,8.901864051818848,1.9951205253601074,-3.6668202877044678
1403715889754058000,-0.13689665496349335,0.014671031385660172,0.11286523193120956,9.346685409545898,0.37351885437965393,-3.8279690742492676
1403715889759058000,-0.11165428161621094,0.02998441457748413,0.09390842169523239,8.909153938293457,-0.8923580646514893,-3.4575865268707275
1403715889764058000,-0.03274979814887047,0.004651669412851334,0.11750616133213043,9.061601638793945,-1.0269564390182495,-3.398075819015503
1403715889769058000,0.03314917907118797,0.02046673744916916,0.09300322085618973,9.387368202209473,-0.8986215591430664,-3.562124729156494
1403715889774058000,0.07583107054233551,0.05399902164936066,0.06465671211481094,9.103038787841797,-0.4169824719429016,-3.341736078262329
1403715889779058000,0.09210205078125,-0.007743388414382935,0.06634790450334549,9.25794792175293,0.5651679039001465,-3.663832426071167
1403715889784058000,0.07740865647792816,0.027623608708381653,0.07801874727010727,9.56003475189209,1.0948058366775513,-3.896075487136841
1403715889789058000,0.023366335779428482,0.05268742889165878,0.06532933562994003,8.463385581970215,1.4258711338043213,-3.714600086212158
1403715889794058000,-0.018633142113685608,0.009808234870433807,0.10102087259292603,9.229232788085938,1.4694156646728516,-3.8055057525634766
1403715889799058000,-0.05779780074954033,0.03414894640445709,0.09229668974876404,9.054655075073242,0.9273481369018555,-3.7588768005371094
1403715889804058000,-0.07778994739055634,0.017611972987651825,0.09738258272409439,9.148439407348633,0.6945977807044983,-3.749337911605835
1403715889809058000,-0.07920067012310028,0.018619291484355927,0.08452527225017548,8.932977676391602,0.16310779750347137,-3.518291711807251
1403715889814058000,-0.04710763692855835,0.03266642242670059,0.08750790357589722,9.44616985321045,-0.5263068079948425,-3.5592362880706787
1403715889819058000,0.0008502639830112457,0.017284899950027466,0.07052730023860931,8.571741104125977,-0.5469806790351868,-3.398970603942871
1403715889824058000,0.036742452532052994,0.03087015450000763,0.055867746472358704,9.948954582214355,-0.3355083465576172,-3.784839391708374
1403715889829058000,0.06145988777279854,0.05064573138952255,0.0612054169178009,8.634526252746582,0.1818939745426178,-3.536827325820923
1403715889834058000,0.06801643967628479,0.03460177779197693,0.054622914642095566,8.852017402648926,0.7852967381477356,-3.518541097640991
1403715889839058000,0.04346276447176933,0.023003235459327698,0.0774107426404953,9.36872386932373,1.1633014678955078,-3.845550298690796
1403715889844058000,-0.004853665828704834,0.03999794274568558,0.06312988698482513,8.792651176452637,1.3076144456863403,-3.643824815750122
1403715889849058000,-0.042003314942121506,0.00035648420453071594,0.09764960408210754,8.921102523803711,0.9595126509666443,-3.6722848415374756
1403715889854058000,-0.061884284019470215,0.025873787701129913,0.0906202644109726,9.02989387512207,0.6185651421546936,-3.550112009048462
1403715889859058000,-0.058519601821899414,0.008490078151226044,0.1073416918516159,9.081374168395996,0.10081712901592255,-3.6503355503082275
1403715889864058000,-0.04059125855565071,0.01570558175444603,0.09212063252925873,9.322044372558594,-0.12839198112487793,-3.5138180255889893
1403715889869058000,-0.010870987549424171,0.03174088895320892,0.08749333024024963,9.165342330932617,-0.3225362300872803,-3.527296543121338
1403715889874058000,0.024461690336465836,0.022499173879623413,0.07204491645097733,8.94615364074707,-0.3606034815311432,-3.4935312271118164
1403715889879058000,0.046918656677007675,0.02355463057756424,0.0661557987332344,9.546802520751953,-0.0116887167096138,-3.8182826042175293
1403715889884058000,0.054137419909238815,0.05280876159667969,0.0653616413474083,8.978489875793457,0.6719224452972412,-3.5322699546813965
1403715889889058000,0.03760780021548271,0.02806752920150757,0.08149482309818268,8.960539817810059,0.8721809983253479,-3.661022901535034
1403715889894058000,0.012134481221437454,0.03139098733663559,0.07728427648544312,8.929226875305176,1.0139204263687134,-3.6076786518096924
1403715889899058000,-0.026225846260786057,0.005234874784946442,0.08368691802024841,8.936554908752441,0.9576854109764099,-3.5918681621551514
1403715889904058000,-0.04384914040565491,0.006128374487161636,0.07295520603656769,9.27079963684082,0.4001576900482178,-3.7459611892700195
1403715889909058000,-0.029263271018862724,0.024013303220272064,0.06731981784105301,9.354772567749023,0.07639096677303314,-3.743617296218872
1403715889914058000,-0.012453209608793259,0.012024283409118652,0.0845617949962616,8.920429229736328,0.17470648884773254,-3.594571590423584
1403715889919058000,-0.008627709001302719,0.03503312170505524,0.09100271016359329,9.433659553527832,0.6051003932952881,-3.752877712249756
1403715889924058000,-0.02275163307785988,0.03818832337856293,0.09483043104410172,8.9540376663208,0.9031031727790833,-3.549917459487915
1403715889929058000,-0.04500166326761246,0.021576084196567535,0.09426102787256241,8.85809326171875,0.5918284058570862,-3.469667434692383
1403715889934058000,-0.04641822725534439,0.018950793892145157,0.08036931604146957,9.030048370361328,-0.02060263603925705,-3.5858519077301025
1403715889939058000,-0.006091214716434479,0.013872954994440079,0.06815837323665619,9.250393867492676,-0.9397839903831482,-3.6411690711975098
1403715889944058000,0.06280766427516937,0.01750611886382103,0.06585785746574402,9.238765716552734,-0.8391274809837341,-3.6333932876586914
1403715889949058000,0.11580157279968262,0.037551864981651306,0.06014546751976013,9.35841178894043,0.2880710959434509,-3.796393632888794
1403715889954058000,0.09612758457660675,0.03915084898471832,0.07872605323791504,8.61811637878418,1.6392619609832764,-3.534353256225586
1403715889959058000,0.012677952647209167,0.017571762204170227,0.07784543186426163,9.150897026062012,2.2650163173675537,-3.9399614334106445
1403715889964058000,-0.0708405002951622,0.02490038424730301,0.07815168797969818,8.925454139709473,1.846521019935608,-3.606368064880371
1403715889969058000,-0.1159726232290268,-0.010401498526334763,0.09364151209592819,8.87562084197998,0.7997570037841797,-3.6557412147521973
1403715889974058000,-0.10628543794155121,0.013790573924779892,0.07929165661334991,9.2284517288208,-0.30549854040145874,-3.7061944007873535
1403715889979058000,-0.04682372137904167,0.013116538524627686,0.09618063271045685,9.30786418914795,-0.9240954518318176,-3.532222032546997
1403715889984058000,0.005054078996181488,0.014376915991306305,0.09477521479129791,9.16816234588623,-0.571810245513916,-3.55737566947937
1403715889989058000,0.04462284967303276,0.040432125329971313,0.0724194347858429,9.111963272094727,-0.17893339693546295,-3.479398250579834
1403715889994058000,0.06269524991512299,0.021842584013938904,0.08602273464202881,9.120988845825195,0.149764284491539,-3.425553560256958
1403715889999058000,0.052366796880960464,0.005450770258903503,0.07252741605043411,8.941081047058105,0.7204785346984863,-3.817189931869507
1403715890004058000,0.03380255028605461,0.01541224867105484,0.061195582151412964,9.016209602355957,0.7399951219558716,-3.5887746810913086
1403715890009058000,0.015884093940258026,0.00830455869436264,0.09036275744438171,9.291638374328613,0.9736074209213257,-3.804258108139038
1403715890014058000,-0.01964864507317543,0.018288567662239075,0.08524604141712189,8.984539031982422,1.2038780450820923,-3.7529494762420654
1403715890019058000,-0.04842128977179527,0.026958227157592773,0.09971478581428528,9.163374900817871,0.9458454847335815,-3.6150145530700684
1403715890024058000,-0.070963054895401,0.015168920159339905,0.10283117741346359,8.991836547851562,0.6567991971969604,-3.6612961292266846
1403715890029058000,-0.06770223379135132,0.005426686257123947,0.08244802057743073,9.045421600341797,-0.06355933845043182,-3.4358580112457275
1403715890034058000,-0.03212156146764755,0.0197436586022377,0.09556297212839127,9.255054473876953,-0.520614743232727,-3.550806999206543
1403715890039058000,0.01167917251586914,0.01768633723258972,0.07197520136833191,9.069208145141602,-0.37242934107780457,-3.598191022872925
1403715890044058000,0.04535166546702385,0.021924734115600586,0.07110042870044708,9.414460182189941,-0.0296286903321743,-3.755389451980591
1403715890049058000,0.060285020619630814,0.04235430061817169,0.0683269128203392,8.910055160522461,0.47938480973243713,-3.5622899532318115
1403715890054058000,0.04778411611914635,0.02390698343515396,0.06302118301391602,9.05061149597168,1.0207535028457642,-3.7730493545532227
1403715890059058000,0.0111905038356781,0.03342767804861069,0.06345850229263306,8.862689971923828,0.9635166525840759,-3.551856756210327
1403715890064058000,-0.016123265027999878,0.012297675013542175,0.08281929790973663,8.783339500427246,1.0702269077301025,-3.6576292514801025
1403715890069058000,-0.04625678434967995,0.003616802394390106,0.07961791008710861,9.027800559997559,0.7394813895225525,-3.7255263328552246
1403715890074058000,-0.05184127390384674,0.012707594782114029,0.08972708880901337,9.147782325744629,0.3922869563102722,-3.675325393676758
1403715890079058000,-0.04764042794704437,0.012703955173492432,0.08426029980182648,9.184806823730469,0.18601110577583313,-3.6348137855529785
1403715890084058000,-0.02641957439482212,0.02598525583744049,0.08559855818748474,9.416996002197266,-0.14544805884361267,-3.6629638671875
1403715890089058000,9.378790855407715e-05,0.03095221519470215,0.08581969141960144,8.93463134765625,-0.19299596548080444,-3.456946849822998
1403715890094058000,0.020949196070432663,0.026384197175502777,0.0777222067117691,9.273172378540039,-0.18663808703422546,-3.574819803237915
1403715890099058000,0.04346063360571861,0.01632765308022499,0.08335059136152267,8.95400619506836,0.159904345870018,-3.6157214641571045
1403715890104058000,0.04677901789546013,0.021884344518184662,0.08310481905937195,8.958647727966309,0.7551057934761047,-3.682920455932617
1403715890109058000,0.0252235047519207,0.01384640857577324,0.08816344290971756,9.105772018432617,1.089942216873169,-3.70290470123291
1403715890114058000,-0.020259538665413857,0.018049191683530807,0.08609255403280258,9.172385215759277,1.174556016921997,-3.854541063308716
1403715890119058000,-0.055964626371860504,0.0172743983566761,0.09561247378587723,9.050012588500977,0.9555871486663818,-3.6630661487579346
1403715890124058000,-0.06759974360466003,0.017389878630638123,0.09298127144575119,9.110339164733887,0.1987459510564804,-3.469722032546997
1403715890129058000,-0.036016110330820084,0.01318759098649025,0.09034980088472366,9.038067817687988,-0.6219586133956909,-3.472365379333496
1403715890134058000,0.02352004125714302,0.002793099731206894,0.07566013932228088,9.254905700683594,-0.8583159446716309,-3.4997055530548096
1403715890139058000,0.07180692255496979,0.021164536476135254,0.06423583626747131,9.332169532775879,-0.22750110924243927,-3.7553024291992188
1403715890144058000,0.08205443620681763,0.029973171651363373,0.03999136760830879,9.190335273742676,0.7241021394729614,-3.658177614212036
1403715890149058000,0.0478857047855854,0.03201355040073395,0.06075793132185936,9.355591773986816,1.712944507598877,-3.9404685497283936
1403715890154058000,-0.02380215749144554,0.04549292474985123,0.059469595551490784,8.39316177368164,2.1114068031311035,-3.610875129699707
1403715890159058000,-0.09508125483989716,0.01896360144019127,0.07697563618421555,9.073112487792969,1.3485709428787231,-3.708609104156494
1403715890164058000,-0.12252548336982727,0.00682000070810318,0.10521745681762695,8.679363250732422,-0.044452372938394547,-3.543029546737671
1403715890169058000,-0.07818195223808289,0.00406670942902565,0.09678509831428528,8.91006088256836,-0.9466278553009033,-3.3210396766662598
1403715890174058000,0.003109261393547058,-0.004021011292934418,0.09850629419088364,9.552420616149902,-1.3163288831710815,-3.5779101848602295
1403715890179058000,0.06735929846763611,0.046508997678756714,0.06601867824792862,9.343817710876465,-0.6227193474769592,-3.656120777130127
1403715890184058000,0.09109953045845032,0.023926585912704468,0.058978863060474396,9.01290225982666,0.38964635133743286,-3.6156859397888184
1403715890189058000,0.07366389036178589,0.03538266569375992,0.05868745595216751,9.069343566894531,1.0846877098083496,-3.5519094467163086
1403715890194058000,0.02900191769003868,0.0367206335067749,0.0676266998052597,9.019765853881836,1.2052032947540283,-3.7827110290527344
1403715890199058000,-0.010654658079147339,0.013696044683456421,0.082318976521492,8.768453598022461,1.204183578491211,-3.7532801628112793
1403715890204058000,-0.044620562344789505,0.012792572379112244,0.09867332875728607,8.991573333740234,1.2529895305633545,-3.6200296878814697
1403715890209058000,-0.08112761378288269,0.013434246182441711,0.09381680935621262,8.908907890319824,0.6913745403289795,-3.645200252532959
1403715890214058000,-0.07704031467437744,0.001783214509487152,0.08844522386789322,9.5167818069458,-0.06278850883245468,-3.9028549194335938
1403715890219058000,-0.04147583618760109,0.022040262818336487,0.0824039876461029,9.316304206848145,-0.42968544363975525,-3.4332501888275146
1403715890224058000,-0.002083331346511841,0.04249978065490723,0.07070036977529526,9.276430130004883,-0.5482509732246399,-3.590374231338501
1403715890229058000,0.028685998171567917,0.017387378960847855,0.06522568315267563,8.940136909484863,-0.20908668637275696,-3.4879989624023438
1403715890234058000,0.040456850081682205,0.03773770481348038,0.06700704991817474,8.995683670043945,0.41653990745544434,-3.5222959518432617
1403715890239058000,0.04453239217400551,0.012062542140483856,0.08335642516613007,8.725968360900879,0.4994151294231415,-3.538865804672241
1403715890244058000,0.028804507106542587,0.013393323868513107,0.06708507984876633,9.371170043945312,0.7674340605735779,-3.8242719173431396
1403715890249058000,0.0028399527072906494,-0.002428792417049408,0.08124717324972153,8.924057960510254,1.0276187658309937,-3.733957290649414
1403715890254058000,-0.021320750936865807,0.016302086412906647,0.0715995728969574,8.956936836242676,0.799762487411499,-3.5512948036193848
1403715890259058000,-0.034592945128679276,0.001248881220817566,0.08814945071935654,9.402947425842285,0.5874741673469543,-3.754495143890381
1403715890264058000,-0.04052009433507919,0.015244077891111374,0.09609436243772507,8.957539558410645,0.38031813502311707,-3.596160411834717
1403715890269058000,-0.034137874841690063,0.010781023651361465,0.0951382964849472,9.182334899902344,0.0713169276714325,-3.5478198528289795
1403715890274058000,-0.012669533491134644,0.006306283175945282,0.09985192865133286,8.811086654663086,-0.0038646291941404343,-3.3396918773651123
1403715890279058000,0.00767095759510994,0.013934820890426636,0.07491514086723328,9.311643600463867,-0.10936551541090012,-3.7567195892333984
1403715890284058000,0.02317347750067711,0.009251147508621216,0.06110668182373047,9.406478881835938,-0.04763786494731903,-3.715912342071533
1403715890289058000,0.036391835659742355,0.02753327786922455,0.06104666739702225,9.036981582641602,0.4886002838611603,-3.6341466903686523
1403715890294058000,0.032881636172533035,0.03266508877277374,0.07071737945079803,9.049948692321777,0.5013542771339417,-3.7445895671844482
1403715890299058000,0.016813423484563828,0.022317975759506226,0.07504619657993317,8.908665657043457,0.8580517768859863,-3.6226084232330322
1403715890304058000,-0.011516788974404335,0.01297934353351593,0.08425629138946533,8.936718940734863,0.9617975950241089,-3.5454635620117188
1403715890309058000,-0.032501962035894394,0.01950686424970627,0.07843533158302307,9.182707786560059,0.6318719387054443,-3.7398269176483154
1403715890314058000,-0.036347970366477966,0.010990869253873825,0.08210345357656479,8.807621955871582,0.13516739010810852,-3.5710442066192627
1403715890319058000,-0.021897852420806885,0.0045854561030864716,0.05825808644294739,9.312749862670898,-0.07017461210489273,-3.6166324615478516
1403715890324058000,0.005963582545518875,0.017361782491207123,0.06698288768529892,9.138425827026367,0.215596005320549,-3.7043356895446777
1403715890329058000,0.012350115925073624,0.01916521042585373,0.06739853322505951,9.249526977539062,0.5910587906837463,-3.642063856124878
1403715890334058000,-0.009476188570261002,0.030623167753219604,0.07831446826457977,9.238701820373535,0.9130403399467468,-3.724623918533325
1403715890339058000,-0.04907355457544327,0.0351857915520668,0.09168319404125214,8.842269897460938,1.1337840557098389,-3.7112877368927
1403715890344058000,-0.06968674808740616,0.022511638700962067,0.10142780840396881,8.963494300842285,0.4609527289867401,-3.40671968460083
1403715890349058000,-0.0471479594707489,0.02635636180639267,0.11204281449317932,9.231298446655273,-0.6070196032524109,-3.638843536376953
1403715890354058000,0.008251044899225235,0.03228110074996948,0.08930189162492752,8.99324893951416,-0.92575603723526,-3.474482297897339
1403715890359058000,0.07578331232070923,-0.002410575747489929,0.07782784104347229,9.014968872070312,-0.9592106342315674,-3.345912218093872
1403715890364058000,0.1207457184791565,0.04051576554775238,0.07026803493499756,9.354887008666992,0.06262645125389099,-3.5264527797698975
1403715890369058000,0.09397053718566895,0.009376946836709976,0.05790913105010986,8.837424278259277,1.899967908859253,-3.8857085704803467
1403715890374058000,0.014748949557542801,0.016006864607334137,0.060763031244277954,9.3840970993042,2.452239513397217,-3.998819589614868
1403715890379058000,-0.0780348926782608,0.015020087361335754,0.0891885757446289,8.379415512084961,1.8215560913085938,-3.5103137493133545
1403715890384058000,-0.12320081889629364,0.0011806637048721313,0.10592225939035416,9.187739372253418,0.4219689965248108,-3.6766865253448486
1403715890389058000,-0.09172634780406952,0.012439943850040436,0.1038246899843216,9.314824104309082,-0.9054046273231506,-3.5036509037017822
1403715890394058000,-0.029405273497104645,0.006913788616657257,0.07408604770898819,8.968948364257812,-0.9728268384933472,-3.372795820236206
1403715890399058000,0.034588273614645004,0.009880498051643372,0.05367383360862732,9.443624496459961,-0.7472401857376099,-3.6495518684387207
1403715890404058000,0.08274638652801514,0.03606092184782028,0.0534539669752121,9.309146881103516,-0.22635290026664734,-3.602346181869507
1403715890409058000,0.08366641402244568,0.014174435287714005,0.038957394659519196,8.764633178710938,0.5424496531486511,-3.587167739868164
1403715890414058000,0.0664890706539154,0.028596676886081696,0.055760111659765244,9.118531227111816,1.1299333572387695,-3.6950674057006836
1403715890419058000,0.029104705899953842,0.011635072529315948,0.09089522808790207,8.703598022460938,1.3604120016098022,-3.7851922512054443
1403715890424058000,-0.022032752633094788,0.0016430914402008057,0.07935725897550583,8.944408416748047,1.366629719734192,-3.7571821212768555
1403715890429058000,-0.05978480726480484,-0.002092227339744568,0.08873317390680313,9.171708106994629,1.0166316032409668,-3.6328797340393066
1403715890434058000,-0.08498793840408325,0.009001795202493668,0.08323121815919876,9.276217460632324,0.5260418653488159,-3.8493754863739014
1403715890439058000,-0.0757392942905426,0.0030221454799175262,0.0879872590303421,9.052387237548828,-0.17929786443710327,-3.6109092235565186
1403715890444058000,-0.042565569281578064,0.024571925401687622,0.08548972755670547,9.427729606628418,-0.378896027803421,-3.647578239440918
1403715890449058000,-0.007079102098941803,0.02373245358467102,0.08414796739816666,8.945656776428223,-0.31799349188804626,-3.6077182292938232
1403715890454058000,0.034293945878744125,0.0276472344994545,0.09038558602333069,9.04786491394043,-0.3173869848251343,-3.4714789390563965
1403715890459058000,0.061195965856313705,0.028614617884159088,0.08603900671005249,9.191219329833984,-0.029100622981786728,-3.6385855674743652
1403715890464058000,0.0577285997569561,0.023996680974960327,0.050390299409627914,9.05300521850586,0.5362785458564758,-3.705533981323242
1403715890469058000,0.04544046148657799,0.014327920973300934,0.05385701358318329,9.070380210876465,0.8425133228302002,-3.716541051864624
1403715890474058000,0.021140970289707184,0.024825744330883026,0.0609164759516716,9.275508880615234,1.1612647771835327,-3.7369604110717773
1403715890479058000,-0.017744455486536026,0.02925702929496765,0.07399634271860123,8.929656982421875,1.282179594039917,-3.771270751953125
1403715890484058000,-0.05771490931510925,0.02545113116502762,0.08916360884904861,9.10428524017334,0.9826463460922241,-3.6647965908050537
1403715890489058000,-0.07798897475004196,0.021001480519771576,0.10476682335138321,8.81486701965332,0.39742374420166016,-3.54286789894104
1403715890494058000,-0.06312400102615356,0.010634906589984894,0.0941995307803154,9.002693176269531,-0.2243877500295639,-3.4125020503997803
1403715890499058000,-0.02731446549296379,0.01316693052649498,0.07468477636575699,9.379932403564453,-0.48745736479759216,-3.6463160514831543
1403715890504058000,0.01332089677453041,0.01948893442749977,0.06593699008226395,9.111554145812988,-0.45678338408470154,-3.7241790294647217
1403715890509058000,0.04696732386946678,0.021090060472488403,0.06869510561227798,8.978907585144043,-0.16044703125953674,-3.5264151096343994
1403715890514058000,0.05783474072813988,0.025978580117225647,0.06818559020757675,9.422821044921875,0.5970012545585632,-3.8700671195983887
1403715890519058000,0.02692873403429985,0.03120437264442444,0.077681764960289,8.756659507751465,1.158592939376831,-3.6248207092285156
1403715890524058000,-0.006767481565475464,0.019208937883377075,0.08471298962831497,8.988131523132324,1.1491206884384155,-3.6898207664489746
1403715890529058000,-0.02840941771864891,0.02650592476129532,0.08330412954092026,9.139565467834473,0.32360759377479553,-3.470278024673462
1403715890534058000,-0.020276090130209923,0.005316898226737976,0.07665038853883743,8.861580848693848,-0.15661272406578064,-3.4832401275634766
1403715890539058000,0.004004485905170441,0.009876564145088196,0.06898646801710129,9.455674171447754,-0.10616523772478104,-3.7338898181915283
1403715890544058000,0.024545904248952866,0.0063273124396800995,0.0676032155752182,8.966907501220703,0.5614633560180664,-3.587075710296631
1403715890549058000,0.007538113743066788,0.014193259179592133,0.07343423366546631,9.311431884765625,1.179803490638733,-3.892043352127075
1403715890554058000,-0.03506328910589218,0.02382144331932068,0.08012668043375015,9.298423767089844,1.4002203941345215,-3.7151782512664795
1403715890559058000,-0.07748199999332428,0.016479026526212692,0.09130296856164932,8.858880043029785,1.0351653099060059,-3.632063627243042
1403715890564058000,-0.08197040855884552,0.026787780225276947,0.0867052972316742,9.208595275878906,0.01693907380104065,-3.6040868759155273
1403715890569058000,-0.04003996402025223,0.013482008129358292,0.08443448692560196,8.876312255859375,-0.8770033717155457,-3.382368564605713
1403715890574058000,0.01840667799115181,0.009966202080249786,0.07624949514865875,8.917941093444824,-0.7111627459526062,-3.421433925628662
1403715890579058000,0.057355012744665146,0.013687308877706528,0.054999902844429016,9.373047828674316,-0.1792576164007187,-3.589118719100952
1403715890584058000,0.06802061200141907,0.01578165590763092,0.05947079509496689,9.053966522216797,0.6881264448165894,-3.735820770263672
1403715890589058000,0.04731575772166252,0.025084227323532104,0.060538262128829956,8.886216163635254,1.089219570159912,-3.7258386611938477
1403715890594058000,0.011748537421226501,0.021207861602306366,0.05239305645227432,9.282930374145508,1.3774504661560059,-3.8192474842071533
1403715890599058000,-0.04301765188574791,0.01628139615058899,0.08143048733472824,8.978930473327637,1.1310774087905884,-3.7364327907562256
1403715890604058000,-0.05895688012242317,0.03140643239021301,0.08363829553127289,8.914841651916504,0.45095154643058777,-3.558612108230591
1403715890609058000,-0.05260370671749115,0.0052449069917202,0.08798321336507797,8.955988883972168,0.1557198166847229,-3.4772329330444336
1403715890614058000,-0.041165564209222794,0.00956634059548378,0.0704767182469368,9.041430473327637,0.0625888854265213,-3.681093454360962
1403715890619058000,-0.014665745198726654,0.013196539133787155,0.07066115736961365,9.399373054504395,-0.18242238461971283,-3.788358211517334
1403715890624058000,0.012096606194972992,0.02036362886428833,0.06574660539627075,8.98939037322998,-0.19566266238689423,-3.686469078063965
1403715890629058000,0.027553778141736984,0.03617728501558304,0.049952007830142975,9.176675796508789,0.1444530189037323,-3.7123985290527344
1403715890634058000,0.033204760402441025,0.03640308231115341,0.07012288272380829,9.180685043334961,0.5327731370925903,-3.738007068634033
1403715890639058000,0.026189837604761124,0.03761185705661774,0.08626960217952728,8.823017120361328,0.611528754234314,-3.644470453262329
1403715890644058000,0.015036504715681076,0.03430850803852081,0.08177632838487625,8.780671119689941,0.6729121804237366,-3.4957611560821533
1403715890649058000,-0.00873919203877449,0.009918607771396637,0.08368346840143204,8.885680198669434,0.8450605273246765,-3.503726005554199
1403715890654058000,-0.02518865466117859,0.01103212684392929,0.08397959172725677,9.32893180847168,0.5368937849998474,-3.7685024738311768
1403715890659058000,-0.028104402124881744,0.02145565301179886,0.08387267589569092,9.151824951171875,0.33309465646743774,-3.681197166442871
1403715890664058000,-0.024499837309122086,0.021074257791042328,0.07684751600027084,9.169587135314941,0.32155510783195496,-3.602827787399292
1403715890669058000,-0.022761007770895958,0.03436018526554108,0.08462256193161011,9.421743392944336,0.24608775973320007,-3.6179561614990234
1403715890674058000,-0.012337308377027512,0.037171244621276855,0.08819510042667389,9.077672958374023,0.17339593172073364,-3.6809325218200684
1403715890679058000,0.00803999975323677,0.03607624024152756,0.08130919188261032,8.921728134155273,0.01519852690398693,-3.4987566471099854
1403715890684058000,0.019689835608005524,0.030539467930793762,0.06780247390270233,9.082658767700195,0.1686733514070511,-3.5540390014648438
1403715890689058000,0.024078261107206345,0.012675926089286804,0.06028129905462265,9.079259872436523,0.4354160726070404,-3.6808342933654785
1403715890694058000,0.024625305086374283,0.010916747152805328,0.062116608023643494,9.022634506225586,0.6219479441642761,-3.6827619075775146
1403715890699058000,0.005561809986829758,0.015111483633518219,0.060011230409145355,9.106249809265137,0.8657605648040771,-3.709272861480713
1403715890704058000,-0.024224717170000076,0.010425932705402374,0.07110627740621567,9.205425262451172,0.8646215796470642,-3.6933202743530273
1403715890709058000,-0.0386318676173687,0.017977803945541382,0.08067113906145096,9.046701431274414,0.7410449981689453,-3.71698260307312
1403715890714058000,-0.03501654788851738,0.028147660195827484,0.08251961320638657,9.221481323242188,0.15566276013851166,-3.5240769386291504
1403715890719058000,-0.016217440366744995,0.021437518298625946,0.07375921308994293,9.073651313781738,-0.24294257164001465,-3.4898338317871094
1403715890724058000,0.008350178599357605,0.015454944223165512,0.05824656784534454,9.169942855834961,-0.031583521515131,-3.608407497406006
1403715890729058000,0.022359337657690048,0.023103266954421997,0.06867075711488724,8.97596549987793,0.35218095779418945,-3.5775880813598633
1403715890734058000,0.009058911353349686,0.01199931651353836,0.06518876552581787,9.044742584228516,1.0116645097732544,-3.835561513900757
1403715890739058000,-0.023684725165367126,0.018641740083694458,0.07682915031909943,9.00184440612793,1.11982262134552,-3.6869425773620605
1403715890744058000,-0.0498068742454052,0.021013937890529633,0.09941883385181427,9.175947189331055,0.7409440279006958,-3.882227659225464
1403715890749058000,-0.04968998581171036,0.03632349520921707,0.10538998246192932,8.886131286621094,-0.17599798738956451,-3.2464404106140137
1403715890754058000,-0.01008467748761177,0.001214977353811264,0.08440351486206055,9.212635040283203,-1.0589593648910522,-3.461195707321167
1403715890759058000,0.06909303367137909,0.04053419083356857,0.07469545304775238,9.31801986694336,-0.5773321986198425,-3.697993516921997
1403715890764058000,0.09591303765773773,0.010796688497066498,0.06614148616790771,8.712148666381836,0.519511878490448,-3.317901849746704
1403715890769058000,0.06128102168440819,0.022089429199695587,0.05815492197871208,9.49226188659668,1.3999730348587036,-4.004334926605225
1403715890774058000,0.0020572207868099213,0.02005574479699135,0.06488654762506485,8.674370765686035,2.0240235328674316,-3.5913562774658203
1403715890779058000,-0.06108438968658447,-0.0037130415439605713,0.06830594688653946,9.258584022521973,1.4880120754241943,-3.8525991439819336
1403715890784058000,-0.08538967370986938,0.056345149874687195,0.09472183138132095,9.352197647094727,0.509196400642395,-3.7637898921966553
1403715890789058000,-0.07808837294578552,0.009438000619411469,0.06928432732820511,9.011099815368652,-0.18506456911563873,-3.61979079246521
1403715890794058000,-0.030817024409770966,0.03745127469301224,0.08141980320215225,9.070178985595703,-0.5251713991165161,-3.4491078853607178
1403715890799058000,0.004930134862661362,0.044362522661685944,0.07087935507297516,8.95391845703125,-0.04432540014386177,-3.3472585678100586
1403715890804058000,0.025060664862394333,0.0075348541140556335,0.0699412077665329,9.442514419555664,0.11390303820371628,-3.850822925567627
1403715890809058000,0.03177957609295845,0.03909160941839218,0.07754290103912354,8.846600532531738,0.3933688998222351,-3.5217843055725098
1403715890814058000,0.02530832216143608,0.023985497653484344,0.06307677924633026,9.074357986450195,0.5863158106803894,-3.7928245067596436
1403715890819058000,0.019697722047567368,0.022131510078907013,0.07189897447824478,9.090371131896973,0.5309693217277527,-3.6897377967834473
1403715890824058000,0.011779863387346268,0.0399196594953537,0.08259950578212738,9.08995246887207,0.9067236185073853,-3.772833824157715
1403715890829058000,-0.010252304375171661,0.02760913223028183,0.07968124002218246,9.09672737121582,0.8068705797195435,-3.654705286026001
1403715890834058000,-0.031125802546739578,0.0202903114259243,0.09375075250864029,9.019597053527832,0.7653347253799438,-3.583028554916382
1403715890839058000,-0.048904914408922195,0.04255659133195877,0.09573324024677277,8.887328147888184,0.6539421677589417,-3.56488299369812
1403715890844058000,-0.04100111499428749,0.006442755460739136,0.10459665954113007,9.045868873596191,0.04006759822368622,-3.593789577484131
1403715890849058000,-0.020360097289085388,0.029703497886657715,0.10143274813890457,9.23083209991455,-0.12999288737773895,-3.465027332305908
